Timestamp, AccelX, AccelY, AccelZ, GyroX, GyroY, GyroZ, MagX, MagY, MagZ, QuatW, QuatX, QuatY, QuatZ,TimeAligned
1304,9.92,2.51,-0.71,0.19,-0.58,-0.2,-37.06,5.87,4.06,0.79,-0.01,-0.61,-0.02,221
1305,9.87,1.83,-0.57,0.34,-0.48,-0.07,-37.06,5.87,4.06,0.79,-0.0,-0.61,-0.02,222
1306,9.75,0.54,-0.37,0.46,-0.42,0.02,-37.06,5.87,4.06,0.79,-0.0,-0.62,-0.02,223
1307,9.88,0.18,0.14,0.55,-0.35,0.03,-37.06,5.87,4.06,0.79,-0.0,-0.62,-0.02,224
1308,9.99,0.0,0.48,0.58,-0.27,0.02,-37.0,4.5,3.69,0.79,0.0,-0.62,-0.02,225
1309,10.01,-0.15,0.54,0.54,-0.24,0.01,-37.0,4.5,3.69,0.79,0.0,-0.62,-0.02,226
1310,9.8,-0.21,0.94,0.45,-0.2,0.01,-37.0,4.5,3.69,0.79,0.01,-0.62,-0.01,227
1311,9.7,0.1,1.4,0.33,-0.15,-0.0,-37.0,4.5,3.69,0.78,0.01,-0.62,-0.01,228
1312,9.6,0.51,1.63,0.2,-0.11,-0.02,-37.0,4.5,3.69,0.78,0.01,-0.62,-0.01,229
1313,9.49,0.69,1.69,0.13,-0.12,-0.02,-36.56,5.87,4.75,0.78,0.01,-0.62,-0.01,230
1314,9.58,0.7,2.08,0.11,-0.11,-0.0,-36.56,5.87,4.75,0.78,0.01,-0.62,-0.01,231
1315,9.58,0.7,2.08,0.09,-0.1,0.02,-36.56,5.87,4.75,0.78,0.01,-0.62,-0.01,232
1316,9.56,0.36,2.48,0.08,-0.09,0.03,-36.56,5.87,4.75,0.78,0.01,-0.62,-0.01,233
1317,9.4,0.23,2.54,0.05,-0.1,0.02,-36.56,5.87,4.75,0.78,0.01,-0.62,-0.01,234
1318,9.12,0.42,2.75,-0.04,-0.09,0.01,-36.06,5.5,5.69,0.78,0.01,-0.62,-0.01,235
1319,9.0,0.46,2.58,-0.14,-0.09,0.03,-36.06,5.5,5.69,0.78,0.01,-0.62,-0.01,236
1320,9.0,0.46,2.58,-0.2,-0.1,0.04,-36.06,5.5,5.69,0.78,0.01,-0.62,-0.01,237
1321,9.18,0.63,2.57,-0.22,-0.1,0.03,-36.06,5.5,5.69,0.78,0.01,-0.62,-0.01,238
1322,9.26,0.66,2.44,-0.24,-0.12,0.0,-36.06,5.5,5.69,0.78,0.01,-0.62,-0.01,239
1323,9.26,0.54,2.15,-0.26,-0.13,-0.01,-37.56,5.0,6.87,0.78,0.0,-0.62,-0.01,240
1324,9.15,0.41,1.95,-0.3,-0.11,0.0,-37.56,5.0,6.87,0.78,0.0,-0.63,-0.01,241
1325,9.31,0.38,1.88,-0.36,-0.08,0.03,-37.56,5.0,6.87,0.78,0.0,-0.63,-0.02,242
1326,9.46,0.4,1.86,-0.41,-0.08,0.03,-37.56,5.0,6.87,0.78,0.0,-0.63,-0.02,243
1327,9.62,0.48,1.86,-0.45,-0.09,0.03,-37.56,5.0,6.87,0.78,-0.0,-0.63,-0.02,244
1328,9.72,0.55,1.84,-0.47,-0.09,0.03,-37.69,5.0,7.19,0.78,-0.0,-0.63,-0.02,245
1329,9.72,0.55,1.84,-0.49,-0.08,0.04,-37.69,5.0,7.19,0.78,-0.01,-0.63,-0.02,246
1330,9.61,0.61,1.6,-0.48,-0.05,0.06,-37.69,5.0,7.19,0.78,-0.01,-0.63,-0.02,247
1331,9.58,0.63,1.67,-0.45,-0.04,0.08,-37.69,5.0,7.19,0.78,-0.01,-0.63,-0.02,248
1332,9.58,0.63,1.67,-0.42,-0.04,0.09,-37.69,5.0,7.19,0.78,-0.01,-0.63,-0.02,249
1333,9.61,0.65,2.42,-0.39,-0.03,0.09,-36.75,6.56,6.37,0.78,-0.01,-0.63,-0.02,250
1334,9.61,0.65,2.42,-0.39,-0.03,0.09,-36.75,6.56,6.37,0.78,-0.01,-0.63,-0.03,251
1335,9.48,0.85,2.88,-0.39,-0.03,0.12,-36.75,6.56,6.37,0.78,-0.02,-0.63,-0.03,252
1336,9.0,0.62,3.16,-0.37,-0.03,0.11,-36.75,6.56,6.37,0.78,-0.02,-0.63,-0.03,253
1337,8.95,0.45,3.32,-0.33,-0.05,0.1,-36.75,6.56,6.37,0.78,-0.02,-0.63,-0.03,254
1338,9.06,0.27,3.47,-0.3,-0.07,0.1,-37.75,6.19,6.69,0.78,-0.02,-0.63,-0.03,255
1339,9.24,0.17,3.59,-0.29,-0.1,0.1,-37.75,6.19,6.69,0.78,-0.02,-0.63,-0.03,256
1340,9.34,-0.11,3.4,-0.3,-0.15,0.09,-37.75,6.19,6.69,0.78,-0.02,-0.63,-0.03,257
1341,9.24,-0.43,3.21,-0.28,-0.17,0.08,-37.75,6.19,6.69,0.78,-0.03,-0.63,-0.03,258
1342,9.19,-0.67,2.94,-0.26,-0.2,0.07,-37.75,6.19,6.69,0.78,-0.03,-0.63,-0.03,259
1343,9.19,-0.67,2.94,-0.26,-0.23,0.05,-37.38,6.19,6.69,0.78,-0.03,-0.63,-0.03,260
1344,9.77,-0.67,1.59,-0.36,-0.28,0.01,-37.38,6.19,6.69,0.77,-0.03,-0.63,-0.03,261
1345,9.95,-0.58,1.33,-0.4,-0.28,0.0,-37.38,6.19,6.69,0.77,-0.03,-0.63,-0.03,262
1346,9.94,-0.26,1.19,-0.42,-0.27,-0.0,-37.38,6.19,6.69,0.77,-0.03,-0.63,-0.03,263
1347,9.96,-0.13,1.18,-0.43,-0.25,0.01,-36.0,6.06,7.75,0.77,-0.04,-0.64,-0.04,264
1348,9.96,-0.13,1.18,-0.4,-0.22,0.03,-36.0,6.06,7.75,0.77,-0.04,-0.64,-0.04,265
1349,10.08,0.1,1.32,-0.3,-0.2,0.02,-36.0,6.06,7.75,0.77,-0.04,-0.64,-0.04,266
1350,10.01,-0.12,1.42,-0.18,-0.19,0.03,-36.0,6.06,7.75,0.77,-0.04,-0.64,-0.04,267
1351,10.01,-0.12,1.42,-0.06,-0.18,0.06,-36.0,6.06,7.75,0.77,-0.04,-0.64,-0.04,268
1352,10.04,-0.59,1.57,0.04,-0.17,0.07,-36.0,6.0,7.87,0.77,-0.04,-0.64,-0.04,269
1353,10.04,-0.59,1.57,0.04,-0.17,0.07,-36.0,6.0,7.87,0.77,-0.04,-0.64,-0.04,270
1354,9.77,-0.71,1.83,0.15,-0.15,0.06,-36.0,6.0,7.87,0.77,-0.04,-0.64,-0.04,271
1355,9.65,-0.67,1.85,0.2,-0.14,0.08,-36.0,6.0,7.87,0.77,-0.04,-0.64,-0.04,272
1356,9.55,-0.59,1.84,0.26,-0.14,0.06,-36.0,6.0,7.87,0.77,-0.04,-0.64,-0.03,273
1357,9.63,-0.44,1.79,0.32,-0.15,0.04,-35.56,5.56,8.69,0.77,-0.04,-0.64,-0.03,274
1358,9.69,-0.32,1.72,0.36,-0.16,0.02,-35.56,5.56,8.69,0.76,-0.03,-0.64,-0.03,275
1359,9.69,-0.24,1.41,0.38,-0.16,-0.0,-35.56,5.56,8.69,0.76,-0.03,-0.64,-0.03,276
1360,9.65,-0.26,1.27,0.36,-0.15,-0.01,-35.56,5.56,8.69,0.76,-0.03,-0.64,-0.03,277
1361,9.7,-0.32,1.23,0.33,-0.13,-0.02,-35.56,5.56,8.69,0.76,-0.03,-0.64,-0.03,278
1362,9.7,-0.32,1.23,0.28,-0.11,-0.02,-35.69,6.06,8.75,0.76,-0.03,-0.64,-0.03,279
1363,9.65,-0.42,1.24,0.2,-0.08,-0.01,-35.69,6.06,8.75,0.76,-0.03,-0.64,-0.03,280
1364,9.49,-0.3,1.16,0.1,-0.06,-0.0,-35.69,6.06,8.75,0.76,-0.03,-0.64,-0.03,281
1365,9.49,-0.3,1.16,0.03,-0.04,-0.02,-35.69,6.06,8.75,0.76,-0.03,-0.64,-0.03,282
1366,9.74,0.3,1.09,-0.01,-0.03,-0.03,-35.69,6.06,8.75,0.76,-0.03,-0.65,-0.03,283
1367,9.74,0.3,1.09,-0.01,-0.03,-0.03,-36.5,6.5,8.5,0.76,-0.03,-0.65,-0.03,284
1368,10.19,-0.06,1.24,0.1,-0.01,-0.0,-36.5,6.5,8.5,0.76,-0.03,-0.65,-0.03,285
1369,9.91,-0.52,1.35,0.17,0.03,-0.01,-36.5,6.5,8.5,0.76,-0.03,-0.65,-0.03,286
1370,9.64,-0.69,1.58,0.22,0.05,-0.02,-36.5,6.5,8.5,0.76,-0.03,-0.64,-0.03,287
1371,9.53,-0.62,1.75,0.23,0.05,-0.03,-36.5,6.5,8.5,0.76,-0.03,-0.64,-0.03,288
1372,9.58,-0.07,2.07,0.23,0.05,-0.05,-36.88,6.37,8.88,0.76,-0.02,-0.64,-0.02,289
1373,9.64,0.2,2.08,0.27,0.05,-0.06,-36.88,6.37,8.88,0.76,-0.02,-0.64,-0.02,290
1374,9.63,0.35,1.98,0.34,0.04,-0.05,-36.88,6.37,8.88,0.76,-0.02,-0.64,-0.02,291
1375,9.56,0.44,1.89,0.42,0.05,-0.05,-36.88,6.37,8.88,0.76,-0.02,-0.64,-0.02,292
1376,9.5,0.51,1.55,0.47,0.07,-0.05,-36.88,6.37,8.88,0.76,-0.02,-0.64,-0.02,293
1377,9.62,0.59,1.48,0.51,0.08,-0.04,-36.5,6.75,8.38,0.77,-0.01,-0.64,-0.02,294
1378,9.82,0.64,1.53,0.54,0.1,-0.04,-36.5,6.75,8.38,0.77,-0.01,-0.64,-0.02,295
1379,9.82,0.64,1.53,0.58,0.1,-0.03,-36.5,6.75,8.38,0.77,-0.01,-0.64,-0.02,296
1380,9.78,-0.01,1.25,0.6,0.1,-0.01,-36.5,6.75,8.38,0.77,-0.01,-0.64,-0.01,297
1381,9.64,-0.14,1.24,0.6,0.14,0.02,-36.5,6.75,8.38,0.77,-0.01,-0.64,-0.01,298
1382,9.54,-0.14,1.2,0.58,0.16,0.01,-36.38,6.37,8.38,0.77,-0.01,-0.64,-0.01,299
1383,9.58,-0.14,1.33,0.55,0.18,-0.02,-36.38,6.37,8.38,0.77,-0.0,-0.64,-0.01,300
1384,9.66,-0.24,1.4,0.52,0.2,-0.03,-36.38,6.37,8.38,0.77,0.0,-0.64,-0.01,301
1385,9.69,-0.39,1.48,0.47,0.19,-0.02,-36.38,6.37,8.38,0.77,0.0,-0.64,-0.01,302
1386,9.71,-0.52,1.64,0.43,0.2,-0.02,-36.38,6.37,8.38,0.77,0.0,-0.64,-0.0,303
1387,9.78,-0.55,2.19,0.39,0.18,-0.03,-37.06,6.75,7.56,0.77,0.0,-0.64,-0.0,304
1388,9.72,-0.52,2.42,0.35,0.13,-0.08,-37.06,6.75,7.56,0.77,0.01,-0.64,-0.0,305
1389,9.72,-0.52,2.42,0.35,0.13,-0.08,-37.06,6.75,7.56,0.77,0.01,-0.64,-0.0,306
1390,9.57,-0.58,2.44,0.33,0.1,-0.09,-37.06,6.75,7.56,0.77,0.01,-0.64,-0.0,307
1391,9.41,-0.74,2.26,0.29,0.07,-0.1,-36.38,7.19,6.75,0.77,0.01,-0.64,-0.0,308
1392,9.48,-0.73,2.12,0.23,0.04,-0.11,-36.38,7.19,6.75,0.77,0.01,-0.64,-0.0,309
1393,9.57,-0.6,2.04,0.02,0.01,-0.15,-36.38,7.19,6.75,0.77,0.01,-0.64,-0.0,310
1394,9.58,-0.11,1.68,0.02,0.01,-0.15,-36.38,7.19,6.75,0.77,0.01,-0.64,-0.0,311
1395,9.52,0.25,1.62,-0.08,0.01,-0.16,-36.38,7.19,6.75,0.77,0.01,-0.64,-0.0,312
1396,9.47,0.53,1.45,-0.15,0.01,-0.17,-36.38,7.19,6.75,0.77,0.01,-0.64,-0.0,313
1397,9.46,0.75,1.43,-0.19,0.02,-0.18,-36.75,7.0,6.5,0.77,0.01,-0.64,-0.0,314
1398,9.53,1.09,1.57,-0.23,0.03,-0.17,-36.75,7.0,6.5,0.77,0.01,-0.64,-0.01,315
1399,9.55,1.17,1.73,-0.24,0.04,-0.16,-36.75,7.0,6.5,0.77,0.01,-0.64,-0.01,316
1400,9.62,1.17,1.95,-0.18,0.04,-0.13,-36.75,7.0,6.5,0.77,0.01,-0.64,-0.01,317
1401,9.62,1.17,1.95,-0.18,0.04,-0.13,-36.75,7.0,6.5,0.77,0.01,-0.64,-0.01,318
1402,9.6,0.78,2.08,-0.08,0.03,-0.09,-36.75,6.69,7.25,0.77,0.01,-0.64,-0.01,319
1403,9.49,0.74,2.14,-0.03,0.05,-0.08,-36.75,6.69,7.25,0.77,0.01,-0.64,-0.01,320
1404,9.4,0.72,2.3,0.01,0.06,-0.08,-36.75,6.69,7.25,0.77,0.01,-0.63,-0.01,321
1405,9.41,0.66,2.26,0.05,0.05,-0.07,-36.75,6.69,7.25,0.77,0.01,-0.63,-0.01,322
1406,9.47,0.56,2.17,0.09,0.04,-0.06,-36.0,6.25,6.87,0.77,0.01,-0.63,-0.01,323
1407,9.49,0.45,2.12,0.1,0.04,-0.06,-36.0,6.25,6.87,0.77,0.01,-0.63,-0.01,324
1408,9.49,0.45,2.12,0.1,0.04,-0.06,-36.0,6.25,6.87,0.77,0.01,-0.63,-0.01,325
1409,9.49,0.67,2.04,0.09,0.04,-0.06,-36.0,6.25,6.87,0.77,0.01,-0.63,-0.01,326
1410,9.49,0.73,2.0,0.11,0.03,-0.06,-36.0,6.25,6.87,0.77,0.01,-0.63,-0.01,327
1411,9.51,0.71,2.0,0.13,0.03,-0.05,-36.0,5.87,7.25,0.77,0.01,-0.63,-0.01,328
1412,9.69,0.69,2.02,0.15,0.03,-0.05,-36.0,5.87,7.25,0.77,0.02,-0.63,-0.01,329
1413,9.71,0.74,2.08,0.15,0.02,-0.04,-36.0,5.87,7.25,0.77,0.02,-0.63,-0.01,330
1414,9.67,0.71,2.07,0.14,0.03,-0.03,-36.0,5.87,7.25,0.77,0.02,-0.63,-0.01,331
1415,9.67,0.71,2.07,0.12,0.03,-0.02,-36.0,5.87,7.25,0.77,0.02,-0.63,-0.01,332
1416,9.4,0.62,2.26,0.11,0.04,-0.01,-37.5,5.37,6.5,0.77,0.02,-0.63,-0.01,333
1417,9.4,0.62,2.26,0.11,0.04,-0.01,-37.5,5.37,6.5,0.77,0.02,-0.63,-0.01,334
1418,9.36,0.56,2.38,0.08,0.04,-0.0,-37.5,5.37,6.5,0.77,0.02,-0.63,-0.01,335
1419,9.38,0.47,2.35,0.07,0.03,-0.01,-37.5,5.37,6.5,0.77,0.02,-0.63,-0.01,336
1420,9.38,0.47,2.35,0.04,0.02,-0.01,-37.5,5.37,6.5,0.77,0.02,-0.63,-0.01,337
1421,9.44,0.41,2.32,0.02,0.02,-0.02,-36.5,6.56,7.37,0.77,0.02,-0.63,-0.01,338
1422,9.54,0.44,2.29,-0.01,0.0,-0.03,-36.5,6.56,7.37,0.77,0.02,-0.63,-0.01,339
1423,9.7,0.42,2.15,-0.04,-0.01,-0.04,-36.5,6.56,7.37,0.77,0.02,-0.63,-0.01,340
1424,9.66,0.38,2.13,-0.07,-0.02,-0.04,-36.5,6.56,7.37,0.77,0.02,-0.63,-0.01,341
1425,9.66,0.38,2.13,-0.1,-0.02,-0.04,-36.5,6.56,7.37,0.77,0.02,-0.63,-0.01,342
1426,9.55,0.38,2.18,-0.12,-0.02,-0.03,-37.19,6.56,7.25,0.77,0.02,-0.63,-0.01,343
1427,9.55,0.38,2.18,-0.12,-0.02,-0.03,-37.19,6.56,7.25,0.77,0.02,-0.63,-0.01,344
1428,9.49,0.92,2.11,-0.12,-0.03,-0.04,-37.19,6.56,7.25,0.77,0.02,-0.63,-0.01,345
1429,9.47,0.97,2.08,-0.07,-0.03,-0.03,-37.19,6.56,7.25,0.77,0.02,-0.63,-0.01,346
1430,9.5,0.82,2.06,-0.02,-0.03,-0.02,-37.19,6.56,7.25,0.77,0.02,-0.63,-0.01,347
1431,9.52,0.73,1.9,0.01,-0.03,-0.02,-37.06,5.5,7.69,0.77,0.02,-0.63,-0.01,348
1432,9.59,0.67,1.9,0.01,-0.03,-0.02,-37.06,5.5,7.69,0.77,0.02,-0.63,-0.01,349
1433,9.63,0.53,1.88,-0.01,-0.03,-0.02,-37.06,5.5,7.69,0.77,0.02,-0.63,-0.01,350
1434,9.66,0.54,1.86,-0.05,-0.02,-0.01,-37.06,5.5,7.69,0.77,0.02,-0.63,-0.01,351
1435,9.61,0.54,1.91,-0.06,-0.03,-0.0,-37.06,5.5,7.69,0.77,0.02,-0.63,-0.01,352
1436,9.61,0.54,1.91,-0.06,-0.03,-0.01,-37.19,5.75,7.56,0.77,0.02,-0.63,-0.01,353
1437,9.58,0.41,2.02,-0.05,-0.04,0.0,-37.19,5.75,7.56,0.77,0.02,-0.63,-0.01,354
1438,9.69,0.29,2.07,-0.03,-0.06,0.0,-37.19,5.75,7.56,0.77,0.02,-0.63,-0.01,355
1439,9.67,0.3,2.11,-0.03,-0.08,-0.0,-37.19,5.75,7.56,0.77,0.02,-0.63,-0.01,356
1440,9.58,0.36,2.09,-0.03,-0.07,-0.0,-37.19,5.75,7.56,0.77,0.02,-0.63,-0.01,357
1441,9.47,0.69,2.11,-0.03,-0.07,0.0,-37.75,5.0,6.0,0.77,0.02,-0.63,-0.01,358
1442,9.43,0.74,2.0,-0.01,-0.08,-0.0,-37.75,5.0,6.0,0.77,0.02,-0.63,-0.01,359
1443,9.46,0.72,1.93,0.03,-0.09,-0.01,-37.75,5.0,6.0,0.77,0.02,-0.63,-0.01,360
1444,9.5,0.66,1.85,0.05,-0.09,-0.01,-37.75,5.0,6.0,0.77,0.02,-0.63,-0.01,361
1445,9.62,0.49,1.64,0.04,-0.08,0.01,-37.19,5.87,6.87,0.77,0.02,-0.64,-0.01,362
1446,9.62,0.49,1.64,0.04,-0.08,0.01,-37.19,5.87,6.87,0.77,0.02,-0.64,-0.01,363
1447,9.65,0.35,1.57,0.01,-0.07,0.01,-37.19,5.87,6.87,0.77,0.02,-0.64,-0.01,364
1448,9.71,0.29,1.6,0.0,-0.07,0.01,-37.19,5.87,6.87,0.77,0.02,-0.64,-0.01,365
1449,9.7,0.26,1.65,-0.02,-0.07,0.02,-37.19,5.87,6.87,0.77,0.02,-0.64,-0.01,366
1450,9.7,0.26,1.65,-0.03,-0.07,0.02,-35.69,5.87,7.69,0.77,0.02,-0.64,-0.01,367
1451,9.54,0.3,1.57,-0.03,-0.05,0.02,-35.69,5.87,7.69,0.77,0.02,-0.64,-0.01,368
1452,9.58,0.33,1.68,-0.04,-0.03,0.03,-35.69,5.87,7.69,0.77,0.02,-0.64,-0.01,369
1453,9.6,0.4,1.69,-0.04,-0.01,0.03,-35.69,5.87,7.69,0.77,0.02,-0.64,-0.01,370
1454,9.59,0.43,1.7,-0.04,-0.01,0.03,-35.69,5.87,7.69,0.77,0.02,-0.64,-0.01,371
1455,9.53,0.56,1.88,-0.05,0.0,0.03,-36.5,5.5,7.25,0.77,0.02,-0.64,-0.01,372
1456,9.55,0.61,1.87,-0.04,0.01,0.03,-36.5,5.5,7.25,0.77,0.02,-0.64,-0.01,373
1457,9.61,0.58,1.97,-0.02,0.02,0.03,-36.5,5.5,7.25,0.77,0.02,-0.64,-0.01,374
1458,9.64,0.53,1.96,0.0,0.01,0.03,-36.5,5.5,7.25,0.77,0.02,-0.64,-0.01,375
1459,9.61,0.41,1.94,0.01,0.0,0.04,-36.5,5.5,7.25,0.77,0.02,-0.64,-0.01,376
1460,9.61,0.34,1.96,0.01,-0.0,0.04,-36.88,5.87,7.25,0.77,0.02,-0.64,-0.01,377
1461,9.61,0.34,1.96,0.01,-0.0,0.03,-36.88,5.87,7.25,0.77,0.02,-0.64,-0.01,378
1462,9.64,0.37,1.91,-0.0,-0.0,0.03,-36.88,5.87,7.25,0.77,0.02,-0.64,-0.01,379
1463,9.56,0.36,1.86,-0.01,0.01,0.04,-36.88,5.87,7.25,0.77,0.02,-0.64,-0.01,380
1464,9.55,0.36,1.88,-0.01,0.02,0.04,-36.88,5.87,7.25,0.77,0.02,-0.64,-0.01,381
1465,9.57,0.33,1.86,-0.01,0.01,0.04,-36.06,6.25,6.87,0.77,0.02,-0.64,-0.01,382
1466,9.63,0.37,1.84,-0.0,0.01,0.03,-36.06,6.25,6.87,0.77,0.01,-0.64,-0.01,383
1467,9.59,0.36,1.79,-0.01,-0.0,0.02,-36.06,6.25,6.87,0.77,0.01,-0.64,-0.01,384
1468,9.59,0.36,1.79,-0.02,0.01,0.03,-36.06,6.25,6.87,0.77,0.01,-0.64,-0.01,385
1469,9.63,0.44,1.89,-0.01,0.01,0.03,-36.06,6.25,6.87,0.77,0.01,-0.64,-0.01,386
1470,9.63,0.44,1.89,-0.0,0.01,0.03,-36.88,5.87,8.88,0.77,0.01,-0.64,-0.01,387
1471,9.61,0.34,1.92,0.0,0.01,0.03,-36.88,5.87,8.88,0.77,0.01,-0.64,-0.01,388
1472,9.58,0.32,1.9,0.0,0.01,0.03,-36.88,5.87,8.88,0.77,0.01,-0.64,-0.01,389
1473,9.57,0.34,1.94,-0.0,0.02,0.03,-36.88,5.87,8.88,0.77,0.01,-0.64,-0.01,390
1474,9.56,0.38,1.86,-0.0,0.02,0.02,-36.88,5.87,8.88,0.77,0.01,-0.64,-0.01,391
1475,9.56,0.37,1.85,-0.01,0.01,0.03,-37.19,6.25,7.69,0.77,0.01,-0.64,-0.01,392
1476,9.59,0.36,1.87,-0.01,0.01,0.02,-37.19,6.25,7.69,0.77,0.01,-0.64,-0.01,393
1477,9.58,0.38,1.84,-0.02,0.02,0.02,-37.19,6.25,7.69,0.77,0.01,-0.64,-0.01,394
1478,9.58,0.41,1.9,-0.03,0.03,0.03,-37.19,6.25,7.69,0.77,0.01,-0.64,-0.01,395
1479,9.58,0.41,1.9,-0.03,0.04,0.03,-37.19,6.25,7.69,0.77,0.01,-0.64,-0.01,396
1480,9.61,0.39,1.99,-0.03,0.04,0.03,-36.88,6.25,8.06,0.77,0.01,-0.64,-0.01,397
1481,9.61,0.39,1.99,-0.02,0.03,0.03,-36.88,6.25,8.06,0.77,0.01,-0.64,-0.01,398
1482,9.58,0.3,1.97,-0.02,0.02,0.03,-36.88,6.25,8.06,0.77,0.01,-0.64,-0.01,399
1483,9.54,0.31,2.02,-0.02,0.02,0.03,-36.88,6.25,8.06,0.77,0.01,-0.64,-0.01,400
1484,9.55,0.33,2.0,-0.02,0.02,0.02,-36.88,6.25,8.06,0.77,0.01,-0.64,-0.01,401
1485,9.6,0.35,1.97,-0.02,0.02,0.01,-37.5,5.37,7.25,0.77,0.01,-0.64,-0.01,402
1486,9.61,0.34,1.95,-0.01,0.02,0.02,-37.5,5.37,7.25,0.77,0.01,-0.64,-0.01,403
1487,9.58,0.33,1.9,-0.01,0.02,0.02,-37.5,5.37,7.25,0.77,0.01,-0.64,-0.01,404
1488,9.59,0.3,1.95,-0.01,0.03,0.02,-37.5,5.37,7.25,0.77,0.01,-0.64,-0.01,405
1489,9.59,0.33,1.95,-0.01,0.01,0.01,-38.0,6.5,8.06,0.77,0.01,-0.64,-0.01,406
1490,9.58,0.33,1.9,-0.02,0.01,0.01,-38.0,6.5,8.06,0.77,0.01,-0.64,-0.01,407
1491,9.61,0.39,1.95,-0.02,0.01,0.01,-38.0,6.5,8.06,0.77,0.01,-0.64,-0.01,408
1492,9.62,0.4,1.86,-0.02,0.01,0.01,-38.0,6.5,8.06,0.77,0.01,-0.64,-0.01,409
1493,9.57,0.35,1.85,-0.02,0.01,0.01,-38.0,6.5,8.06,0.77,0.01,-0.64,-0.01,410
1494,9.55,0.31,1.87,-0.01,0.01,0.02,-37.19,5.75,6.19,0.77,0.01,-0.64,-0.01,411
1495,9.62,0.33,1.92,-0.02,0.01,0.01,-37.19,5.75,6.19,0.77,0.01,-0.64,-0.01,412
1496,9.62,0.33,1.92,-0.02,0.01,0.01,-37.19,5.75,6.19,0.77,0.01,-0.64,-0.01,413
1497,9.64,0.34,1.95,-0.01,0.01,0.01,-37.19,5.75,6.19,0.77,0.01,-0.64,-0.01,414
1498,9.57,0.33,1.96,0.0,0.02,0.01,-37.19,5.75,6.19,0.77,0.01,-0.64,-0.01,415
1499,9.59,0.32,2.01,0.01,0.03,0.02,-36.06,5.75,6.87,0.77,0.01,-0.63,-0.01,416
1500,9.59,0.27,2.01,0.02,0.01,0.01,-36.06,5.75,6.87,0.77,0.01,-0.63,-0.01,417
1501,9.62,0.29,2.03,0.02,0.01,0.01,-36.06,5.75,6.87,0.77,0.01,-0.63,-0.01,418
1502,9.61,0.32,1.98,0.01,-0.0,0.0,-36.06,5.75,6.87,0.77,0.01,-0.63,-0.01,419
1503,9.58,0.31,1.94,0.01,-0.0,0.0,-36.88,6.25,7.37,0.77,0.01,-0.63,-0.01,420
1504,9.58,0.31,1.94,0.0,0.0,0.0,-36.88,6.25,7.37,0.77,0.01,-0.63,-0.01,421
1505,9.57,0.33,1.85,0.0,0.0,0.0,-36.88,6.25,7.37,0.77,0.01,-0.63,-0.01,422
1506,9.6,0.31,1.91,-0.0,0.01,0.0,-36.88,6.25,7.37,0.77,0.01,-0.63,-0.01,423
1507,9.64,0.3,1.94,0.0,0.0,0.0,-36.5,5.87,7.69,0.77,0.01,-0.63,-0.01,424
1508,9.61,0.29,1.91,-0.0,-0.0,-0.0,-36.5,5.87,7.69,0.77,0.01,-0.63,-0.01,425
1509,9.61,0.29,1.91,-0.01,0.0,-0.0,-36.5,5.87,7.69,0.77,0.01,-0.63,-0.01,426
1510,9.62,0.31,1.94,-0.01,0.0,-0.0,-36.5,5.87,7.69,0.77,0.01,-0.63,-0.01,427
1511,9.61,0.34,1.94,-0.01,-0.0,-0.0,-36.5,5.87,7.69,0.77,0.01,-0.63,-0.01,428
1512,9.6,0.33,1.95,0.0,-0.0,-0.01,-36.88,6.25,6.87,0.77,0.01,-0.63,-0.01,429
1513,9.55,0.31,1.9,0.0,-0.0,-0.01,-36.88,6.25,6.87,0.77,0.01,-0.63,-0.01,430
1514,9.55,0.32,1.93,0.0,-0.0,-0.0,-36.88,6.25,6.87,0.77,0.01,-0.63,-0.01,431
1515,9.58,0.34,1.93,0.0,0.0,-0.01,-36.88,6.25,6.87,0.77,0.01,-0.63,-0.01,432
1516,9.58,0.31,1.88,0.0,0.0,-0.0,-36.88,6.25,6.87,0.77,0.01,-0.63,-0.01,433
1517,9.58,0.31,1.88,0.0,0.01,-0.0,-36.88,6.25,6.87,0.77,0.01,-0.63,-0.01,434
1518,9.62,0.31,1.96,-0.01,0.02,0.0,-37.19,6.25,8.06,0.77,0.01,-0.63,-0.01,435
1519,9.61,0.32,1.95,-0.01,0.01,-0.0,-37.19,6.25,8.06,0.77,0.01,-0.63,-0.01,436
1520,9.61,0.32,1.95,-0.01,0.01,-0.0,-37.19,6.25,8.06,0.77,0.01,-0.63,-0.01,437
1521,9.57,0.34,1.97,-0.01,0.01,-0.0,-37.19,6.25,8.06,0.77,0.01,-0.63,-0.01,438
1522,9.59,0.39,1.93,-0.02,0.0,-0.01,-37.19,6.25,8.06,0.77,0.01,-0.63,-0.01,439
1523,9.6,0.34,1.94,-0.02,0.0,-0.01,-35.0,5.5,6.87,0.77,0.01,-0.63,-0.01,440
1524,9.6,0.34,1.95,-0.02,0.01,-0.01,-35.0,5.5,6.87,0.77,0.01,-0.63,-0.01,441
1525,9.6,0.34,1.95,-0.03,0.01,-0.01,-35.0,5.5,6.87,0.77,0.01,-0.63,-0.01,442
1526,9.57,0.36,1.99,-0.03,0.01,-0.0,-35.0,5.5,6.87,0.77,0.01,-0.63,-0.01,443
1527,9.62,0.41,1.99,-0.03,0.01,-0.0,-35.0,5.5,6.87,0.77,0.01,-0.63,-0.01,444
1528,9.58,0.42,1.94,-0.01,0.0,-0.01,-37.88,6.25,7.69,0.77,0.01,-0.63,-0.01,445
1529,9.56,0.39,1.96,-0.01,0.0,-0.0,-37.88,6.25,7.69,0.77,0.01,-0.63,-0.01,446
1530,9.56,0.35,1.96,-0.01,0.01,-0.0,-37.88,6.25,7.69,0.77,0.01,-0.63,-0.01,447
1531,9.58,0.3,1.98,-0.01,0.01,-0.0,-37.88,6.25,7.69,0.77,0.01,-0.63,-0.01,448
1532,9.59,0.29,1.98,-0.02,0.01,-0.0,-37.88,6.25,7.69,0.77,0.01,-0.63,-0.01,449
1533,9.6,0.3,1.99,-0.03,0.0,-0.01,-36.88,5.87,7.69,0.77,0.01,-0.63,-0.01,450
1534,9.57,0.35,1.98,-0.03,0.01,-0.01,-36.88,5.87,7.69,0.77,0.01,-0.63,-0.01,451
1535,9.56,0.33,1.97,-0.03,0.01,-0.0,-36.88,5.87,7.69,0.77,0.01,-0.63,-0.01,452
1536,9.58,0.33,2.0,-0.02,0.01,-0.01,-36.88,5.87,7.69,0.77,0.01,-0.63,-0.01,453
1537,9.58,0.33,2.0,-0.02,0.01,-0.01,-36.88,5.87,7.69,0.77,0.01,-0.63,-0.01,454
1538,9.57,0.33,1.99,-0.02,0.0,-0.0,-37.5,5.87,6.87,0.77,0.01,-0.63,-0.01,455
1539,9.57,0.33,1.99,-0.02,0.0,-0.01,-37.5,5.87,6.87,0.77,0.01,-0.63,-0.01,456
1540,9.58,0.42,2.0,-0.02,-0.01,-0.01,-37.5,5.87,6.87,0.77,0.01,-0.63,-0.01,457
1541,9.61,0.4,1.99,-0.02,-0.01,-0.01,-37.5,5.87,6.87,0.77,0.01,-0.63,-0.01,458
1542,9.58,0.41,1.97,-0.01,-0.0,-0.0,-37.56,6.5,5.69,0.77,0.01,-0.63,-0.01,459
1543,9.55,0.34,1.94,-0.01,-0.01,-0.0,-37.56,6.5,5.69,0.77,0.01,-0.63,-0.01,460
1544,9.55,0.34,1.94,0.0,-0.01,-0.0,-37.56,6.5,5.69,0.77,0.01,-0.63,-0.01,461
1545,9.63,0.3,1.96,-0.01,-0.02,-0.01,-37.56,6.5,5.69,0.77,0.01,-0.63,-0.01,462
1546,9.6,0.34,2.01,-0.02,-0.01,-0.01,-37.56,6.5,5.69,0.77,0.01,-0.63,-0.01,463
1547,9.57,0.38,1.97,-0.02,-0.01,-0.01,-37.19,6.5,8.06,0.77,0.01,-0.63,-0.01,464
1548,9.53,0.39,1.98,-0.02,-0.02,-0.01,-37.19,6.5,8.06,0.77,0.01,-0.63,-0.01,465
1549,9.57,0.41,1.95,-0.01,-0.02,-0.01,-37.19,6.5,8.06,0.77,0.01,-0.63,-0.01,466
1550,9.58,0.46,1.97,-0.01,-0.02,-0.01,-37.19,6.5,8.06,0.77,0.01,-0.63,-0.01,467
1551,9.63,0.45,2.04,0.01,-0.01,-0.0,-37.19,6.5,8.06,0.77,0.01,-0.63,-0.01,468
1552,9.57,0.42,2.01,0.02,-0.01,0.0,-35.38,5.37,7.69,0.77,0.01,-0.63,-0.01,469
1553,9.56,0.34,2.03,0.05,-0.02,0.0,-35.38,5.37,7.69,0.77,0.01,-0.63,-0.01,470
1554,9.58,0.33,2.05,0.07,-0.03,0.0,-35.38,5.37,7.69,0.77,0.01,-0.63,-0.01,471
1555,9.6,0.29,2.02,0.06,-0.04,0.0,-35.38,5.37,7.69,0.77,0.01,-0.64,-0.01,472
1556,9.61,0.3,2.01,0.05,-0.04,-0.0,-35.38,5.37,7.69,0.77,0.01,-0.64,-0.01,473
1557,9.59,0.33,1.97,0.04,-0.04,-0.01,-36.5,5.37,5.75,0.77,0.01,-0.64,-0.01,474
1558,9.59,0.42,1.93,0.03,-0.04,-0.01,-36.5,5.37,5.75,0.77,0.01,-0.64,-0.01,475
1559,9.58,0.42,1.86,0.03,-0.04,-0.0,-36.5,5.37,5.75,0.77,0.01,-0.64,-0.01,476
1560,9.58,0.35,1.82,0.04,-0.04,-0.0,-36.5,5.37,5.75,0.77,0.01,-0.64,-0.01,477
1561,9.58,0.37,1.82,0.04,-0.03,-0.0,-36.5,5.37,5.75,0.77,0.01,-0.64,-0.01,478
1562,9.61,0.34,1.84,0.04,-0.02,-0.0,-35.69,5.37,7.69,0.77,0.01,-0.64,-0.01,479
1563,9.61,0.34,1.84,0.03,-0.03,-0.0,-35.69,5.37,7.69,0.77,0.01,-0.64,-0.01,480
1564,9.63,0.28,1.8,0.03,-0.03,-0.0,-35.69,5.37,7.69,0.77,0.01,-0.64,-0.01,481
1565,9.59,0.33,1.85,0.03,-0.03,-0.0,-35.69,5.37,7.69,0.77,0.01,-0.64,-0.01,482
1566,9.59,0.33,1.85,0.02,-0.02,-0.0,-35.69,5.37,7.69,0.77,0.01,-0.64,-0.01,483
1567,9.59,0.37,1.9,0.02,-0.01,-0.0,-36.5,5.37,7.25,0.77,0.01,-0.64,-0.01,484
1568,9.62,0.33,1.87,0.02,-0.01,-0.01,-36.5,5.37,7.25,0.77,0.01,-0.64,-0.01,485
1569,9.62,0.33,1.87,0.01,-0.0,-0.0,-36.5,5.37,7.25,0.77,0.01,-0.64,-0.01,486
1570,9.6,0.36,1.91,0.01,0.0,-0.0,-36.5,5.37,7.25,0.77,0.01,-0.64,-0.01,487
1571,9.59,0.37,1.88,0.01,-0.01,-0.0,-36.5,5.37,7.25,0.77,0.01,-0.64,-0.01,488
1572,9.57,0.36,1.87,0.01,-0.01,-0.01,-36.88,6.19,7.69,0.77,0.01,-0.64,-0.01,489
1573,9.58,0.36,1.91,0.0,-0.0,-0.01,-36.88,6.19,7.69,0.77,0.01,-0.64,-0.01,490
1574,9.59,0.38,1.9,0.0,-0.0,-0.0,-36.88,6.19,7.69,0.77,0.01,-0.64,-0.01,491
1575,9.59,0.35,1.85,-0.0,0.0,0.0,-36.88,6.19,7.69,0.77,0.01,-0.64,-0.01,492
1576,9.56,0.33,1.84,-0.01,0.01,0.0,-36.88,6.19,7.69,0.77,0.01,-0.64,-0.01,493
1577,9.6,0.3,1.89,-0.01,0.01,-0.0,-37.88,5.75,7.69,0.77,0.01,-0.64,-0.01,494
1578,9.63,0.38,1.9,-0.02,0.01,-0.01,-37.88,5.75,7.69,0.77,0.01,-0.64,-0.01,495
1579,9.63,0.38,1.92,-0.02,0.01,-0.0,-37.88,5.75,7.69,0.77,0.01,-0.64,-0.01,496
1580,9.6,0.42,1.89,-0.02,0.01,-0.01,-37.88,5.75,7.69,0.77,0.01,-0.64,-0.01,497
1581,9.58,0.4,1.92,-0.01,0.01,-0.0,-37.88,5.75,7.69,0.77,0.01,-0.64,-0.01,498
1582,9.59,0.39,1.86,-0.01,0.01,-0.01,-37.56,6.5,7.37,0.77,0.01,-0.64,-0.01,499
1583,9.62,0.37,1.89,-0.0,0.0,-0.0,-37.56,6.5,7.37,0.77,0.01,-0.64,-0.01,500
1584,9.61,0.37,1.88,-0.01,0.0,-0.0,-37.56,6.5,7.37,0.77,0.01,-0.64,-0.01,501
1585,9.63,0.38,1.92,-0.01,0.01,-0.01,-37.56,6.5,7.37,0.77,0.01,-0.64,-0.01,502
1586,9.58,0.41,1.87,-0.02,0.0,-0.0,-37.56,6.5,7.37,0.77,0.01,-0.64,-0.01,503
1587,9.56,0.43,1.88,-0.02,0.01,-0.01,-37.56,6.19,6.87,0.77,0.01,-0.64,-0.01,504
1588,9.56,0.42,1.84,-0.02,0.01,-0.01,-37.56,6.19,6.87,0.77,0.01,-0.64,-0.01,505
1589,9.63,0.38,1.92,-0.01,0.02,0.0,-37.56,6.19,6.87,0.77,0.01,-0.64,-0.01,506
1590,9.62,0.34,1.92,-0.01,0.02,0.0,-37.56,6.19,6.87,0.77,0.01,-0.64,-0.01,507
1591,9.57,0.34,1.93,-0.02,0.02,0.0,-37.19,5.75,8.06,0.77,0.01,-0.64,-0.01,508
1592,9.57,0.36,2.01,-0.02,0.02,-0.0,-37.19,5.75,8.06,0.77,0.01,-0.64,-0.01,509
1593,9.57,0.36,2.01,-0.02,0.01,0.0,-37.19,5.75,8.06,0.77,0.01,-0.64,-0.01,510
1594,9.6,0.35,2.0,-0.02,0.01,-0.0,-37.19,5.75,8.06,0.77,0.01,-0.64,-0.01,511
1595,9.59,0.38,2.01,-0.02,0.01,-0.0,-37.19,5.75,8.06,0.77,0.01,-0.64,-0.01,512
1596,9.59,0.4,1.96,-0.01,0.0,-0.01,-35.69,5.75,7.37,0.77,0.01,-0.64,-0.01,513
1597,9.57,0.39,1.96,-0.01,-0.0,0.0,-35.69,5.75,7.37,0.77,0.01,-0.64,-0.01,514
1598,9.6,0.35,1.92,-0.01,-0.0,-0.0,-35.69,5.75,7.37,0.77,0.01,-0.64,-0.01,515
1599,9.58,0.43,1.84,-0.02,0.0,-0.0,-35.69,5.75,7.37,0.77,0.01,-0.64,-0.01,516
1600,9.6,0.44,1.91,-0.02,0.01,0.0,-36.88,6.19,7.69,0.77,0.01,-0.64,-0.01,517
1601,9.64,0.4,1.88,-0.02,0.01,0.0,-36.88,6.19,7.69,0.77,0.01,-0.64,-0.01,518
1602,9.64,0.4,1.89,-0.03,0.02,0.0,-36.88,6.19,7.69,0.77,0.01,-0.64,-0.01,519
1603,9.58,0.42,1.91,-0.03,0.02,0.0,-36.88,6.19,7.69,0.77,0.01,-0.64,-0.01,520
1604,9.54,0.38,1.88,-0.03,0.02,0.01,-36.88,6.19,7.69,0.77,0.01,-0.64,-0.01,521
1605,9.54,0.39,1.92,-0.03,0.02,0.0,-37.19,5.37,6.5,0.77,0.01,-0.64,-0.01,522
1606,9.54,0.39,1.92,-0.02,0.01,0.0,-37.19,5.37,6.5,0.77,0.01,-0.64,-0.01,523
1607,9.62,0.35,1.95,-0.02,0.0,-0.0,-37.19,5.37,6.5,0.77,0.01,-0.64,-0.01,524
1608,9.6,0.35,1.94,-0.02,-0.01,-0.0,-37.19,5.37,6.5,0.77,0.01,-0.64,-0.01,525
1609,9.6,0.35,1.94,-0.02,-0.02,0.0,-37.19,5.37,6.5,0.77,0.01,-0.64,-0.01,526
1610,9.58,0.35,1.94,-0.02,-0.02,-0.01,-36.5,5.75,6.87,0.77,0.01,-0.64,-0.01,527
1611,9.58,0.35,1.94,-0.02,-0.02,-0.01,-36.5,5.75,6.87,0.77,0.01,-0.64,-0.01,528
1612,9.53,0.25,1.88,-0.02,-0.02,-0.01,-36.5,5.75,6.87,0.77,0.01,-0.64,-0.01,529
1613,9.57,0.3,1.87,-0.03,-0.0,-0.0,-36.5,5.75,6.87,0.77,0.01,-0.64,-0.01,530
1614,9.59,0.34,1.93,-0.03,0.01,-0.0,-36.5,5.75,6.87,0.77,0.01,-0.64,-0.01,531
1615,9.64,0.39,1.96,-0.05,0.02,-0.0,-36.06,5.75,7.0,0.77,0.01,-0.64,-0.01,532
1616,9.6,0.42,1.98,-0.05,0.02,-0.0,-36.06,5.75,7.0,0.77,0.01,-0.64,-0.01,533
1617,9.54,0.39,2.02,-0.04,0.03,0.01,-36.06,5.75,7.0,0.77,0.01,-0.64,-0.01,534
1618,9.54,0.39,2.02,-0.04,0.03,0.01,-36.06,5.75,7.0,0.77,0.01,-0.64,-0.01,535
1619,9.59,0.31,2.03,-0.03,0.03,0.01,-36.06,5.75,7.0,0.77,0.01,-0.64,-0.01,536
1620,9.59,0.31,2.03,-0.03,0.02,0.0,-37.56,5.75,7.37,0.77,0.01,-0.64,-0.01,537
1621,9.61,0.32,2.0,-0.04,0.02,-0.0,-37.56,5.75,7.37,0.77,0.01,-0.64,-0.01,538
1622,9.58,0.35,1.98,-0.04,0.01,-0.01,-37.56,5.75,7.37,0.77,0.01,-0.64,-0.01,539
1623,9.55,0.4,2.02,-0.03,0.01,-0.01,-37.56,5.75,7.37,0.77,0.01,-0.64,-0.01,540
1624,9.55,0.36,1.97,-0.02,0.01,-0.0,-37.56,5.75,7.37,0.77,0.01,-0.64,-0.01,541
1625,9.55,0.39,1.97,-0.02,0.02,0.0,-35.69,6.19,8.06,0.77,0.01,-0.64,-0.01,542
1626,9.57,0.41,2.01,-0.02,0.02,0.0,-35.69,6.19,8.06,0.77,0.01,-0.64,-0.01,543
1627,9.58,0.38,1.99,-0.02,0.02,0.01,-35.69,6.19,8.06,0.77,0.01,-0.64,-0.01,544
1628,9.58,0.33,2.02,-0.01,0.01,0.0,-35.69,6.19,8.06,0.77,0.01,-0.64,-0.01,545
1629,9.59,0.33,2.02,-0.01,0.0,0.0,-35.69,6.19,8.06,0.77,0.01,-0.64,-0.01,546
1630,9.61,0.3,2.01,-0.01,0.0,-0.0,-36.5,6.19,7.37,0.77,0.01,-0.64,-0.01,547
1631,9.58,0.33,2.02,-0.01,0.0,-0.0,-36.5,6.19,7.37,0.77,0.01,-0.64,-0.01,548
1632,9.57,0.34,1.97,-0.01,-0.0,-0.0,-36.5,6.19,7.37,0.77,0.01,-0.64,-0.01,549
1633,9.56,0.34,1.96,-0.01,0.0,-0.0,-36.5,6.19,7.37,0.77,0.01,-0.64,-0.01,550
1634,9.57,0.36,1.99,-0.02,-0.0,-0.0,-36.5,6.19,7.37,0.77,0.01,-0.64,-0.01,551
1635,9.6,0.41,1.96,-0.01,-0.01,-0.01,-36.5,5.37,7.37,0.77,0.01,-0.64,-0.01,552
1636,9.6,0.4,1.93,-0.01,-0.01,-0.01,-36.5,5.37,7.37,0.77,0.01,-0.64,-0.01,553
1637,9.6,0.41,1.94,-0.01,-0.01,-0.01,-36.5,5.37,7.37,0.77,0.01,-0.64,-0.01,554
1638,9.58,0.37,1.93,-0.01,-0.0,-0.0,-36.5,5.37,7.37,0.77,0.01,-0.64,-0.01,555
1639,9.6,0.36,1.89,-0.02,0.0,0.0,-36.5,5.37,7.37,0.77,0.01,-0.64,-0.01,556
1640,9.58,0.34,1.92,-0.02,0.01,0.0,-37.19,5.75,6.19,0.77,0.01,-0.64,-0.01,557
1641,9.58,0.38,1.96,-0.02,0.01,0.0,-37.19,5.75,6.19,0.77,0.01,-0.64,-0.01,558
1642,9.59,0.4,1.92,-0.03,0.01,0.0,-37.19,5.75,6.19,0.77,0.01,-0.64,-0.01,559
1643,9.58,0.38,1.97,-0.02,0.0,0.0,-37.19,5.75,6.19,0.77,0.01,-0.64,-0.01,560
1644,9.58,0.36,1.98,-0.02,-0.0,-0.0,-37.19,5.75,6.19,0.77,0.01,-0.64,-0.01,561
1645,9.59,0.36,1.93,-0.02,-0.0,0.0,-36.88,5.37,5.37,0.77,0.01,-0.64,-0.01,562
1646,9.59,0.37,1.86,-0.01,-0.0,-0.0,-36.88,5.37,5.37,0.77,0.01,-0.64,-0.01,563
1647,9.58,0.34,1.89,-0.01,0.01,0.0,-36.88,5.37,5.37,0.77,0.01,-0.63,-0.01,564
1648,9.57,0.33,1.94,-0.01,0.03,0.01,-36.88,5.37,5.37,0.77,0.01,-0.63,-0.01,565
1649,9.62,0.37,2.05,-0.01,0.03,0.01,-36.88,6.5,7.69,0.77,0.01,-0.63,-0.01,566
1650,9.58,0.3,2.08,-0.01,0.02,0.01,-36.88,6.5,7.69,0.77,0.01,-0.63,-0.01,567
1651,9.57,0.28,2.05,-0.0,0.01,0.0,-36.88,6.5,7.69,0.77,0.01,-0.63,-0.01,568
1652,9.57,0.28,2.05,-0.01,-0.0,0.0,-36.88,6.5,7.69,0.77,0.01,-0.63,-0.01,569
1653,9.58,0.3,1.94,-0.01,-0.01,-0.01,-36.88,6.5,7.69,0.77,0.01,-0.63,-0.01,570
1654,9.58,0.3,1.94,-0.01,-0.01,-0.01,-35.69,5.37,6.87,0.77,0.01,-0.63,-0.01,571
1655,9.6,0.42,1.96,-0.03,0.02,0.0,-35.69,5.37,6.87,0.77,0.01,-0.63,-0.01,572
1656,9.64,0.44,2.02,-0.02,0.02,0.01,-35.69,5.37,6.87,0.77,0.01,-0.63,-0.02,573
1657,9.56,0.35,2.06,-0.0,0.02,0.01,-35.69,5.37,6.87,0.77,0.01,-0.63,-0.02,574
1658,9.54,0.32,2.04,0.0,0.01,0.0,-35.69,5.37,6.87,0.77,0.01,-0.63,-0.02,575
1659,9.55,0.29,2.05,0.01,-0.01,-0.01,-36.5,5.37,7.37,0.77,0.01,-0.63,-0.02,576
1660,9.58,0.28,1.95,0.01,-0.01,-0.01,-36.5,5.37,7.37,0.77,0.01,-0.63,-0.02,577
1661,9.57,0.27,1.86,0.0,-0.02,-0.01,-36.5,5.37,7.37,0.77,0.01,-0.63,-0.02,578
1662,9.55,0.31,1.87,-0.01,0.0,0.0,-36.5,5.37,7.37,0.77,0.01,-0.63,-0.02,579
1663,9.56,0.33,1.91,-0.01,0.01,0.0,-36.5,5.37,7.37,0.77,0.01,-0.63,-0.02,580
1664,9.6,0.37,1.99,0.01,0.01,0.0,-36.88,5.37,6.5,0.77,0.01,-0.63,-0.02,581
1665,9.6,0.36,2.01,0.01,0.01,0.0,-36.88,5.37,6.5,0.77,0.01,-0.63,-0.02,582
1666,9.58,0.32,2.0,0.01,0.0,0.0,-36.88,5.37,6.5,0.77,0.01,-0.63,-0.02,583
1667,9.57,0.31,2.01,0.01,-0.01,-0.0,-36.88,5.37,6.5,0.77,0.01,-0.63,-0.01,584
1668,9.56,0.32,1.96,0.01,-0.01,-0.01,-36.88,5.37,6.5,0.77,0.01,-0.63,-0.01,585
1669,9.57,0.33,1.93,0.0,0.0,-0.0,-36.5,4.69,7.37,0.77,0.01,-0.63,-0.01,586
1670,9.55,0.33,1.87,0.0,0.0,-0.0,-36.5,4.69,7.37,0.77,0.01,-0.63,-0.01,587
1671,9.62,0.39,1.97,0.0,0.0,-0.01,-36.5,4.69,7.37,0.77,0.01,-0.63,-0.01,588
1672,9.61,0.35,1.96,0.01,-0.01,-0.0,-36.5,4.69,7.37,0.77,0.01,-0.63,-0.01,589
1673,9.59,0.33,2.0,0.01,-0.0,0.0,-36.5,4.69,7.37,0.77,0.01,-0.63,-0.01,590
1674,9.52,0.28,1.98,-0.0,0.0,-0.01,-36.88,5.37,6.5,0.77,0.01,-0.63,-0.01,591
1675,9.57,0.3,1.96,-0.0,0.0,-0.01,-36.88,5.37,6.5,0.77,0.01,-0.63,-0.01,592
1676,9.57,0.33,1.96,-0.0,-0.0,-0.01,-36.88,5.37,6.5,0.77,0.01,-0.63,-0.01,593
1677,9.58,0.37,2.01,-0.01,0.0,-0.01,-36.88,5.37,6.5,0.77,0.01,-0.63,-0.01,594
1678,9.56,0.37,2.03,0.0,0.0,-0.01,-36.88,5.37,6.5,0.77,0.01,-0.63,-0.01,595
1679,9.54,0.35,2.0,0.01,0.01,0.0,-37.19,5.75,6.19,0.77,0.01,-0.63,-0.01,596
1680,9.56,0.33,1.99,0.01,0.01,0.0,-37.19,5.75,6.19,0.77,0.01,-0.63,-0.01,597
1681,9.61,0.31,1.98,0.01,0.0,0.0,-37.19,5.75,6.19,0.77,0.01,-0.63,-0.01,598
1682,9.58,0.3,1.94,0.0,0.0,-0.01,-37.19,5.75,6.19,0.77,0.01,-0.63,-0.01,599
1683,9.59,0.36,1.98,0.0,0.0,-0.01,-37.19,5.75,6.19,0.77,0.01,-0.63,-0.01,600
1684,9.6,0.35,1.99,0.01,-0.01,-0.01,-37.19,6.5,6.5,0.77,0.01,-0.63,-0.01,601
1685,9.58,0.37,1.98,0.01,-0.01,-0.01,-37.19,6.5,6.5,0.77,0.01,-0.63,-0.01,602
1686,9.52,0.4,1.95,0.01,0.0,-0.01,-37.19,6.5,6.5,0.77,0.01,-0.63,-0.01,603
1687,9.57,0.41,2.04,0.01,0.01,-0.0,-37.19,6.5,6.5,0.77,0.01,-0.63,-0.01,604
1688,9.6,0.41,2.06,0.01,0.01,0.0,-37.19,6.5,6.5,0.77,0.01,-0.63,-0.01,605
1689,9.56,0.32,2.03,0.01,0.0,0.0,-37.19,6.19,7.69,0.77,0.01,-0.63,-0.01,606
1690,9.52,0.35,2.05,0.01,0.0,0.0,-37.19,6.19,7.69,0.77,0.01,-0.63,-0.01,607
1691,9.5,0.35,2.06,0.01,0.0,-0.0,-37.19,6.19,7.69,0.77,0.01,-0.63,-0.01,608
1692,9.54,0.37,2.05,0.02,-0.0,-0.0,-36.88,6.19,6.5,0.77,0.01,-0.63,-0.01,609
1693,9.61,0.38,2.0,0.02,-0.0,-0.0,-36.88,6.19,6.5,0.77,0.01,-0.63,-0.01,610
1694,9.59,0.4,1.99,0.02,0.0,-0.0,-36.88,6.19,6.5,0.77,0.01,-0.63,-0.01,611
1695,9.57,0.4,1.93,0.02,0.01,-0.01,-36.88,6.19,6.5,0.77,0.01,-0.63,-0.01,612
1696,9.53,0.43,1.77,0.03,0.01,-0.01,-36.88,6.19,6.5,0.77,0.01,-0.63,-0.01,613
1697,9.49,0.4,1.66,0.02,0.02,0.0,-36.88,6.19,6.5,0.77,0.01,-0.63,-0.01,614
1698,9.49,0.37,1.58,-0.0,0.03,0.01,-36.5,5.37,5.75,0.77,0.01,-0.63,-0.01,615
1699,9.52,0.36,1.58,-0.03,0.04,0.0,-36.5,5.37,5.75,0.77,0.01,-0.63,-0.01,616
1700,9.7,0.68,1.78,-0.02,0.05,0.0,-36.5,5.37,5.75,0.77,0.01,-0.63,-0.01,617
1701,9.67,0.56,1.83,0.0,0.06,0.03,-36.5,5.37,5.75,0.77,0.01,-0.63,-0.01,618
1702,9.65,0.44,1.94,0.03,0.06,0.04,-37.19,6.19,7.69,0.77,0.01,-0.63,-0.01,619
1703,9.57,0.28,2.01,0.04,0.07,0.03,-37.19,6.19,7.69,0.77,0.01,-0.63,-0.01,620
1704,9.58,0.27,2.18,0.04,0.08,0.04,-37.19,6.19,7.69,0.77,0.01,-0.63,-0.01,621
1705,9.62,0.23,2.27,0.04,0.08,0.04,-37.19,6.19,7.69,0.77,0.01,-0.63,-0.01,622
1706,9.58,0.14,2.36,0.03,0.05,0.03,-37.19,6.19,7.69,0.77,0.01,-0.63,-0.01,623
1707,9.57,0.19,2.38,0.02,0.03,0.02,-37.19,6.19,6.87,0.77,0.01,-0.63,-0.01,624
1708,9.54,0.22,2.32,0.01,0.01,0.0,-37.19,6.19,6.87,0.77,0.01,-0.63,-0.01,625
1709,9.54,0.22,2.32,-0.0,0.0,-0.01,-37.19,6.19,6.87,0.77,0.01,-0.63,-0.01,626
1710,9.59,0.35,2.22,-0.01,-0.0,-0.0,-37.19,6.19,6.87,0.77,0.01,-0.63,-0.01,627
1711,9.58,0.36,2.19,-0.02,-0.01,-0.0,-37.19,6.19,6.87,0.77,0.01,-0.63,-0.01,628
1712,9.56,0.36,2.22,-0.02,-0.01,-0.0,-36.5,5.75,7.0,0.77,0.01,-0.63,-0.01,629
1713,9.54,0.4,2.18,-0.02,-0.03,-0.01,-36.5,5.75,7.0,0.77,0.01,-0.63,-0.01,630
1714,9.54,0.4,2.18,-0.02,-0.04,-0.0,-36.5,5.75,7.0,0.77,0.01,-0.63,-0.01,631
1715,9.53,0.26,2.05,-0.02,-0.04,-0.0,-36.5,5.75,7.0,0.77,0.01,-0.63,-0.01,632
1716,9.52,0.23,1.99,-0.03,-0.03,-0.0,-36.5,5.75,7.0,0.77,0.01,-0.63,-0.01,633
1717,9.59,0.31,2.05,-0.04,-0.02,-0.01,-36.88,5.75,7.69,0.77,0.01,-0.63,-0.01,634
1718,9.61,0.33,2.05,-0.05,-0.02,-0.0,-36.88,5.75,7.69,0.77,0.01,-0.63,-0.01,635
1719,9.58,0.34,2.05,-0.04,-0.03,-0.0,-36.88,5.75,7.69,0.77,0.01,-0.63,-0.01,636
1720,9.55,0.38,2.05,-0.03,-0.03,-0.01,-36.88,5.75,7.69,0.77,0.01,-0.63,-0.01,637
1721,9.55,0.38,2.05,-0.02,-0.05,-0.01,-36.88,5.75,7.69,0.77,0.01,-0.63,-0.01,638
1722,9.57,0.41,1.91,-0.01,-0.05,-0.02,-36.5,6.19,6.87,0.77,0.01,-0.63,-0.01,639
1723,9.57,0.41,1.91,-0.01,-0.05,-0.02,-36.5,6.19,6.87,0.77,0.01,-0.63,-0.01,640
1724,9.6,0.41,1.7,-0.02,-0.03,-0.01,-36.5,6.19,6.87,0.77,0.01,-0.63,-0.01,641
1725,9.62,0.44,1.69,-0.03,0.0,0.0,-36.5,6.19,6.87,0.77,0.01,-0.63,-0.01,642
1726,9.62,0.44,1.69,-0.04,0.01,0.01,-36.5,6.19,6.87,0.77,0.01,-0.63,-0.01,643
1727,9.63,0.43,1.76,-0.04,0.01,0.01,-37.19,5.37,8.06,0.77,0.01,-0.63,-0.01,644
1728,9.63,0.43,1.76,-0.04,0.01,0.01,-37.19,5.37,8.06,0.77,0.01,-0.63,-0.02,645
1729,9.58,0.33,1.97,-0.03,0.01,0.01,-37.19,5.37,8.06,0.77,0.01,-0.63,-0.02,646
1730,9.57,0.33,1.99,-0.02,0.0,0.01,-37.19,5.37,8.06,0.77,0.01,-0.63,-0.02,647
1731,9.53,0.34,2.01,-0.02,0.01,0.01,-37.19,5.37,8.06,0.77,0.01,-0.63,-0.02,648
1732,9.54,0.31,2.16,-0.02,0.02,0.02,-37.19,5.37,6.87,0.77,0.01,-0.63,-0.02,649
1733,9.54,0.31,2.16,-0.02,0.02,0.02,-37.19,5.37,6.87,0.77,0.01,-0.63,-0.02,650
1734,9.6,0.26,2.15,-0.01,0.02,0.01,-37.19,5.37,6.87,0.77,0.01,-0.63,-0.02,651
1735,9.62,0.26,2.18,-0.01,-0.0,0.0,-37.19,5.37,6.87,0.77,0.01,-0.63,-0.02,652
1736,9.57,0.24,2.11,-0.02,-0.01,0.0,-37.19,5.37,6.87,0.77,0.01,-0.63,-0.02,653
1737,9.57,0.24,2.01,-0.03,-0.02,-0.01,-37.56,5.75,7.37,0.77,0.01,-0.63,-0.02,654
1738,9.57,0.26,1.96,-0.03,-0.02,-0.01,-37.56,5.75,7.37,0.77,0.01,-0.63,-0.02,655
1739,9.58,0.28,1.9,-0.04,-0.01,-0.01,-37.56,5.75,7.37,0.77,0.01,-0.63,-0.02,656
1740,9.59,0.38,1.89,-0.05,-0.0,-0.01,-37.56,5.75,7.37,0.77,0.0,-0.63,-0.02,657
1741,9.58,0.39,1.95,-0.04,-0.0,0.0,-37.56,5.75,7.37,0.77,0.0,-0.63,-0.02,658
1742,9.58,0.36,1.93,-0.03,0.0,0.0,-37.56,5.75,7.69,0.77,0.0,-0.63,-0.02,659
1743,9.56,0.29,1.95,-0.02,-0.01,-0.0,-37.56,5.75,7.69,0.77,0.0,-0.63,-0.02,660
1744,9.56,0.27,1.94,-0.01,-0.01,-0.0,-37.56,5.75,7.69,0.77,0.0,-0.63,-0.02,661
1745,9.57,0.27,1.92,-0.02,0.0,0.0,-37.56,5.75,7.69,0.77,0.0,-0.63,-0.02,662
1746,9.57,0.27,1.92,-0.02,0.02,0.0,-37.56,6.19,8.06,0.77,0.0,-0.63,-0.02,663
1747,9.57,0.31,1.93,-0.02,0.02,0.0,-37.56,6.19,8.06,0.77,0.0,-0.63,-0.02,664
1748,9.59,0.37,1.98,-0.02,0.03,0.01,-37.56,6.19,8.06,0.77,0.0,-0.63,-0.02,665
1749,9.59,0.37,1.98,-0.02,0.03,0.01,-37.56,6.19,8.06,0.77,0.0,-0.63,-0.02,666
1750,9.56,0.38,1.99,-0.01,0.03,0.01,-37.56,6.19,8.06,0.77,0.0,-0.63,-0.02,667
1751,9.58,0.31,1.99,0.01,0.01,0.0,-37.56,6.87,6.56,0.77,0.0,-0.63,-0.02,668
1752,9.57,0.31,2.0,0.01,0.01,0.0,-37.56,6.87,6.56,0.77,0.0,-0.63,-0.02,669
1753,9.55,0.29,1.97,0.01,0.01,0.0,-37.56,6.87,6.56,0.77,0.0,-0.63,-0.02,670
1754,9.58,0.32,1.98,0.01,0.02,0.01,-37.56,6.87,6.56,0.77,0.0,-0.63,-0.02,671
1755,9.58,0.3,2.01,0.0,0.02,0.01,-37.56,6.87,6.56,0.77,0.0,-0.63,-0.02,672
1756,9.57,0.29,2.07,0.0,0.03,0.01,-37.56,6.87,6.56,0.77,0.0,-0.63,-0.02,673
1757,9.59,0.29,2.11,0.0,0.03,0.01,-36.5,6.19,6.19,0.77,0.0,-0.63,-0.02,674
1758,9.59,0.29,2.11,-0.0,0.03,0.01,-36.5,6.19,6.19,0.77,0.0,-0.63,-0.02,675
1759,9.55,0.29,2.2,0.0,0.02,0.0,-36.5,6.19,6.19,0.77,0.0,-0.63,-0.02,676
1760,9.52,0.32,2.27,0.01,0.02,0.0,-36.5,6.19,6.19,0.77,0.0,-0.63,-0.02,677
1761,9.52,0.35,2.26,0.02,0.01,0.0,-36.5,6.19,6.19,0.77,0.0,-0.63,-0.02,678
1762,9.55,0.4,2.24,0.04,0.0,-0.01,-37.19,6.19,7.0,0.77,0.0,-0.63,-0.02,679
1763,9.54,0.32,2.16,0.05,-0.01,-0.0,-37.19,6.19,7.0,0.77,0.01,-0.63,-0.02,680
1764,9.52,0.28,2.11,0.05,-0.0,0.0,-37.19,6.19,7.0,0.77,0.01,-0.63,-0.02,681
1765,9.52,0.28,2.11,0.04,-0.0,0.0,-37.19,6.19,7.0,0.78,0.01,-0.63,-0.02,682
1766,9.55,0.27,2.08,0.03,-0.01,-0.0,-37.19,6.19,7.0,0.77,0.01,-0.63,-0.02,683
1767,9.51,0.22,1.99,0.02,-0.01,-0.0,-36.5,6.19,7.0,0.78,0.01,-0.63,-0.02,684
1768,9.5,0.27,2.04,0.02,-0.01,-0.0,-36.5,6.19,7.0,0.77,0.01,-0.63,-0.02,685
1769,9.57,0.29,2.01,0.03,-0.01,-0.01,-36.5,6.19,7.0,0.77,0.01,-0.63,-0.02,686
1770,9.57,0.27,2.01,0.03,-0.02,-0.01,-36.5,6.19,7.0,0.77,0.01,-0.63,-0.02,687
1771,9.56,0.33,1.96,0.03,-0.02,-0.01,-36.5,6.19,7.0,0.77,0.01,-0.63,-0.02,688
1772,9.55,0.33,1.98,0.03,-0.02,-0.01,-36.5,6.19,7.0,0.77,0.01,-0.63,-0.02,689
1773,9.56,0.36,1.88,0.03,-0.02,-0.01,-36.5,6.19,7.0,0.77,0.01,-0.63,-0.02,690
1774,9.57,0.32,1.82,0.02,0.0,-0.0,-36.5,6.19,7.0,0.77,0.01,-0.63,-0.02,691
1775,9.62,0.33,1.9,0.02,0.0,-0.0,-36.5,6.19,7.0,0.77,0.01,-0.63,-0.02,692
1776,9.64,0.33,1.94,0.01,0.01,0.0,-36.5,6.19,7.0,0.77,0.01,-0.63,-0.02,693
1777,9.54,0.33,1.96,0.01,0.01,0.0,-37.56,6.19,7.0,0.77,0.01,-0.63,-0.02,694
1778,9.54,0.33,1.99,0.01,0.01,-0.0,-37.56,6.19,7.0,0.77,0.01,-0.63,-0.02,695
1779,9.53,0.33,1.97,0.01,0.01,-0.0,-37.56,6.19,7.0,0.77,0.01,-0.63,-0.02,696
1780,9.53,0.31,2.01,0.01,0.02,0.0,-37.56,6.19,7.0,0.77,0.01,-0.63,-0.02,697
1781,9.58,0.32,2.06,0.01,0.02,0.0,-37.56,6.19,7.0,0.77,0.01,-0.63,-0.02,698
1782,9.58,0.3,2.02,0.01,0.02,0.0,-37.56,5.75,7.0,0.77,0.01,-0.63,-0.02,699
1783,9.6,0.3,2.02,0.0,0.02,0.0,-37.56,5.75,7.0,0.77,0.01,-0.63,-0.02,700
1784,9.53,0.32,2.02,0.0,0.02,-0.0,-37.56,5.75,7.0,0.77,0.01,-0.63,-0.02,701
1785,9.53,0.3,2.01,0.01,0.01,0.0,-37.56,5.75,7.0,0.77,0.01,-0.63,-0.02,702
1786,9.54,0.33,2.05,0.01,0.01,-0.01,-37.56,5.75,7.0,0.77,0.01,-0.63,-0.02,703
1787,9.52,0.3,2.0,0.01,0.0,-0.01,-36.5,6.19,7.69,0.77,0.01,-0.63,-0.02,704
1788,9.52,0.34,2.01,0.0,0.0,-0.01,-36.5,6.19,7.69,0.77,0.01,-0.63,-0.02,705
1789,9.59,0.36,2.03,-0.0,0.01,-0.01,-36.5,6.19,7.69,0.78,0.01,-0.63,-0.02,706
1790,9.56,0.42,2.03,0.0,0.01,-0.0,-36.5,6.19,7.69,0.78,0.01,-0.63,-0.02,707
1791,9.54,0.39,2.02,0.01,0.01,0.0,-38.0,5.75,6.19,0.78,0.01,-0.63,-0.02,708
1792,9.57,0.36,2.06,0.01,0.01,0.0,-38.0,5.75,6.19,0.78,0.01,-0.63,-0.02,709
1793,9.6,0.37,2.06,0.01,0.01,-0.0,-38.0,5.75,6.19,0.78,0.01,-0.63,-0.02,710
1794,9.59,0.33,2.04,0.01,0.01,-0.0,-38.0,5.75,6.19,0.78,0.01,-0.63,-0.02,711
1795,9.54,0.35,2.08,0.01,0.01,0.0,-38.0,5.75,6.19,0.78,0.01,-0.63,-0.02,712
1796,9.55,0.35,2.09,0.01,0.01,-0.0,-36.5,5.0,6.19,0.78,0.01,-0.63,-0.02,713
1797,9.57,0.38,2.08,0.01,0.01,-0.0,-36.5,5.0,6.19,0.78,0.01,-0.63,-0.02,714
1798,9.56,0.37,2.08,0.02,0.01,-0.0,-36.5,5.0,6.19,0.78,0.01,-0.63,-0.02,715
1799,9.57,0.38,2.1,0.02,0.0,-0.0,-36.5,5.0,6.19,0.78,0.01,-0.63,-0.02,716
1800,9.62,0.41,2.13,0.02,-0.01,-0.0,-35.38,6.19,5.75,0.78,0.01,-0.63,-0.01,717
1801,9.57,0.36,2.08,0.02,-0.01,0.0,-35.38,6.19,5.75,0.78,0.01,-0.63,-0.01,718
1802,9.57,0.36,2.08,0.02,-0.01,0.0,-35.38,6.19,5.75,0.78,0.01,-0.63,-0.01,719
1803,9.55,0.32,2.0,0.01,-0.0,0.0,-35.38,6.19,5.75,0.78,0.01,-0.63,-0.01,720
1804,9.58,0.33,1.96,0.0,-0.01,-0.0,-35.38,6.19,5.75,0.78,0.01,-0.63,-0.01,721
1805,9.54,0.32,1.96,-0.0,-0.01,0.0,-36.88,5.75,6.19,0.78,0.01,-0.63,-0.01,722
1806,9.55,0.35,1.94,-0.0,-0.01,-0.0,-36.88,5.75,6.19,0.78,0.01,-0.63,-0.01,723
1807,9.55,0.35,1.94,-0.01,-0.01,-0.0,-36.88,5.75,6.19,0.78,0.01,-0.63,-0.01,724
1808,9.59,0.35,1.99,-0.01,-0.01,-0.0,-36.88,5.75,6.19,0.78,0.01,-0.63,-0.01,725
1809,9.61,0.37,2.02,-0.01,0.0,0.0,-36.88,5.75,6.19,0.78,0.01,-0.63,-0.01,726
1810,9.6,0.39,2.09,0.0,0.01,0.0,-36.88,5.75,6.5,0.78,0.01,-0.63,-0.01,727
1811,9.6,0.41,2.11,0.0,0.01,0.0,-36.88,5.75,6.5,0.78,0.01,-0.63,-0.01,728
1812,9.56,0.36,2.08,0.02,-0.01,0.0,-36.88,5.75,6.5,0.78,0.01,-0.63,-0.01,729
1813,9.54,0.33,2.09,0.02,-0.01,0.0,-36.88,5.75,6.5,0.78,0.01,-0.63,-0.01,730
1814,9.54,0.35,2.08,0.02,-0.02,-0.0,-36.88,5.75,6.5,0.78,0.01,-0.63,-0.01,731
1815,9.61,0.37,1.96,0.0,-0.02,0.0,-36.06,5.75,6.56,0.78,0.01,-0.63,-0.01,732
1816,9.59,0.36,1.97,0.0,-0.02,0.0,-36.06,5.75,6.56,0.78,0.01,-0.63,-0.01,733
1817,9.6,0.38,1.96,-0.0,-0.01,0.0,-36.06,5.75,6.56,0.78,0.01,-0.63,-0.01,734
1818,9.56,0.41,1.97,-0.01,-0.01,0.0,-36.06,5.75,6.56,0.78,0.01,-0.63,-0.01,735
1819,9.56,0.38,1.96,-0.01,-0.01,0.01,-36.06,5.75,6.56,0.78,0.01,-0.63,-0.01,736
1820,9.55,0.37,1.93,-0.01,-0.01,0.0,-36.88,5.0,6.5,0.78,0.01,-0.63,-0.01,737
1821,9.56,0.33,1.95,-0.01,-0.01,0.0,-36.88,5.0,6.5,0.78,0.01,-0.63,-0.01,738
1822,9.58,0.31,1.91,-0.01,-0.02,-0.0,-36.88,5.0,6.5,0.78,0.01,-0.63,-0.01,739
1823,9.63,0.37,1.97,-0.01,-0.01,0.0,-36.88,5.0,6.5,0.78,0.01,-0.63,-0.02,740
1824,9.58,0.38,1.98,-0.02,0.0,0.01,-36.88,5.0,6.5,0.78,0.01,-0.63,-0.02,741
1825,9.53,0.37,2.02,-0.02,0.0,0.0,-35.69,5.37,6.19,0.78,0.01,-0.63,-0.02,742
1826,9.54,0.31,2.06,-0.01,0.01,0.01,-35.69,5.37,6.19,0.78,0.01,-0.63,-0.02,743
1827,9.59,0.3,2.04,-0.0,0.01,0.01,-35.69,5.37,6.19,0.78,0.01,-0.63,-0.02,744
1828,9.61,0.32,2.05,-0.0,0.0,0.01,-35.69,5.37,6.19,0.78,0.01,-0.63,-0.02,745
1829,9.57,0.32,2.02,-0.0,-0.01,0.0,-35.69,5.37,6.19,0.78,0.01,-0.63,-0.02,746
1830,9.53,0.36,1.99,-0.01,-0.0,0.0,-36.88,5.75,6.56,0.78,0.01,-0.63,-0.02,747
1831,9.55,0.36,2.0,-0.01,-0.0,0.0,-36.88,5.75,6.56,0.78,0.01,-0.63,-0.02,748
1832,9.6,0.35,2.01,-0.01,0.0,0.0,-36.88,5.75,6.56,0.78,0.01,-0.63,-0.02,749
1833,9.61,0.35,2.0,-0.01,0.0,0.01,-36.88,5.75,6.56,0.78,0.01,-0.63,-0.02,750
1834,9.54,0.32,2.05,-0.01,0.0,0.01,-36.88,5.75,6.56,0.78,0.01,-0.63,-0.02,751
1835,9.56,0.3,2.08,-0.01,0.01,0.01,-38.0,6.19,7.37,0.78,0.01,-0.63,-0.02,752
1836,9.56,0.26,2.07,-0.01,0.01,0.01,-38.0,6.19,7.37,0.78,0.01,-0.63,-0.02,753
1837,9.54,0.27,2.03,-0.01,0.01,0.01,-38.0,6.19,7.37,0.78,0.01,-0.63,-0.02,754
1838,9.54,0.31,2.02,-0.01,0.0,-0.0,-38.0,6.19,7.37,0.78,0.01,-0.63,-0.02,755
1839,9.56,0.32,2.05,-0.02,0.01,0.0,-38.0,6.19,7.37,0.78,0.01,-0.63,-0.02,756
1840,9.56,0.34,2.04,-0.02,0.0,0.0,-37.56,6.19,7.0,0.78,0.01,-0.63,-0.02,757
1841,9.58,0.36,2.06,-0.02,0.01,0.0,-37.56,6.19,7.0,0.78,0.01,-0.63,-0.02,758
1842,9.59,0.35,2.05,-0.02,0.01,0.0,-37.56,6.19,7.0,0.78,0.01,-0.63,-0.02,759
1843,9.57,0.35,2.08,-0.02,0.01,0.01,-37.56,6.19,7.0,0.78,0.01,-0.63,-0.02,760
1844,9.55,0.35,2.06,-0.01,0.0,0.0,-37.56,6.19,7.0,0.78,0.01,-0.63,-0.02,761
1845,9.55,0.29,1.98,-0.0,-0.0,0.0,-37.56,6.19,6.19,0.78,0.01,-0.63,-0.02,762
1846,9.58,0.28,1.97,-0.0,-0.0,0.0,-37.56,6.19,6.19,0.78,0.01,-0.63,-0.02,763
1847,9.6,0.34,2.0,-0.01,0.01,0.0,-37.56,6.19,6.19,0.78,0.01,-0.63,-0.02,764
1848,9.56,0.32,1.99,-0.01,0.01,0.0,-37.56,6.19,6.19,0.78,0.01,-0.63,-0.02,765
1849,9.57,0.32,2.02,-0.01,0.01,0.01,-37.19,6.5,5.37,0.78,0.01,-0.63,-0.02,766
1850,9.6,0.3,2.04,0.0,0.0,0.0,-37.19,6.5,5.37,0.78,0.01,-0.63,-0.02,767
1851,9.53,0.3,2.02,0.0,0.0,0.0,-37.19,6.5,5.37,0.78,0.01,-0.63,-0.02,768
1852,9.55,0.33,2.04,0.0,-0.0,0.0,-37.19,6.5,5.37,0.78,0.01,-0.63,-0.02,769
1853,9.58,0.36,2.03,-0.0,0.01,0.0,-37.19,6.5,5.37,0.78,0.01,-0.63,-0.02,770
1854,9.56,0.37,2.0,-0.0,0.01,-0.0,-36.88,5.37,8.5,0.78,0.01,-0.63,-0.02,771
1855,9.58,0.35,2.06,0.0,0.01,0.0,-36.88,5.37,8.5,0.78,0.01,-0.63,-0.02,772
1856,9.59,0.31,2.01,-0.0,0.02,0.0,-36.88,5.37,8.5,0.78,0.01,-0.63,-0.02,773
1857,9.57,0.29,2.04,0.0,0.01,0.0,-36.88,5.37,8.5,0.78,0.01,-0.63,-0.02,774
1858,9.58,0.3,2.05,-0.0,0.01,0.0,-36.88,5.37,8.5,0.78,0.01,-0.63,-0.02,775
1859,9.58,0.29,2.04,-0.0,0.0,-0.0,-37.19,5.75,6.56,0.78,0.01,-0.63,-0.02,776
1860,9.55,0.29,2.03,0.0,0.0,-0.0,-37.19,5.75,6.56,0.78,0.01,-0.63,-0.02,777
1861,9.55,0.31,2.0,0.0,0.0,-0.0,-37.19,5.75,6.56,0.78,0.01,-0.63,-0.02,778
1862,9.55,0.31,2.0,-0.0,0.02,0.0,-37.19,5.75,6.56,0.78,0.01,-0.63,-0.02,779
1863,9.56,0.31,2.03,-0.01,0.01,0.0,-37.19,5.75,6.56,0.78,0.01,-0.63,-0.02,780
1864,9.55,0.31,2.06,-0.01,0.01,0.0,-37.19,5.37,6.5,0.78,0.01,-0.63,-0.02,781
1865,9.55,0.3,2.04,-0.01,0.01,-0.0,-37.19,5.37,6.5,0.78,0.01,-0.63,-0.02,782
1866,9.56,0.32,2.04,-0.01,0.02,0.0,-37.19,5.37,6.5,0.78,0.01,-0.63,-0.02,783
1867,9.56,0.32,2.04,-0.01,0.01,0.0,-37.19,5.37,6.5,0.78,0.01,-0.63,-0.02,784
1868,9.57,0.33,2.0,-0.0,0.0,-0.0,-37.19,5.37,6.5,0.78,0.01,-0.63,-0.02,785
1869,9.57,0.33,2.0,0.0,0.0,-0.01,-36.88,5.37,8.19,0.78,0.01,-0.63,-0.02,786
1870,9.6,0.36,2.02,0.0,0.0,-0.0,-36.88,5.37,8.19,0.78,0.01,-0.63,-0.02,787
1871,9.62,0.4,2.01,0.0,0.01,0.0,-36.88,5.37,8.19,0.78,0.01,-0.63,-0.02,788
1872,9.62,0.4,2.01,0.0,0.01,0.0,-36.88,5.37,8.19,0.78,0.01,-0.63,-0.02,789
1873,9.56,0.34,2.07,0.01,0.0,-0.0,-36.88,5.37,8.19,0.78,0.01,-0.63,-0.02,790
1874,9.56,0.34,2.07,0.01,-0.0,-0.0,-36.5,5.37,6.19,0.78,0.01,-0.63,-0.02,791
1875,9.58,0.34,1.99,0.01,-0.0,-0.0,-36.5,5.37,6.19,0.78,0.01,-0.63,-0.02,792
1876,9.59,0.32,1.99,0.0,0.0,-0.01,-36.5,5.37,6.19,0.78,0.01,-0.63,-0.02,793
1877,9.59,0.32,1.99,-0.0,0.02,-0.0,-36.5,5.37,6.19,0.78,0.01,-0.63,-0.02,794
1878,9.53,0.39,2.06,-0.01,0.03,0.01,-36.5,5.37,6.19,0.78,0.01,-0.63,-0.02,795
1879,9.53,0.39,2.06,-0.01,0.03,0.01,-36.5,5.37,6.19,0.78,0.01,-0.63,-0.02,796
1880,9.51,0.3,2.09,0.01,0.02,0.0,-37.19,5.37,7.37,0.78,0.01,-0.63,-0.02,797
1881,9.58,0.22,2.09,0.01,0.01,0.0,-37.19,5.37,7.37,0.78,0.01,-0.63,-0.02,798
1882,9.59,0.28,2.09,-0.0,0.01,-0.0,-37.19,5.37,7.37,0.78,0.01,-0.63,-0.02,799
1883,9.53,0.35,2.03,-0.01,0.0,-0.01,-37.19,5.37,7.37,0.78,0.01,-0.63,-0.02,800
1884,9.55,0.36,2.02,-0.02,0.01,-0.01,-36.06,6.19,7.69,0.78,0.01,-0.63,-0.02,801
1885,9.57,0.41,1.98,-0.01,0.02,-0.0,-36.06,6.19,7.69,0.78,0.01,-0.63,-0.02,802
1886,9.58,0.37,2.02,-0.0,0.03,0.0,-36.06,6.19,7.69,0.78,0.01,-0.63,-0.02,803
1887,9.59,0.35,2.05,0.01,0.03,0.0,-36.06,6.19,7.69,0.78,0.01,-0.63,-0.02,804
1888,9.57,0.29,2.1,0.01,0.02,0.0,-36.06,6.19,7.69,0.78,0.01,-0.63,-0.02,805
1889,9.52,0.26,2.08,0.01,0.01,-0.0,-37.56,6.19,5.37,0.78,0.01,-0.63,-0.02,806
1890,9.52,0.27,2.05,0.0,0.02,-0.0,-37.56,6.19,5.37,0.78,0.01,-0.63,-0.02,807
1891,9.54,0.32,2.09,0.0,0.03,-0.0,-37.56,6.19,5.37,0.78,0.01,-0.63,-0.02,808
1892,9.53,0.3,2.08,0.01,0.03,0.0,-37.56,6.19,5.37,0.78,0.01,-0.63,-0.02,809
1893,9.56,0.27,2.12,0.01,0.03,0.0,-36.88,5.37,7.0,0.78,0.01,-0.63,-0.02,810
1894,9.55,0.27,2.14,0.01,0.03,-0.0,-36.88,5.37,7.0,0.78,0.01,-0.63,-0.02,811
1895,9.56,0.25,2.1,0.01,0.02,-0.0,-36.88,5.37,7.0,0.78,0.01,-0.63,-0.02,812
1896,9.56,0.25,2.1,0.01,0.01,-0.01,-36.88,5.37,7.0,0.78,0.01,-0.63,-0.02,813
1897,9.57,0.31,2.06,0.01,0.01,-0.02,-36.88,5.37,7.0,0.78,0.01,-0.63,-0.02,814
1898,9.57,0.31,2.06,0.0,0.0,-0.02,-35.38,5.37,6.56,0.78,0.01,-0.63,-0.02,815
1899,9.54,0.34,2.03,-0.01,0.02,-0.01,-35.38,5.37,6.56,0.78,0.01,-0.63,-0.02,816
1900,9.58,0.34,2.09,-0.0,0.04,-0.0,-35.38,5.37,6.56,0.78,0.01,-0.63,-0.02,817
1901,9.49,0.33,2.13,-0.0,0.04,-0.01,-35.38,5.37,6.56,0.78,0.01,-0.63,-0.02,818
1902,9.5,0.28,2.17,-0.01,0.04,-0.0,-36.88,5.0,7.37,0.78,0.01,-0.63,-0.02,819
1903,9.45,0.29,2.05,-0.0,0.03,-0.01,-36.88,5.0,7.37,0.78,0.01,-0.63,-0.02,820
1904,9.42,0.28,2.0,-0.01,0.02,-0.02,-36.88,5.0,7.37,0.78,0.01,-0.63,-0.02,821
1905,9.47,0.34,2.02,-0.02,0.03,-0.02,-36.88,5.0,7.37,0.78,0.01,-0.63,-0.02,822
1906,9.56,0.37,2.06,-0.02,0.04,-0.01,-36.88,5.0,7.37,0.78,0.01,-0.63,-0.02,823
1907,9.58,0.32,2.06,-0.01,0.05,-0.01,-37.56,5.75,6.19,0.78,0.01,-0.63,-0.02,824
1908,9.58,0.32,2.06,-0.01,0.05,-0.01,-37.56,5.75,6.19,0.78,0.01,-0.63,-0.02,825
1909,9.44,0.34,2.08,-0.02,0.06,-0.01,-37.56,5.75,6.19,0.78,0.01,-0.63,-0.02,826
1910,9.36,0.26,2.04,-0.01,0.05,-0.02,-37.56,5.75,6.19,0.78,0.01,-0.63,-0.02,827
1911,9.36,0.26,2.04,-0.02,0.05,-0.02,-37.56,5.75,6.19,0.78,0.01,-0.63,-0.02,828
1912,9.53,0.16,2.05,-0.03,0.05,-0.02,-35.38,5.0,5.75,0.78,0.01,-0.63,-0.02,829
1913,9.53,0.16,2.05,-0.03,0.05,-0.02,-35.38,5.0,5.75,0.78,0.01,-0.63,-0.02,830
1914,9.65,0.27,2.12,-0.08,0.06,-0.05,-35.38,5.0,5.75,0.78,0.01,-0.63,-0.02,831
1915,9.62,0.29,2.13,-0.09,0.07,-0.04,-35.38,5.0,5.75,0.78,0.01,-0.63,-0.02,832
1916,9.48,0.3,2.17,-0.08,0.07,-0.03,-35.38,5.0,5.75,0.78,0.01,-0.63,-0.02,833
1917,9.5,0.28,2.21,-0.05,0.08,-0.04,-37.56,4.69,6.37,0.78,0.01,-0.63,-0.02,834
1918,9.51,0.24,2.19,-0.02,0.07,-0.05,-37.56,4.69,6.37,0.78,0.01,-0.63,-0.02,835
1919,9.51,0.16,2.13,0.01,0.06,-0.05,-37.56,4.69,6.37,0.78,0.01,-0.63,-0.02,836
1920,9.62,0.12,2.05,0.02,0.04,-0.05,-37.56,4.69,6.37,0.78,0.01,-0.63,-0.02,837
1921,9.58,0.14,1.97,0.02,0.03,-0.08,-37.56,4.69,6.37,0.78,0.01,-0.63,-0.02,838
1922,9.58,0.13,1.83,0.0,0.03,-0.09,-36.88,5.37,6.56,0.78,0.01,-0.62,-0.02,839
1923,9.65,0.13,1.7,-0.01,0.03,-0.1,-36.88,5.37,6.56,0.78,0.01,-0.62,-0.02,840
1924,9.74,0.15,1.7,-0.01,0.06,-0.1,-36.88,5.37,6.56,0.78,0.01,-0.62,-0.02,841
1925,9.75,0.25,1.65,-0.01,0.08,-0.1,-36.88,5.37,6.56,0.78,0.01,-0.62,-0.02,842
1926,9.66,0.31,1.66,0.0,0.09,-0.1,-36.88,5.37,6.56,0.78,0.01,-0.62,-0.02,843
1927,9.51,0.36,1.71,0.04,0.11,-0.11,-36.88,5.37,6.19,0.78,0.01,-0.62,-0.02,844
1928,9.51,0.3,1.73,0.08,0.11,-0.11,-36.88,5.37,6.19,0.78,0.01,-0.62,-0.02,845
1929,9.58,0.26,1.63,0.11,0.12,-0.11,-36.88,5.37,6.19,0.78,0.01,-0.62,-0.02,846
1930,9.66,0.28,1.51,0.13,0.13,-0.13,-36.88,5.37,6.19,0.78,0.01,-0.62,-0.02,847
1931,9.66,0.28,1.51,0.12,0.16,-0.14,-36.88,5.37,6.19,0.78,0.01,-0.62,-0.02,848
1932,9.68,0.36,1.47,0.1,0.2,-0.15,-38.0,4.69,5.25,0.78,0.01,-0.62,-0.02,849
1933,9.68,0.36,1.47,0.08,0.22,-0.15,-38.0,4.69,5.25,0.78,0.01,-0.62,-0.02,850
1934,9.63,0.44,1.44,0.07,0.25,-0.16,-38.0,4.69,5.25,0.78,0.01,-0.62,-0.02,851
1935,9.67,0.49,1.41,0.07,0.26,-0.17,-38.0,4.69,5.25,0.78,0.02,-0.62,-0.02,852
1936,9.71,0.5,1.43,0.06,0.28,-0.17,-38.0,4.69,5.25,0.78,0.02,-0.62,-0.02,853
1937,9.66,0.49,1.41,0.06,0.32,-0.16,-38.38,4.69,5.75,0.78,0.02,-0.62,-0.02,854
1938,9.55,0.48,1.31,0.05,0.34,-0.16,-38.38,4.69,5.75,0.78,0.02,-0.62,-0.02,855
1939,9.59,0.54,1.3,0.04,0.38,-0.16,-38.38,4.69,5.75,0.78,0.02,-0.62,-0.02,856
1940,9.69,0.64,1.29,0.04,0.4,-0.17,-38.38,4.69,5.75,0.78,0.02,-0.62,-0.03,857
1941,9.68,0.71,1.21,0.04,0.41,-0.18,-38.38,4.69,5.75,0.78,0.02,-0.62,-0.03,858
1942,9.66,0.85,1.28,0.04,0.45,-0.18,-38.25,4.37,5.75,0.79,0.02,-0.62,-0.03,859
1943,9.72,0.93,1.29,0.04,0.49,-0.16,-38.25,4.37,5.75,0.79,0.02,-0.62,-0.03,860
1944,9.72,0.93,1.29,0.04,0.51,-0.16,-38.25,4.37,5.75,0.79,0.02,-0.61,-0.03,861
1945,9.81,0.87,1.17,0.04,0.52,-0.13,-38.25,4.37,5.75,0.79,0.02,-0.61,-0.03,862
1946,9.88,0.95,1.14,0.05,0.53,-0.12,-36.75,4.75,4.19,0.79,0.02,-0.61,-0.03,863
1947,9.97,0.98,1.03,0.04,0.56,-0.12,-36.75,4.75,4.19,0.8,0.02,-0.6,-0.03,864
1948,10.24,1.4,0.94,0.02,0.61,-0.11,-36.75,4.75,4.19,0.8,0.02,-0.6,-0.03,865
1949,10.24,1.4,0.94,0.01,0.67,-0.1,-36.75,4.75,4.19,0.8,0.03,-0.6,-0.03,866
1950,10.39,1.7,1.14,0.01,0.75,-0.06,-36.75,4.75,4.19,0.8,0.03,-0.6,-0.03,867
1951,10.39,1.7,1.14,0.01,0.75,-0.06,-37.06,5.06,3.0,0.8,0.03,-0.6,-0.03,868
1952,10.92,1.61,0.74,0.01,0.92,0.05,-37.06,5.06,3.0,0.8,0.03,-0.59,-0.03,869
1953,11.2,1.43,0.45,-0.02,0.99,0.13,-37.06,5.06,3.0,0.81,0.03,-0.59,-0.03,870
1954,11.6,1.34,0.21,-0.08,1.08,0.2,-37.06,5.06,3.0,0.81,0.02,-0.58,-0.03,871
1955,12.11,1.33,0.09,-0.16,1.18,0.22,-37.06,5.06,3.0,0.81,0.02,-0.58,-0.03,872
1956,12.86,1.25,-0.01,-0.25,1.28,0.18,-37.5,4.25,0.56,0.82,0.02,-0.57,-0.03,873
1957,13.04,1.21,0.04,-0.38,1.37,0.16,-37.5,4.25,0.56,0.82,0.02,-0.57,-0.03,874
1958,13.07,1.14,0.13,-0.52,1.45,0.16,-37.5,4.25,0.56,0.83,0.02,-0.56,-0.03,875
1959,13.21,1.22,0.51,-0.66,1.51,0.19,-37.5,4.25,0.56,0.83,0.01,-0.55,-0.03,876
1960,13.08,1.21,0.54,-0.75,1.54,0.2,-37.5,4.25,0.56,0.83,0.01,-0.55,-0.03,877
1961,12.7,1.23,0.71,-0.8,1.55,0.19,-36.19,4.69,-2.56,0.84,0.0,-0.54,-0.03,878
1962,12.05,0.99,1.78,-0.78,1.65,0.24,-36.19,4.69,-2.56,0.84,0.0,-0.54,-0.03,879
1963,12.05,0.99,1.78,-0.69,1.79,0.36,-36.19,4.69,-2.56,0.85,0.0,-0.53,-0.03,880
1964,9.44,-0.46,4.94,-0.57,1.83,0.51,-36.19,4.69,-2.56,0.86,-0.01,-0.52,-0.03,881
1965,9.18,-0.57,5.18,-0.42,1.69,0.61,-36.19,4.69,-2.56,0.86,-0.01,-0.52,-0.03,882
1966,9.13,-0.49,5.43,-0.28,1.47,0.66,-37.19,3.69,-5.06,0.86,-0.01,-0.51,-0.03,883
1967,8.95,-0.78,6.16,-0.17,1.3,0.7,-37.19,3.69,-5.06,0.86,-0.01,-0.5,-0.03,884
1968,8.53,-0.94,6.5,-0.11,1.15,0.77,-37.19,3.69,-5.06,0.87,-0.01,-0.49,-0.02,885
1969,7.87,-0.84,6.72,-0.08,1.01,0.85,-37.19,3.69,-5.06,0.87,-0.01,-0.49,-0.02,886
1970,6.71,-0.14,6.61,-0.09,0.84,0.91,-37.19,3.69,-5.06,0.87,-0.02,-0.49,-0.02,887
1971,6.42,-0.03,6.32,-0.05,0.64,0.91,-37.38,5.06,-7.0,0.87,-0.02,-0.49,-0.01,888
1972,6.42,-0.03,6.32,0.05,0.41,0.89,-37.38,5.06,-7.0,0.87,-0.02,-0.49,-0.01,889
1973,6.39,-0.85,5.86,0.17,0.17,0.85,-37.38,5.06,-7.0,0.87,-0.02,-0.49,-0.0,890
1974,6.4,-1.79,5.17,0.23,-0.09,0.78,-37.38,5.06,-7.0,0.87,-0.02,-0.49,-0.0,891
1975,6.4,-1.79,5.17,0.12,-0.37,0.69,-37.38,5.06,-7.0,0.87,-0.02,-0.49,0.0,892
1976,6.37,-1.81,4.92,-0.13,-0.66,0.59,-37.69,6.56,-9.25,0.87,-0.03,-0.49,0.01,893
1977,6.37,-1.81,4.92,-0.13,-0.66,0.59,-37.69,6.56,-9.25,0.87,-0.03,-0.49,0.01,894
1978,6.43,-1.58,5.03,-0.67,-1.21,0.39,-37.69,6.56,-9.25,0.87,-0.03,-0.5,0.01,895
1979,6.57,-1.2,4.89,-0.9,-1.46,0.29,-37.69,6.56,-9.25,0.86,-0.04,-0.51,0.01,896
1980,6.69,-0.72,4.7,-1.01,-1.72,0.15,-37.69,6.56,-9.25,0.86,-0.04,-0.51,0.0,897
1981,6.76,-0.23,4.45,-0.94,-1.95,-0.02,-37.56,8.0,-7.87,0.85,-0.05,-0.52,0.0,898
1982,6.72,0.29,4.35,-0.7,-2.15,-0.18,-37.56,8.0,-7.87,0.84,-0.05,-0.54,-0.0,899
1983,6.66,0.1,4.27,-0.35,-2.34,-0.33,-37.56,8.0,-7.87,0.84,-0.05,-0.54,-0.0,900
1984,6.67,-0.32,4.12,-0.0,-2.52,-0.46,-37.56,8.0,-7.87,0.83,-0.05,-0.55,-0.0,901
1985,6.9,-1.11,4.1,0.25,-2.68,-0.58,-37.56,8.0,-7.87,0.83,-0.05,-0.56,-0.0,902
1986,6.9,-1.11,4.1,0.36,-2.84,-0.7,-39.06,9.0,-4.25,0.82,-0.04,-0.57,-0.0,903
1987,7.27,-1.01,4.49,0.33,-2.99,-0.83,-39.06,9.0,-4.25,0.8,-0.03,-0.6,-0.01,904
1988,7.46,0.1,3.78,0.08,-3.29,-1.0,-39.06,9.0,-4.25,0.79,-0.03,-0.61,-0.01,905
1989,7.46,0.1,3.78,-0.02,-3.39,-1.03,-39.06,9.0,-4.25,0.78,-0.03,-0.62,-0.02,906
1990,7.8,0.36,3.21,-0.02,-3.45,-1.06,-39.38,6.5,1.06,0.77,-0.03,-0.64,-0.02,907
1991,7.8,0.36,3.21,0.04,-3.51,-1.12,-39.38,6.5,1.06,0.76,-0.02,-0.65,-0.02,908
1992,9.01,0.38,2.79,0.09,-3.5,-1.19,-39.38,6.5,1.06,0.75,-0.02,-0.66,-0.03,909
1993,9.3,0.44,2.66,0.14,-3.45,-1.25,-39.38,6.5,1.06,0.74,-0.02,-0.67,-0.03,910
1994,9.38,0.35,2.36,0.15,-3.37,-1.27,-39.38,6.5,1.06,0.72,-0.01,-0.7,-0.04,911
1995,9.45,0.23,1.92,0.12,-3.25,-1.22,-39.06,4.5,7.69,0.72,-0.01,-0.7,-0.04,912
1996,9.55,0.39,1.95,0.04,-3.13,-1.16,-39.06,4.5,7.69,0.69,-0.0,-0.72,-0.05,913
1997,9.59,0.66,1.65,-0.06,-3.03,-1.14,-39.06,4.5,7.69,0.69,-0.0,-0.72,-0.05,914
1998,9.47,1.02,1.26,-0.13,-2.9,-1.15,-39.06,4.5,7.69,0.68,0.0,-0.73,-0.05,915
1999,8.79,1.97,0.17,-0.18,-2.72,-1.07,-39.06,4.5,7.69,0.67,0.01,-0.74,-0.05,916
2000,7.99,2.52,-0.82,-0.16,-2.21,-0.75,-36.88,2.56,12.25,0.66,0.01,-0.75,-0.06,917
2001,7.68,2.6,-1.3,-0.11,-1.91,-0.58,-36.88,2.56,12.25,0.65,0.01,-0.76,-0.06,918
2002,7.61,2.2,-1.89,-0.06,-1.55,-0.39,-36.88,2.56,12.25,0.64,0.01,-0.77,-0.07,919
2003,7.8,1.81,-2.08,-0.03,-1.18,-0.16,-36.88,2.56,12.25,0.64,0.01,-0.77,-0.07,920
2004,7.93,1.35,-2.05,-0.05,-0.78,0.05,-36.06,0.0,18.19,0.63,0.01,-0.77,-0.07,921
2005,7.93,0.89,-1.91,-0.14,-0.35,0.24,-36.06,0.0,18.19,0.63,0.01,-0.77,-0.07,922
2006,7.49,0.23,-1.09,-0.49,0.59,0.56,-36.06,0.0,18.19,0.64,0.0,-0.77,-0.07,923
2007,7.19,0.0,-0.76,-0.49,0.59,0.56,-36.06,0.0,18.19,0.64,0.0,-0.77,-0.07,924
2008,6.96,-0.42,0.03,-0.73,1.16,0.75,-36.06,0.0,18.19,0.64,-0.0,-0.76,-0.07,925
2009,7.89,-0.35,2.31,-0.92,1.74,0.94,-35.0,-0.69,17.0,0.65,-0.01,-0.76,-0.07,926
2010,10.1,0.34,2.44,-0.97,2.06,0.97,-35.0,-0.69,17.0,0.66,-0.01,-0.75,-0.07,927
2011,14.45,2.25,-0.24,-0.94,1.52,0.7,-35.0,-0.69,17.0,0.66,-0.02,-0.74,-0.07,928
2012,19.62,5.99,-3.15,-1.13,0.22,0.06,-35.0,-0.69,17.0,0.66,-0.02,-0.74,-0.07,929
2013,21.91,8.09,-2.69,-1.29,-0.2,-0.88,-35.0,-0.69,17.0,0.66,-0.02,-0.74,-0.08,930
2014,16.09,4.84,-1.6,-1.25,0.45,-1.09,-35.25,0.25,14.25,0.66,-0.02,-0.74,-0.09,931
2015,11.4,3.78,0.72,-1.53,1.57,0.57,-35.25,0.25,14.25,0.67,-0.03,-0.74,-0.09,932
2016,8.39,4.06,1.36,-1.75,2.07,1.98,-35.25,0.25,14.25,0.68,-0.05,-0.72,-0.09,933
2017,5.91,4.52,4.37,-1.32,1.87,1.73,-35.25,0.25,14.25,0.68,-0.05,-0.72,-0.09,934
2018,5.91,4.52,4.37,-0.4,1.51,1.0,-35.25,0.25,14.25,0.69,-0.06,-0.72,-0.09,935
2019,6.41,1.97,5.08,0.41,1.17,0.71,-36.88,-1.75,14.25,0.69,-0.06,-0.71,-0.09,936
2020,6.41,1.97,5.08,1.0,0.98,0.94,-36.88,-1.75,14.25,0.7,-0.06,-0.71,-0.08,937
2021,10.95,-3.08,3.76,1.29,0.87,1.15,-36.88,-1.75,14.25,0.7,-0.05,-0.71,-0.07,938
2022,11.16,-3.62,3.89,1.44,0.82,0.97,-36.88,-1.75,14.25,0.7,-0.05,-0.7,-0.06,939
2023,10.29,-4.01,4.38,1.52,0.82,0.63,-36.88,-1.75,14.25,0.71,-0.05,-0.7,-0.05,940
2024,8.53,-3.81,4.06,1.37,0.8,0.46,-37.5,1.0,12.25,0.71,-0.05,-0.7,-0.05,941
2025,8.93,-3.02,3.16,0.93,0.72,0.52,-37.5,1.0,12.25,0.72,-0.04,-0.69,-0.04,942
2026,9.9,-2.04,2.28,0.46,0.62,0.52,-37.5,1.0,12.25,0.72,-0.04,-0.69,-0.04,943
2027,10.6,-1.11,1.85,0.18,0.56,0.36,-37.5,1.0,12.25,0.72,-0.04,-0.69,-0.04,944
2028,9.99,0.05,1.6,0.04,0.56,0.22,-37.5,1.0,12.25,0.72,-0.05,-0.69,-0.04,945
2029,9.52,0.23,1.58,-0.02,0.58,0.26,-38.19,3.25,9.88,0.72,-0.05,-0.69,-0.04,946
2030,9.46,0.2,1.44,0.0,0.56,0.36,-38.19,3.25,9.88,0.73,-0.05,-0.68,-0.04,947
2031,10.03,0.01,0.73,0.16,0.52,0.41,-38.19,3.25,9.88,0.73,-0.05,-0.68,-0.04,948
2032,10.03,0.01,0.73,0.42,0.5,0.39,-38.19,3.25,9.88,0.73,-0.05,-0.68,-0.03,949
2033,9.73,-1.16,0.6,0.71,0.52,0.37,-38.19,3.25,9.88,0.73,-0.05,-0.68,-0.03,950
2034,9.73,-1.16,0.6,0.87,0.52,0.38,-38.5,3.75,8.25,0.73,-0.04,-0.68,-0.03,951
2035,9.85,-2.07,0.35,0.87,0.48,0.35,-38.5,3.75,8.25,0.74,-0.04,-0.68,-0.02,952
2036,10.12,-1.9,0.07,0.75,0.44,0.29,-38.5,3.75,8.25,0.74,-0.04,-0.68,-0.02,953
2037,10.12,-1.9,0.07,0.56,0.43,0.25,-38.5,3.75,8.25,0.74,-0.04,-0.67,-0.02,954
2038,10.33,-0.93,-0.18,0.4,0.46,0.22,-38.5,3.75,8.25,0.74,-0.04,-0.67,-0.01,955
2039,10.33,-0.93,-0.18,0.4,0.46,0.22,-38.5,3.75,8.25,0.74,-0.04,-0.67,-0.01,956
2040,9.62,0.58,-0.39,0.3,0.55,0.19,-38.75,5.06,7.75,0.74,-0.04,-0.67,-0.01,957
2041,9.63,0.66,-0.56,0.38,0.57,0.22,-38.75,5.06,7.75,0.74,-0.04,-0.67,-0.01,958
2042,9.92,0.24,-0.59,0.49,0.59,0.27,-38.75,5.06,7.75,0.75,-0.04,-0.66,-0.0,959
2043,10.0,-0.26,-0.4,0.6,0.62,0.31,-38.75,5.06,7.75,0.75,-0.04,-0.66,-0.0,960
2044,9.91,-1.25,0.13,0.52,0.76,0.35,-38.88,6.06,6.69,0.76,-0.03,-0.65,0.01,961
2045,9.32,-1.56,0.88,0.52,0.76,0.35,-38.88,6.06,6.69,0.76,-0.03,-0.65,0.01,962
2046,9.14,-1.62,1.28,0.39,0.81,0.34,-38.88,6.06,6.69,0.76,-0.03,-0.65,0.01,963
2047,9.15,-1.76,1.51,0.16,0.79,0.29,-38.88,6.87,4.25,0.76,-0.03,-0.65,0.01,964
2048,9.23,-2.03,1.8,0.16,0.79,0.29,-38.88,6.87,4.25,0.76,-0.03,-0.65,0.01,965
2049,9.39,-2.44,2.18,-0.14,0.74,0.24,-38.88,6.87,4.25,0.77,-0.03,-0.64,0.01,966
2050,9.37,-2.28,2.24,-0.14,0.74,0.24,-38.88,6.87,4.25,0.77,-0.03,-0.64,0.01,967
2051,9.35,-1.97,2.34,-0.29,0.72,0.2,-38.88,6.87,4.25,0.77,-0.04,-0.64,0.01,968
2052,9.33,-1.51,2.3,-0.41,0.71,0.15,-38.88,6.87,4.25,0.77,-0.04,-0.63,0.01,969
2053,9.39,-0.55,2.14,-0.49,0.7,0.12,-39.06,6.19,3.56,0.77,-0.04,-0.63,0.01,970
2054,9.41,-0.19,2.14,-0.51,0.72,0.12,-39.06,6.19,3.56,0.78,-0.04,-0.63,0.01,971
2055,9.45,0.01,2.16,-0.47,0.73,0.13,-39.06,6.19,3.56,0.78,-0.04,-0.63,0.01,972
2056,9.44,0.09,1.93,-0.39,0.73,0.14,-39.06,6.19,3.56,0.78,-0.05,-0.62,0.01,973
2057,9.45,-0.34,1.87,-0.31,0.72,0.15,-39.06,6.19,3.56,0.78,-0.05,-0.62,0.01,974
2058,9.52,-0.84,1.81,-0.26,0.72,0.2,-38.0,7.37,2.5,0.78,-0.05,-0.62,0.01,975
2059,9.54,-1.36,1.48,-0.28,0.71,0.23,-38.0,7.37,2.5,0.79,-0.05,-0.61,0.01,976
2060,9.63,-2.46,1.31,-0.36,0.73,0.23,-38.0,7.37,2.5,0.79,-0.05,-0.61,0.01,977
2061,9.63,-2.46,1.31,-0.49,0.73,0.22,-38.0,7.37,2.5,0.79,-0.06,-0.61,0.01,978
2062,9.56,-3.46,1.2,-0.67,0.69,0.2,-38.0,7.37,2.5,0.79,-0.06,-0.61,0.0,979
2063,9.56,-3.46,1.2,-0.67,0.69,0.2,-39.06,7.5,-0.19,0.79,-0.06,-0.6,0.0,980
2064,9.15,-1.25,2.07,-1.09,0.78,0.14,-39.06,7.5,-0.19,0.8,-0.07,-0.6,-0.0,981
2065,9.16,0.65,2.68,-1.17,0.87,0.1,-39.06,7.5,-0.19,0.8,-0.07,-0.6,-0.0,982
2066,9.24,2.41,2.98,-0.97,0.97,0.06,-39.06,7.5,-0.19,0.8,-0.08,-0.59,-0.01,983
2067,9.41,3.73,3.14,-0.5,1.05,0.07,-39.06,7.5,-0.19,0.8,-0.08,-0.59,-0.01,984
2068,9.62,2.8,3.21,0.08,1.13,0.2,-40.25,8.38,-1.37,0.81,-0.08,-0.58,-0.01,985
2069,9.75,1.05,3.11,0.57,1.14,0.33,-40.25,8.38,-1.37,0.81,-0.08,-0.58,-0.01,986
2070,9.78,-0.6,2.97,0.77,1.16,0.43,-40.25,8.38,-1.37,0.81,-0.08,-0.58,-0.0,987
2071,9.64,-2.05,2.53,0.67,1.18,0.42,-40.25,8.38,-1.37,0.82,-0.07,-0.57,0.0,988
2072,9.53,-1.85,2.24,0.44,1.23,0.32,-40.25,8.38,-1.37,0.82,-0.07,-0.57,0.0,989
2073,9.52,-1.33,1.95,0.22,1.26,0.24,-40.38,9.69,-2.87,0.83,-0.07,-0.56,0.01,990
2074,9.63,-0.95,1.61,0.14,1.28,0.21,-40.38,9.69,-2.87,0.83,-0.07,-0.56,0.01,991
2075,9.63,-0.95,1.61,0.19,1.31,0.24,-40.38,9.69,-2.87,0.83,-0.07,-0.55,0.01,992
2076,9.82,-0.63,1.17,0.29,1.34,0.27,-40.38,9.69,-2.87,0.84,-0.07,-0.54,0.01,993
2077,9.75,-0.79,1.59,0.4,1.43,0.29,-40.38,9.69,-2.87,0.84,-0.07,-0.54,0.01,994
2078,9.81,-0.99,1.32,0.47,1.5,0.32,-40.75,8.75,-5.19,0.84,-0.07,-0.53,0.01,995
2079,9.78,-0.98,2.03,0.46,1.65,0.36,-40.75,8.75,-5.19,0.85,-0.07,-0.53,0.01,996
2080,9.83,-1.24,2.5,0.59,1.91,0.37,-40.75,8.75,-5.19,0.86,-0.07,-0.51,0.02,997
2081,10.04,-0.75,2.68,0.59,1.91,0.37,-40.75,8.75,-5.19,0.86,-0.07,-0.51,0.02,998
2082,10.33,0.03,2.82,0.54,1.96,0.33,-40.75,8.75,-5.19,0.86,-0.07,-0.5,0.02,999
2083,10.47,0.49,2.65,0.52,1.98,0.32,-38.75,10.56,-9.75,0.87,-0.06,-0.49,0.02,1000
2084,10.63,0.93,2.3,0.51,2.0,0.34,-38.75,10.56,-9.75,0.87,-0.06,-0.49,0.02,1001
2085,10.84,1.22,1.75,0.51,2.03,0.32,-38.75,10.56,-9.75,0.88,-0.06,-0.47,0.03,1002
2086,11.78,0.39,0.47,0.54,2.06,0.32,-38.75,10.56,-9.75,0.88,-0.06,-0.47,0.03,1003
2087,11.78,0.39,0.47,0.6,2.11,0.36,-38.75,10.56,-9.75,0.89,-0.06,-0.46,0.03,1004
2088,15.45,1.22,-1.17,0.31,2.38,0.2,-39.06,10.88,-13.69,0.9,-0.06,-0.43,0.03,1005
2089,15.99,3.69,-1.33,-0.01,2.56,0.13,-39.06,10.88,-13.69,0.9,-0.06,-0.43,0.03,1006
2090,15.94,4.29,-2.66,-0.38,2.85,0.81,-39.06,10.88,-13.69,0.91,-0.06,-0.4,0.04,1007
2091,16.43,3.98,-4.43,-0.38,2.85,0.81,-39.06,10.88,-13.69,0.91,-0.06,-0.4,0.04,1008
2092,16.86,0.2,-4.01,0.3,2.91,1.11,-37.38,11.75,-17.25,0.92,-0.07,-0.38,0.04,1009
2093,16.06,-2.18,-1.57,0.3,2.91,1.11,-37.38,11.75,-17.25,0.92,-0.07,-0.38,0.04,1010
2094,15.18,-3.52,1.76,0.53,3.16,1.0,-37.38,11.75,-17.25,0.93,-0.07,-0.36,0.05,1011
2095,14.46,-4.21,4.64,0.62,3.39,0.97,-37.38,11.75,-17.25,0.94,-0.07,-0.33,0.06,1012
2096,12.69,-5.21,10.92,0.61,3.35,0.89,-37.38,11.75,-17.25,0.94,-0.07,-0.33,0.06,1013
2097,11.84,-5.13,11.47,0.57,3.06,0.77,-33.5,14.06,-22.25,0.95,-0.07,-0.3,0.06,1014
2098,10.76,-4.5,11.86,0.44,2.58,0.59,-33.5,14.06,-22.25,0.95,-0.07,-0.3,0.06,1015
2099,9.5,-3.51,12.13,0.42,2.09,0.41,-33.5,14.06,-22.25,0.95,-0.07,-0.29,0.06,1016
2100,5.6,-3.15,12.04,0.34,1.21,0.19,-33.5,14.06,-22.25,0.96,-0.06,-0.28,0.07,1017
2101,4.96,-3.13,11.46,0.42,0.81,0.26,-30.37,15.38,-28.5,0.96,-0.06,-0.28,0.07,1018
2102,3.49,-3.03,11.78,0.35,0.56,0.23,-30.37,15.38,-28.5,0.96,-0.06,-0.27,0.07,1019
2103,3.03,-3.0,10.69,0.42,0.18,0.1,-30.37,15.38,-28.5,0.96,-0.06,-0.27,0.07,1020
2104,3.1,-2.68,9.74,0.44,-0.29,0.1,-30.37,15.38,-28.5,0.96,-0.06,-0.27,0.07,1021
2105,3.72,-2.77,8.75,0.38,-0.79,0.09,-30.37,15.38,-28.5,0.96,-0.06,-0.28,0.07,1022
2106,5.01,-3.31,8.39,0.19,-1.25,0.03,-29.56,14.38,-28.19,0.95,-0.06,-0.28,0.07,1023
2107,4.95,-3.63,9.11,-0.13,-1.67,-0.06,-29.56,14.38,-28.19,0.95,-0.06,-0.3,0.07,1024
2108,4.54,-4.02,9.35,-0.51,-2.08,-0.16,-29.56,14.38,-28.19,0.95,-0.06,-0.3,0.07,1025
2109,4.54,-4.02,9.35,-1.04,-2.48,-0.27,-29.56,14.38,-28.19,0.95,-0.06,-0.31,0.07,1026
2110,2.88,-3.24,9.24,-1.59,-2.85,-0.38,-29.56,14.38,-28.19,0.94,-0.07,-0.33,0.07,1027
2111,2.88,-3.24,9.24,-1.59,-2.85,-0.38,-32.5,14.0,-27.0,0.94,-0.07,-0.34,0.06,1028
2112,2.83,-1.64,8.58,-2.13,-3.5,-0.7,-32.5,14.0,-27.0,0.93,-0.08,-0.36,0.06,1029
2113,2.87,-0.93,8.46,-1.9,-3.77,-0.9,-32.5,14.0,-27.0,0.92,-0.09,-0.38,0.05,1030
2114,2.77,0.26,8.62,-1.35,-4.0,-1.06,-32.5,14.0,-27.0,0.91,-0.09,-0.41,0.04,1031
2115,2.62,0.48,8.68,-0.63,-4.2,-1.18,-32.5,14.0,-27.0,0.91,-0.09,-0.41,0.04,1032
2116,2.59,0.43,8.37,0.17,-4.38,-1.23,-35.25,13.88,-19.69,0.89,-0.08,-0.45,0.04,1033
2117,2.71,-0.49,7.67,0.86,-4.57,-1.23,-35.25,13.88,-19.69,0.89,-0.08,-0.45,0.04,1034
2118,2.93,-1.37,7.72,1.39,-4.72,-1.22,-35.25,13.88,-19.69,0.88,-0.07,-0.47,0.04,1035
2119,3.42,-2.37,7.52,1.71,-4.87,-1.16,-35.25,13.88,-19.69,0.86,-0.05,-0.51,0.04,1036
2120,4.01,-3.14,7.66,1.71,-5.0,-1.07,-35.25,13.88,-19.69,0.86,-0.05,-0.51,0.04,1037
2121,5.11,-3.44,6.93,1.46,-5.11,-1.01,-40.0,10.88,-11.88,0.83,-0.03,-0.56,0.04,1038
2122,5.44,-3.3,6.61,1.05,-5.19,-1.03,-40.0,10.88,-11.88,0.83,-0.03,-0.56,0.04,1039
2123,5.44,-3.3,6.61,0.62,-5.23,-1.09,-40.0,10.88,-11.88,0.82,-0.02,-0.58,0.04,1040
2124,5.82,-2.58,6.54,0.21,-5.25,-1.14,-40.0,10.88,-11.88,0.79,-0.02,-0.62,0.03,1041
2125,6.34,-1.86,6.92,-0.12,-5.23,-1.14,-40.0,10.88,-11.88,0.79,-0.02,-0.62,0.03,1042
2126,6.56,-1.25,6.68,-0.35,-5.2,-1.1,-40.69,7.25,-2.5,0.75,-0.01,-0.66,0.02,1043
2127,6.53,-0.57,6.5,-0.45,-5.12,-1.08,-40.69,7.25,-2.5,0.75,-0.01,-0.66,0.02,1044
2128,6.47,0.48,5.44,-0.23,-4.9,-1.12,-40.69,7.25,-2.5,0.72,-0.01,-0.69,0.01,1045
2129,6.7,0.85,5.05,-0.23,-4.9,-1.12,-40.69,7.25,-2.5,0.72,-0.01,-0.69,0.01,1046
2130,7.05,0.95,4.84,0.05,-4.76,-1.09,-40.69,7.25,-2.5,0.71,-0.0,-0.71,0.0,1047
2131,7.48,0.89,4.6,0.38,-4.6,-0.99,-43.25,6.56,7.19,0.69,0.0,-0.72,0.0,1048
2132,8.18,0.38,3.5,0.65,-4.41,-0.8,-43.25,6.56,7.19,0.67,0.01,-0.74,0.0,1049
2133,8.36,0.17,2.61,0.82,-4.17,-0.56,-43.25,6.56,7.19,0.64,0.02,-0.76,0.0,1050
2134,8.3,-0.23,2.29,0.92,-3.84,-0.36,-43.25,6.56,7.19,0.64,0.02,-0.76,0.0,1051
2135,8.3,-0.23,2.29,0.97,-3.45,-0.24,-43.25,6.56,7.19,0.63,0.02,-0.77,0.01,1052
2136,8.18,-1.87,1.32,0.9,-3.06,-0.19,-41.37,3.87,16.25,0.62,0.03,-0.78,0.01,1053
2137,8.18,-1.87,1.32,0.7,-2.63,-0.21,-41.37,3.87,16.25,0.61,0.03,-0.79,0.01,1054
2138,7.55,-1.81,-0.61,0.35,-2.16,-0.3,-41.37,3.87,16.25,0.6,0.03,-0.8,0.01,1055
2139,7.1,-0.92,-1.71,-0.11,-1.61,-0.41,-41.37,3.87,16.25,0.6,0.03,-0.8,0.01,1056
2140,7.28,-0.38,-1.88,-0.63,-1.0,-0.43,-37.69,4.56,21.87,0.59,0.03,-0.81,0.0,1057
2141,7.45,0.15,-1.31,-1.12,-0.38,-0.33,-37.69,4.56,21.87,0.59,0.03,-0.81,0.0,1058
2142,7.3,0.35,-0.2,-1.82,0.79,0.0,-37.69,4.56,21.87,0.59,0.02,-0.8,-0.01,1059
2143,6.04,-0.87,2.98,-2.05,1.26,0.3,-37.69,4.56,21.87,0.61,0.01,-0.79,-0.03,1060
2144,6.14,-1.13,3.98,-2.23,1.66,0.56,-37.69,4.56,21.87,0.61,0.01,-0.79,-0.03,1061
2145,7.3,-1.03,4.21,-2.29,1.85,0.69,-37.69,2.56,22.5,0.62,-0.01,-0.78,-0.04,1062
2146,22.27,3.9,-4.64,-2.3,1.24,0.56,-37.69,2.56,22.5,0.62,-0.01,-0.78,-0.04,1063
2147,22.27,3.9,-4.64,-2.57,-0.4,-0.21,-37.69,2.56,22.5,0.62,-0.02,-0.79,-0.05,1064
2148,28.62,10.96,-3.85,-2.79,-0.77,-1.71,-37.69,2.56,22.5,0.61,-0.02,-0.79,-0.08,1065
2149,11.05,5.58,-0.84,-2.36,0.36,-1.82,-37.69,2.56,22.5,0.61,-0.02,-0.79,-0.08,1066
2150,11.67,9.67,-1.74,-2.48,1.88,0.78,-39.75,2.0,20.06,0.62,-0.03,-0.78,-0.09,1067
2151,10.22,10.91,-3.78,-2.86,2.39,2.5,-39.75,2.0,20.06,0.63,-0.05,-0.77,-0.09,1068
2152,8.08,7.26,-1.5,-1.82,2.99,2.49,-39.75,2.0,20.06,0.66,-0.07,-0.75,-0.09,1069
2153,6.87,-1.56,7.99,-0.04,3.72,1.87,-39.75,2.0,20.06,0.66,-0.07,-0.75,-0.09,1070
2154,5.95,-5.21,5.41,1.03,3.08,1.32,-39.75,2.0,20.06,0.67,-0.07,-0.74,-0.08,1071
2155,6.84,-5.92,4.09,0.92,2.12,1.65,-40.19,0.0,18.75,0.68,-0.07,-0.73,-0.07,1072
2156,8.75,-5.67,3.12,0.54,1.79,1.69,-40.19,0.0,18.75,0.68,-0.07,-0.72,-0.07,1073
2157,9.93,-6.25,1.97,0.45,1.46,0.9,-40.19,0.0,18.75,0.69,-0.07,-0.71,-0.06,1074
2158,9.29,-6.25,3.75,0.49,1.53,0.29,-40.19,0.0,18.75,0.69,-0.07,-0.71,-0.06,1075
2159,9.29,-6.25,3.75,0.23,1.43,0.27,-40.19,0.0,18.75,0.7,-0.07,-0.71,-0.06,1076
2160,8.27,-3.56,4.41,-0.15,1.26,0.48,-42.75,3.75,13.5,0.7,-0.07,-0.7,-0.06,1077
2161,8.27,-3.56,4.41,-0.38,1.06,0.43,-42.75,3.75,13.5,0.71,-0.08,-0.7,-0.06,1078
2162,11.12,-0.49,3.46,-0.44,0.92,0.27,-42.75,3.75,13.5,0.71,-0.08,-0.7,-0.06,1079
2163,11.01,-0.13,3.39,-0.46,0.9,0.18,-42.75,3.75,13.5,0.71,-0.08,-0.69,-0.06,1080
2164,9.31,-0.11,3.07,-0.54,0.91,0.2,-42.75,3.75,13.5,0.72,-0.09,-0.69,-0.06,1081
2165,8.74,-0.19,2.75,-0.6,0.87,0.28,-43.5,4.37,9.88,0.72,-0.09,-0.69,-0.06,1082
2166,8.81,-0.27,2.42,-0.55,0.77,0.32,-43.5,4.37,9.88,0.72,-0.09,-0.68,-0.06,1083
2167,9.33,-0.21,2.13,-0.4,0.68,0.32,-43.5,4.37,9.88,0.72,-0.09,-0.68,-0.06,1084
2168,9.87,-0.46,1.45,-0.21,0.61,0.31,-43.5,4.37,9.88,0.73,-0.09,-0.68,-0.06,1085
2169,9.57,-0.87,1.15,-0.04,0.56,0.31,-43.5,4.37,9.88,0.73,-0.09,-0.68,-0.06,1086
2170,9.26,-1.37,0.77,0.08,0.53,0.33,-45.38,5.19,10.25,0.73,-0.09,-0.67,-0.06,1087
2171,9.2,-1.79,0.51,0.12,0.47,0.32,-45.38,5.19,10.25,0.73,-0.09,-0.67,-0.06,1088
2172,9.74,-1.66,0.03,0.06,0.42,0.28,-45.38,5.19,10.25,0.73,-0.09,-0.67,-0.06,1089
2173,9.74,-1.66,0.03,-0.06,0.38,0.21,-45.38,5.19,10.25,0.73,-0.1,-0.67,-0.06,1090
2174,10.01,-0.26,-0.88,-0.16,0.37,0.17,-45.38,5.19,10.25,0.74,-0.1,-0.67,-0.06,1091
2175,10.01,-0.26,-0.88,-0.18,0.39,0.17,-44.19,5.69,7.87,0.74,-0.1,-0.67,-0.06,1092
2176,9.6,0.98,-2.18,-0.1,0.49,0.23,-44.19,5.69,7.87,0.74,-0.1,-0.66,-0.06,1093
2177,9.67,0.58,-2.18,0.02,0.65,0.34,-44.19,5.69,7.87,0.74,-0.1,-0.66,-0.06,1094
2178,9.79,-0.02,-1.85,0.11,0.83,0.47,-44.19,5.69,7.87,0.75,-0.1,-0.66,-0.05,1095
2179,9.66,-1.49,-0.47,0.16,1.0,0.56,-44.19,5.69,7.87,0.75,-0.1,-0.66,-0.05,1096
2180,9.4,-1.99,0.28,0.15,1.13,0.58,-44.88,6.25,5.06,0.75,-0.1,-0.65,-0.05,1097
2181,9.2,-2.16,1.1,0.08,1.22,0.55,-44.88,6.25,5.06,0.75,-0.1,-0.65,-0.05,1098
2182,9.1,-1.96,1.86,-0.02,1.26,0.47,-44.88,6.25,5.06,0.76,-0.1,-0.64,-0.05,1099
2183,8.96,-1.11,3.04,-0.1,1.27,0.4,-44.88,6.25,5.06,0.77,-0.11,-0.63,-0.05,1100
2184,8.97,-0.56,3.43,-0.13,1.26,0.36,-44.88,6.25,5.06,0.77,-0.11,-0.63,-0.05,1101
2185,8.95,-0.15,3.75,-0.11,1.24,0.36,-45.0,6.37,4.69,0.77,-0.11,-0.62,-0.05,1102
2186,9.28,-0.27,3.89,0.09,1.15,0.42,-45.0,6.37,4.69,0.78,-0.11,-0.62,-0.05,1103
2187,9.28,-0.27,3.89,0.22,1.11,0.43,-45.0,6.37,4.69,0.78,-0.11,-0.61,-0.05,1104
2188,9.53,-0.88,3.51,0.29,1.09,0.43,-45.0,6.37,4.69,0.78,-0.11,-0.61,-0.04,1105
2189,9.53,-0.88,3.51,0.29,1.09,0.43,-45.0,6.37,4.69,0.79,-0.11,-0.6,-0.04,1106
2190,9.39,-1.41,2.64,0.35,1.08,0.43,-45.75,8.5,1.56,0.79,-0.11,-0.6,-0.04,1107
2191,9.38,-1.41,2.44,0.39,1.09,0.42,-45.75,8.5,1.56,0.79,-0.11,-0.6,-0.04,1108
2192,9.41,-1.36,2.37,0.42,1.11,0.4,-45.75,8.5,1.56,0.8,-0.11,-0.59,-0.03,1109
2193,9.43,-1.23,2.01,0.46,1.14,0.4,-45.75,8.5,1.56,0.8,-0.11,-0.59,-0.03,1110
2194,9.57,-1.19,1.69,0.51,1.18,0.42,-44.25,8.75,-1.19,0.81,-0.11,-0.58,-0.03,1111
2195,9.75,-1.11,1.42,0.55,1.23,0.42,-44.25,8.75,-1.19,0.81,-0.11,-0.58,-0.03,1112
2196,9.75,-1.11,1.42,0.6,1.28,0.41,-44.25,8.75,-1.19,0.81,-0.1,-0.57,-0.03,1113
2197,10.51,-1.06,0.92,0.65,1.36,0.4,-44.25,8.75,-1.19,0.82,-0.1,-0.56,-0.02,1114
2198,10.78,-1.04,0.94,0.7,1.45,0.43,-44.25,8.75,-1.19,0.82,-0.1,-0.56,-0.02,1115
2199,10.97,-0.72,1.01,0.76,1.56,0.44,-44.25,10.69,-4.69,0.83,-0.1,-0.55,-0.01,1116
2200,10.7,0.46,0.8,0.8,1.93,0.45,-44.25,10.69,-4.69,0.84,-0.09,-0.53,-0.01,1117
2201,10.6,0.8,0.98,0.85,2.05,0.46,-44.25,10.69,-4.69,0.85,-0.09,-0.52,-0.0,1118
2202,10.37,1.45,1.28,0.88,2.17,0.4,-42.88,11.25,-9.0,0.85,-0.09,-0.51,-0.0,1119
2203,10.4,1.57,1.34,0.9,2.26,0.38,-42.88,11.25,-9.0,0.86,-0.08,-0.51,0.0,1120
2204,10.57,1.73,1.33,0.87,2.33,0.43,-42.88,11.25,-9.0,0.87,-0.08,-0.49,0.01,1121
2205,10.78,2.03,1.39,0.86,2.4,0.48,-42.88,11.25,-9.0,0.87,-0.08,-0.49,0.01,1122
2206,10.78,2.03,1.39,0.87,2.47,0.5,-42.88,11.25,-9.0,0.88,-0.08,-0.47,0.01,1123
2207,11.18,3.87,1.03,0.96,2.55,0.55,-41.75,11.38,-13.25,0.88,-0.07,-0.46,0.01,1124
2208,11.18,3.87,1.03,1.17,2.62,0.69,-41.75,11.38,-13.25,0.89,-0.07,-0.45,0.02,1125
2209,13.87,1.72,-1.29,1.51,2.69,0.92,-41.75,11.38,-13.25,0.9,-0.07,-0.44,0.03,1126
2210,15.55,1.83,-1.75,1.65,2.81,0.95,-41.75,11.38,-13.25,0.9,-0.06,-0.43,0.03,1127
2211,17.47,2.13,-2.84,1.54,2.92,0.85,-41.75,11.38,-13.25,0.91,-0.05,-0.4,0.04,1128
2212,19.57,2.47,-4.48,1.27,3.01,0.94,-40.75,11.5,-20.0,0.91,-0.05,-0.4,0.04,1129
2213,19.7,-1.16,-4.34,1.15,3.01,1.12,-40.75,11.5,-20.0,0.93,-0.05,-0.37,0.06,1130
2214,17.56,-4.12,-1.78,1.31,3.1,1.22,-40.75,11.5,-20.0,0.93,-0.05,-0.37,0.06,1131
2215,15.62,-6.05,0.44,1.37,3.31,1.15,-40.75,11.5,-20.0,0.93,-0.05,-0.36,0.06,1132
2216,14.05,-6.81,5.16,1.23,3.61,1.01,-40.75,11.5,-20.0,0.94,-0.04,-0.34,0.07,1133
2217,14.05,-6.81,5.16,1.11,3.49,0.8,-35.38,13.25,-25.69,0.94,-0.04,-0.32,0.07,1134
2218,13.04,-6.79,13.53,0.7,2.97,0.41,-35.38,13.25,-25.69,0.95,-0.04,-0.3,0.08,1135
2219,12.08,-5.67,13.52,0.34,2.42,0.12,-35.38,13.25,-25.69,0.95,-0.04,-0.3,0.08,1136
2220,12.08,-5.67,13.52,-0.09,1.89,-0.05,-35.38,13.25,-25.69,0.95,-0.04,-0.29,0.08,1137
2221,6.91,-3.29,12.59,-0.37,1.43,-0.12,-35.38,13.25,-25.69,0.96,-0.04,-0.28,0.08,1138
2222,6.91,-3.29,12.59,-0.5,1.01,-0.11,-32.06,13.19,-31.0,0.96,-0.04,-0.28,0.07,1139
2223,4.54,-3.13,13.46,-0.5,0.67,-0.12,-32.06,13.19,-31.0,0.96,-0.05,-0.27,0.07,1140
2224,2.54,-3.48,11.26,-0.38,0.33,-0.14,-32.06,13.19,-31.0,0.96,-0.05,-0.27,0.07,1141
2225,2.18,-2.61,9.84,-0.33,-0.07,-0.09,-32.06,13.19,-31.0,0.96,-0.05,-0.28,0.07,1142
2226,2.29,-1.85,8.75,-0.44,-0.57,-0.09,-32.06,13.19,-31.0,0.96,-0.05,-0.28,0.07,1143
2227,2.68,-1.53,8.27,-0.47,-1.05,-0.15,-30.56,14.69,-33.0,0.95,-0.05,-0.29,0.07,1144
2228,3.22,-2.36,8.2,-0.55,-1.5,-0.21,-30.56,14.69,-33.0,0.95,-0.05,-0.29,0.07,1145
2229,3.18,-2.86,8.49,-0.7,-1.92,-0.23,-30.56,14.69,-33.0,0.95,-0.06,-0.3,0.07,1146
2230,2.88,-3.47,8.52,-0.89,-2.31,-0.29,-30.56,14.69,-33.0,0.94,-0.06,-0.32,0.06,1147
2231,2.14,-4.07,8.41,-1.2,-2.68,-0.38,-30.56,14.69,-33.0,0.94,-0.06,-0.32,0.06,1148
2232,2.1,-3.73,8.33,-1.6,-3.04,-0.47,-32.06,14.69,-30.06,0.93,-0.08,-0.35,0.05,1149
2233,2.28,-3.09,8.37,-2.0,-3.38,-0.6,-32.06,14.69,-30.06,0.93,-0.08,-0.35,0.05,1150
2234,2.56,-2.24,8.56,-2.08,-3.92,-0.95,-32.06,14.69,-30.06,0.92,-0.09,-0.39,0.04,1151
2235,3.1,-1.09,8.17,-2.08,-3.92,-0.95,-32.06,14.69,-30.06,0.92,-0.09,-0.39,0.04,1152
2236,3.18,-0.69,8.02,-1.66,-4.13,-1.09,-32.06,14.69,-30.06,0.91,-0.1,-0.41,0.03,1153
2237,3.21,-0.66,7.71,-1.01,-4.29,-1.17,-35.0,15.69,-23.87,0.9,-0.1,-0.43,0.03,1154
2238,3.27,-0.79,7.17,-0.28,-4.47,-1.21,-35.0,15.69,-23.87,0.89,-0.1,-0.45,0.03,1155
2239,3.32,-1.2,7.56,0.43,-4.62,-1.24,-35.0,15.69,-23.87,0.87,-0.08,-0.49,0.02,1156
2240,3.69,-1.49,7.47,1.05,-4.78,-1.27,-35.0,15.69,-23.87,0.87,-0.08,-0.49,0.02,1157
2241,4.23,-1.9,7.36,1.46,-4.92,-1.25,-35.0,15.69,-23.87,0.86,-0.07,-0.51,0.02,1158
2242,5.22,-2.49,7.26,1.67,-5.04,-1.18,-41.25,14.87,-13.69,0.85,-0.06,-0.53,0.02,1159
2243,5.77,-2.79,6.51,1.4,-5.18,-1.0,-41.25,14.87,-13.69,0.82,-0.04,-0.57,0.03,1160
2244,6.2,-2.98,5.45,1.4,-5.18,-1.0,-41.25,14.87,-13.69,0.81,-0.04,-0.59,0.03,1161
2245,6.47,-2.73,5.21,1.03,-5.16,-0.92,-41.25,14.87,-13.69,0.81,-0.04,-0.59,0.03,1162
2246,7.21,-2.02,5.11,0.67,-5.07,-0.91,-45.38,11.06,-3.5,0.78,-0.03,-0.63,0.02,1163
2247,7.7,-1.52,5.71,0.33,-4.98,-0.9,-45.38,11.06,-3.5,0.78,-0.03,-0.63,0.02,1164
2248,8.03,-1.14,6.32,-0.14,-4.79,-0.84,-45.38,11.06,-3.5,0.75,-0.02,-0.67,0.02,1165
2249,8.18,-0.91,6.46,-0.14,-4.79,-0.84,-45.38,11.06,-3.5,0.75,-0.02,-0.67,0.02,1166
2250,8.06,-0.91,5.81,-0.29,-4.73,-0.81,-45.38,11.06,-3.5,0.73,-0.02,-0.68,0.01,1167
2251,7.84,-0.86,5.34,-0.43,-4.65,-0.78,-45.38,11.06,-3.5,0.72,-0.02,-0.7,0.01,1168
2252,7.62,-0.69,5.01,-0.52,-4.52,-0.81,-45.5,7.75,6.06,0.7,-0.01,-0.71,0.01,1169
2253,7.45,-0.54,4.6,-0.57,-4.37,-0.87,-45.5,7.75,6.06,0.67,-0.01,-0.74,-0.0,1170
2254,7.49,0.06,3.32,-0.6,-4.22,-0.93,-45.5,7.75,6.06,0.67,-0.01,-0.74,-0.0,1171
2255,7.61,0.18,2.87,-0.59,-4.04,-1.01,-45.5,7.75,6.06,0.65,-0.01,-0.76,-0.01,1172
2256,7.85,0.07,2.92,-0.54,-3.84,-1.07,-45.5,7.75,6.06,0.64,-0.01,-0.77,-0.01,1173
2257,7.85,0.07,2.92,-0.59,-3.64,-1.12,-42.69,5.25,16.5,0.63,-0.01,-0.78,-0.02,1174
2258,7.81,0.21,2.3,-0.72,-3.4,-1.13,-42.69,5.25,16.5,0.6,-0.0,-0.8,-0.03,1175
2259,7.58,0.58,1.23,-0.89,-3.15,-1.09,-42.69,5.25,16.5,0.6,-0.0,-0.8,-0.03,1176
2260,7.47,1.28,0.62,-1.17,-2.46,-1.04,-42.69,5.25,16.5,0.58,-0.0,-0.81,-0.05,1177
2261,7.42,2.99,-0.91,-1.17,-2.46,-1.04,-42.69,5.25,16.5,0.58,-0.0,-0.81,-0.05,1178
2262,7.26,4.0,-2.06,-1.17,-1.97,-0.99,-39.25,2.5,23.38,0.57,-0.0,-0.82,-0.06,1179
2263,7.2,4.76,-3.22,-1.02,-1.38,-0.84,-39.25,2.5,23.38,0.57,-0.0,-0.82,-0.06,1180
2264,7.32,4.96,-3.52,-0.77,-0.7,-0.55,-39.25,2.5,23.38,0.56,-0.0,-0.82,-0.06,1181
2265,7.96,2.61,-1.26,-0.45,-0.03,-0.15,-39.25,2.5,23.38,0.57,-0.0,-0.82,-0.07,1182
2266,7.96,0.81,0.09,-0.18,0.56,0.28,-39.25,2.5,23.38,0.57,-0.0,-0.82,-0.07,1183
2267,7.47,-0.7,1.55,-0.08,1.07,0.63,-36.75,-1.0,28.56,0.58,-0.01,-0.81,-0.06,1184
2268,6.41,-2.3,3.74,-0.18,1.47,0.86,-36.75,-1.0,28.56,0.58,-0.01,-0.81,-0.06,1185
2269,6.41,-2.3,3.74,-0.36,1.78,0.99,-36.75,-1.0,28.56,0.58,-0.02,-0.81,-0.06,1186
2270,6.64,-2.75,4.94,-0.58,1.99,1.03,-36.75,-1.0,28.56,0.6,-0.03,-0.8,-0.06,1187
2271,8.04,-2.05,4.94,-0.81,1.98,0.94,-36.75,-1.0,28.56,0.6,-0.03,-0.8,-0.06,1188
2272,20.79,4.05,-2.55,-1.12,1.26,0.59,-38.75,-1.0,28.56,0.6,-0.03,-0.79,-0.07,1189
2273,28.98,11.67,-5.71,-1.66,-0.29,-0.36,-38.75,-1.0,28.56,0.6,-0.03,-0.79,-0.07,1190
2274,26.99,14.36,-7.57,-1.96,-0.79,-2.09,-38.75,-1.0,28.56,0.6,-0.03,-0.79,-0.1,1191
2275,15.7,8.36,-7.08,-1.35,0.27,-2.04,-38.75,-1.0,28.56,0.6,-0.03,-0.79,-0.1,1192
2276,13.82,5.38,-1.51,-1.29,1.54,0.89,-38.75,-1.0,28.56,0.6,-0.03,-0.79,-0.1,1193
2277,13.9,6.91,-1.96,-1.49,1.92,2.56,-40.0,-0.19,26.56,0.61,-0.05,-0.78,-0.1,1194
2278,10.52,5.39,-0.17,-0.62,2.13,2.05,-40.0,-0.19,26.56,0.62,-0.06,-0.78,-0.1,1195
2279,6.21,-2.53,2.17,0.46,2.36,1.32,-40.0,-0.19,26.56,0.64,-0.06,-0.76,-0.08,1196
2280,6.96,-5.78,2.41,0.98,2.55,1.47,-40.0,-0.19,26.56,0.64,-0.06,-0.76,-0.08,1197
2281,6.96,-5.78,2.41,0.89,2.58,2.02,-40.0,-0.19,26.56,0.65,-0.06,-0.75,-0.07,1198
2282,9.78,-8.27,1.54,0.54,2.22,1.94,-40.5,-1.5,23.75,0.66,-0.07,-0.74,-0.07,1199
2283,9.78,-8.27,1.54,0.18,1.91,1.1,-40.5,-1.5,23.75,0.67,-0.07,-0.74,-0.06,1200
2284,8.64,-5.65,-0.39,-0.07,1.78,0.22,-40.5,-1.5,23.75,0.67,-0.07,-0.73,-0.06,1201
2285,8.3,-2.27,1.06,-0.71,1.85,0.36,-40.5,-1.5,23.75,0.69,-0.08,-0.72,-0.07,1202
2286,8.3,-2.27,1.06,-0.71,1.85,0.36,-40.5,-1.5,23.75,0.69,-0.08,-0.71,-0.07,1203
2287,10.69,0.65,1.98,-0.74,1.64,0.49,-43.0,2.5,18.0,0.7,-0.08,-0.71,-0.07,1204
2288,10.48,0.4,1.94,-0.63,1.57,0.4,-43.0,2.5,18.0,0.7,-0.09,-0.7,-0.07,1205
2289,9.73,-0.21,2.13,-0.59,1.54,0.47,-43.0,2.5,18.0,0.71,-0.09,-0.69,-0.07,1206
2290,8.78,-1.0,2.85,-0.63,1.47,0.6,-43.0,2.5,18.0,0.71,-0.09,-0.69,-0.07,1207
2291,8.81,-1.01,3.08,-0.62,1.36,0.63,-44.88,2.06,14.87,0.72,-0.1,-0.68,-0.07,1208
2292,8.82,-1.01,3.05,-0.53,1.24,0.55,-44.88,2.06,14.87,0.72,-0.1,-0.68,-0.07,1209
2293,8.82,-1.01,3.05,-0.42,1.16,0.5,-44.88,2.06,14.87,0.73,-0.1,-0.68,-0.07,1210
2294,9.19,-1.23,3.1,-0.3,1.07,0.48,-44.88,2.06,14.87,0.73,-0.11,-0.67,-0.07,1211
2295,9.37,-1.27,3.06,-0.21,0.99,0.43,-44.88,2.06,14.87,0.73,-0.11,-0.67,-0.07,1212
2296,9.42,-1.2,3.09,-0.21,0.93,0.34,-46.0,2.56,11.75,0.74,-0.11,-0.66,-0.07,1213
2297,9.49,-0.21,3.15,-0.24,0.89,0.32,-46.0,2.56,11.75,0.74,-0.11,-0.66,-0.07,1214
2298,9.58,0.28,3.09,-0.22,0.83,0.35,-46.0,2.56,11.75,0.74,-0.11,-0.65,-0.07,1215
2299,9.67,0.47,3.01,-0.07,0.78,0.38,-46.0,2.56,11.75,0.74,-0.11,-0.65,-0.07,1216
2300,9.63,0.0,2.16,0.32,0.69,0.41,-47.19,4.19,11.25,0.75,-0.11,-0.65,-0.07,1217
2301,9.63,0.0,2.16,0.45,0.66,0.43,-47.19,4.19,11.25,0.75,-0.11,-0.65,-0.07,1218
2302,9.5,-0.6,1.35,0.52,0.62,0.44,-47.19,4.19,11.25,0.76,-0.11,-0.64,-0.06,1219
2303,9.52,-1.35,0.61,0.55,0.59,0.44,-47.19,4.19,11.25,0.76,-0.11,-0.64,-0.06,1220
2304,9.52,-1.35,0.61,0.51,0.56,0.43,-47.19,4.19,11.25,0.76,-0.11,-0.64,-0.06,1221
2305,9.63,-1.72,0.17,0.42,0.54,0.41,-45.88,5.5,8.75,0.76,-0.11,-0.64,-0.06,1222
2306,9.63,-1.72,0.17,0.42,0.54,0.41,-45.88,5.5,8.75,0.76,-0.11,-0.64,-0.05,1223
2307,9.24,-1.23,0.09,0.14,0.65,0.36,-45.88,5.5,8.75,0.76,-0.11,-0.63,-0.05,1224
2308,9.2,-0.92,0.27,0.08,0.76,0.37,-45.88,5.5,8.75,0.77,-0.11,-0.63,-0.05,1225
2309,9.21,-0.69,0.64,0.11,0.88,0.39,-45.88,5.5,8.75,0.77,-0.11,-0.62,-0.05,1226
2310,9.33,-0.57,1.15,0.21,1.0,0.41,-48.19,6.37,7.19,0.77,-0.11,-0.62,-0.05,1227
2311,9.71,-0.6,1.55,0.33,1.08,0.43,-48.19,6.37,7.19,0.78,-0.11,-0.61,-0.04,1228
2312,9.84,-0.67,1.72,0.45,1.14,0.47,-48.19,6.37,7.19,0.78,-0.11,-0.61,-0.04,1229
2313,9.92,-0.74,1.76,0.57,1.2,0.46,-48.19,6.37,7.19,0.78,-0.11,-0.61,-0.04,1230
2314,9.91,-0.97,1.63,0.63,1.24,0.43,-48.19,6.37,7.19,0.79,-0.11,-0.6,-0.04,1231
2315,9.91,-0.97,1.63,0.6,1.29,0.43,-46.25,7.37,4.75,0.79,-0.11,-0.6,-0.04,1232
2316,9.7,-0.47,1.28,0.57,1.35,0.42,-46.25,7.37,4.75,0.8,-0.1,-0.59,-0.03,1233
2317,9.58,-0.34,1.17,0.58,1.41,0.43,-46.25,7.37,4.75,0.8,-0.1,-0.59,-0.03,1234
2318,9.58,-0.34,1.17,0.62,1.47,0.47,-46.25,7.37,4.75,0.81,-0.1,-0.58,-0.03,1235
2319,9.71,-1.04,1.52,0.69,1.53,0.51,-46.25,7.37,4.75,0.81,-0.1,-0.58,-0.02,1236
2320,9.71,-1.04,1.52,0.69,1.53,0.51,-47.38,8.56,2.87,0.82,-0.1,-0.57,-0.02,1237
2321,10.43,-1.21,1.94,0.75,1.67,0.46,-47.38,8.56,2.87,0.82,-0.1,-0.56,-0.02,1238
2322,11.14,-1.05,1.64,0.78,1.74,0.43,-47.38,8.56,2.87,0.83,-0.1,-0.56,-0.02,1239
2323,11.21,-1.03,1.51,0.79,1.81,0.42,-47.38,8.56,2.87,0.84,-0.09,-0.54,-0.01,1240
2324,11.19,-0.69,1.47,0.77,1.9,0.41,-47.38,8.56,2.87,0.84,-0.09,-0.54,-0.01,1241
2325,10.79,-0.06,0.94,0.73,1.98,0.38,-46.25,10.38,-1.75,0.85,-0.09,-0.52,-0.0,1242
2326,10.6,0.68,1.18,0.68,2.09,0.37,-46.25,10.38,-1.75,0.85,-0.09,-0.52,-0.0,1243
2327,10.6,0.68,1.18,0.67,2.19,0.34,-46.25,10.38,-1.75,0.85,-0.09,-0.52,-0.0,1244
2328,10.47,2.14,0.93,0.67,2.29,0.28,-46.25,10.38,-1.75,0.86,-0.08,-0.5,0.0,1245
2329,10.73,2.44,0.8,0.72,2.39,0.33,-46.25,10.38,-1.75,0.86,-0.08,-0.5,0.0,1246
2330,11.01,2.54,0.68,0.81,2.48,0.45,-45.56,11.56,-6.06,0.88,-0.08,-0.47,0.01,1247
2331,11.24,2.76,0.56,0.93,2.58,0.53,-45.56,11.56,-6.06,0.88,-0.08,-0.47,0.01,1248
2332,11.5,2.96,0.36,1.22,2.73,0.68,-45.56,11.56,-6.06,0.89,-0.07,-0.45,0.02,1249
2333,12.84,1.64,-1.29,1.22,2.73,0.68,-45.56,11.56,-6.06,0.89,-0.07,-0.45,0.02,1250
2334,14.04,1.33,-2.08,1.39,2.79,0.84,-45.56,11.56,-6.06,0.9,-0.07,-0.44,0.02,1251
2335,15.42,1.87,-2.88,1.37,2.87,0.84,-44.38,12.25,-11.19,0.9,-0.06,-0.42,0.03,1252
2336,16.66,2.24,-3.83,1.21,2.99,0.79,-44.38,12.25,-11.19,0.91,-0.06,-0.41,0.03,1253
2337,18.73,1.37,-5.83,1.02,3.13,0.99,-44.38,12.25,-11.19,0.92,-0.06,-0.38,0.05,1254
2338,18.35,-0.39,-5.08,1.01,3.22,1.27,-44.38,12.25,-11.19,0.92,-0.06,-0.38,0.05,1255
2339,18.35,-0.39,-5.08,1.22,3.36,1.32,-44.38,12.25,-11.19,0.93,-0.05,-0.37,0.05,1256
2340,15.51,-6.44,1.37,1.23,3.49,1.19,-42.88,12.56,-19.06,0.93,-0.05,-0.35,0.06,1257
2341,15.51,-6.44,1.37,0.99,3.67,1.04,-42.88,12.56,-19.06,0.94,-0.05,-0.33,0.06,1258
2342,15.25,-7.07,9.66,0.73,3.59,0.87,-42.88,12.56,-19.06,0.95,-0.05,-0.3,0.07,1259
2343,15.09,-6.73,11.28,0.43,3.13,0.62,-42.88,12.56,-19.06,0.95,-0.05,-0.3,0.07,1260
2344,10.29,-3.35,14.11,-0.29,2.0,0.03,-36.56,13.75,-26.0,0.96,-0.05,-0.27,0.07,1261
2345,8.54,-3.03,13.65,-0.5,1.49,-0.05,-36.56,13.75,-26.0,0.96,-0.05,-0.27,0.07,1262
2346,7.16,-2.72,13.55,-0.51,1.11,0.04,-36.56,13.75,-26.0,0.96,-0.06,-0.27,0.07,1263
2347,4.5,-3.13,12.49,-0.29,0.74,0.07,-36.56,13.75,-26.0,0.96,-0.06,-0.26,0.07,1264
2348,3.6,-3.25,11.24,-0.02,0.22,0.1,-36.56,13.75,-26.0,0.96,-0.06,-0.26,0.07,1265
2349,3.29,-2.58,10.11,0.08,-0.33,0.13,-32.06,13.19,-30.37,0.96,-0.06,-0.27,0.07,1266
2350,4.12,-1.86,9.36,0.04,-0.89,0.06,-32.06,13.19,-30.37,0.96,-0.06,-0.27,0.07,1267
2351,4.12,-1.86,9.36,-0.09,-1.41,-0.04,-32.06,13.19,-30.37,0.96,-0.06,-0.28,0.07,1268
2352,4.14,-2.71,10.14,-0.24,-1.88,-0.12,-32.06,13.19,-30.37,0.95,-0.06,-0.3,0.07,1269
2353,3.61,-3.4,10.46,-0.48,-2.33,-0.21,-32.06,13.19,-30.37,0.95,-0.06,-0.3,0.07,1270
2354,2.28,-4.11,10.02,-0.91,-2.78,-0.33,-32.06,13.25,-29.25,0.95,-0.06,-0.31,0.07,1271
2355,1.76,-3.88,9.72,-1.48,-3.22,-0.48,-32.06,13.25,-29.25,0.94,-0.07,-0.32,0.06,1272
2356,1.54,-3.25,9.43,-2.01,-3.62,-0.64,-32.06,13.25,-29.25,0.93,-0.08,-0.36,0.05,1273
2357,1.67,-2.29,9.49,-2.28,-3.96,-0.82,-32.06,13.25,-29.25,0.93,-0.08,-0.36,0.05,1274
2358,2.58,-0.36,9.23,-2.25,-4.26,-1.03,-32.06,13.25,-29.25,0.92,-0.09,-0.38,0.05,1275
2359,2.78,0.29,9.2,-1.93,-4.5,-1.2,-35.5,13.5,-26.25,0.91,-0.09,-0.4,0.04,1276
2360,2.73,0.47,8.53,-1.37,-4.69,-1.31,-35.5,13.5,-26.25,0.9,-0.1,-0.42,0.03,1277
2361,2.2,0.4,8.37,-0.74,-4.86,-1.35,-35.5,13.5,-26.25,0.88,-0.09,-0.47,0.02,1278
2362,2.08,0.31,8.28,-0.02,-5.0,-1.39,-35.5,13.5,-26.25,0.88,-0.09,-0.47,0.02,1279
2363,2.3,0.05,8.04,0.67,-5.14,-1.45,-35.5,13.5,-26.25,0.87,-0.09,-0.49,0.02,1280
2364,2.77,-0.51,7.83,1.26,-5.28,-1.49,-41.5,13.25,-15.25,0.86,-0.08,-0.51,0.02,1281
2365,2.77,-0.51,7.83,1.57,-5.38,-1.46,-41.5,13.25,-15.25,0.84,-0.07,-0.53,0.02,1282
2366,4.74,-2.98,7.34,1.57,-5.46,-1.36,-41.5,13.25,-15.25,0.81,-0.05,-0.58,0.02,1283
2367,5.22,-3.61,7.13,1.32,-5.51,-1.28,-41.5,13.25,-15.25,0.81,-0.05,-0.58,0.02,1284
2368,5.49,-3.86,7.46,0.91,-5.55,-1.28,-45.88,9.56,-5.19,0.78,-0.03,-0.62,0.02,1285
2369,6.08,-3.16,8.01,0.49,-5.59,-1.36,-45.88,9.56,-5.19,0.78,-0.03,-0.62,0.02,1286
2370,6.21,-2.43,7.69,-0.33,-5.58,-1.56,-45.88,9.56,-5.19,0.75,-0.02,-0.66,0.01,1287
2371,6.14,-1.68,7.64,-0.33,-5.58,-1.56,-45.88,9.56,-5.19,0.75,-0.02,-0.66,0.01,1288
2372,5.9,-0.48,7.39,-0.54,-5.52,-1.56,-45.88,9.56,-5.19,0.73,-0.02,-0.68,-0.0,1289
2373,5.98,0.03,7.11,-0.58,-5.43,-1.52,-45.88,9.56,-5.19,0.71,-0.02,-0.7,-0.01,1290
2374,6.36,0.67,6.53,-0.45,-5.32,-1.47,-46.25,7.0,8.19,0.69,-0.01,-0.72,-0.01,1291
2375,7.04,1.15,5.83,-0.2,-5.2,-1.41,-46.25,7.0,8.19,0.66,-0.01,-0.75,-0.02,1292
2376,8.49,1.57,4.22,0.05,-5.04,-1.31,-46.25,7.0,8.19,0.66,-0.01,-0.75,-0.02,1293
2377,8.8,1.57,3.28,0.25,-4.81,-1.14,-46.25,7.0,8.19,0.64,-0.0,-0.77,-0.02,1294
2378,8.74,1.25,2.45,0.42,-4.48,-0.92,-46.25,7.0,8.19,0.62,0.0,-0.78,-0.03,1295
2379,8.74,1.25,2.45,0.59,-4.07,-0.73,-43.38,3.37,19.5,0.61,0.01,-0.8,-0.03,1296
2380,8.04,-2.3,-0.91,0.56,-3.67,-0.61,-43.38,3.37,19.5,0.58,0.01,-0.81,-0.03,1297
2381,7.8,-1.84,-2.6,0.16,-3.12,-0.63,-43.38,3.37,19.5,0.58,0.01,-0.81,-0.03,1298
2382,6.74,-0.37,-4.41,-0.89,-1.5,-1.05,-43.38,3.37,19.5,0.56,0.02,-0.83,-0.04,1299
2383,6.34,1.47,-6.85,-0.89,-1.5,-1.05,-43.38,3.37,19.5,0.56,0.02,-0.83,-0.04,1300
2384,8.02,3.13,-4.52,-1.24,-0.54,-0.88,-38.69,1.0,28.25,0.56,0.01,-0.83,-0.05,1301
2385,8.21,2.57,-1.8,-1.35,0.35,-0.27,-38.69,1.0,28.25,0.56,0.01,-0.83,-0.05,1302
2386,5.43,-1.72,4.6,-1.23,1.71,0.88,-38.69,1.0,28.25,0.57,0.0,-0.82,-0.06,1303
2387,5.43,-1.72,4.6,-1.29,2.09,1.18,-38.69,1.0,28.25,0.58,-0.0,-0.81,-0.06,1304
2388,3.91,-2.04,6.89,-1.31,2.31,1.22,-36.56,-1.69,30.56,0.59,-0.01,-0.8,-0.06,1305
2389,3.91,-2.04,6.89,-1.25,2.36,1.08,-36.56,-1.69,30.56,0.6,-0.02,-0.8,-0.06,1306
2390,9.47,-0.62,4.39,-1.17,2.06,0.9,-36.56,-1.69,30.56,0.61,-0.03,-0.79,-0.07,1307
2391,17.17,2.07,-1.69,-1.24,1.07,0.62,-36.56,-1.69,30.56,0.61,-0.03,-0.79,-0.07,1308
2392,28.16,8.99,-6.18,-1.75,-0.59,-0.38,-38.5,-2.06,27.0,0.61,-0.03,-0.79,-0.09,1309
2393,33.49,15.71,-5.8,-1.93,-0.91,-2.44,-38.5,-2.06,27.0,0.61,-0.03,-0.79,-0.09,1310
2394,11.76,4.46,-3.9,-0.96,1.92,1.39,-38.5,-2.06,27.0,0.61,-0.03,-0.78,-0.1,1311
2395,11.13,4.33,-1.68,-0.96,1.92,1.39,-38.5,-2.06,27.0,0.61,-0.03,-0.78,-0.1,1312
2396,13.46,7.4,-3.16,-1.45,2.34,3.32,-38.5,-2.06,27.0,0.62,-0.05,-0.77,-0.1,1313
2397,7.51,2.09,-0.67,-0.62,2.81,2.71,-38.5,-2.06,27.0,0.64,-0.06,-0.76,-0.09,1314
2398,6.31,-1.95,1.15,0.52,3.69,1.81,-39.69,-5.5,25.37,0.65,-0.06,-0.75,-0.08,1315
2399,7.48,-3.23,5.9,1.03,4.16,1.66,-39.69,-5.5,25.37,0.68,-0.07,-0.73,-0.07,1316
2400,8.54,-5.38,-0.7,0.37,2.13,1.86,-39.69,-5.5,25.37,0.69,-0.07,-0.71,-0.06,1317
2401,8.86,-6.63,-1.04,0.41,2.02,1.28,-39.69,-5.5,25.37,0.69,-0.07,-0.71,-0.06,1318
2402,8.52,-7.68,0.43,0.48,1.93,0.58,-43.0,-1.69,20.37,0.71,-0.07,-0.7,-0.05,1319
2403,7.95,-7.57,3.04,0.39,1.85,0.45,-43.0,-1.69,20.37,0.71,-0.07,-0.7,-0.05,1320
2404,8.09,-4.69,4.4,-0.26,1.36,0.48,-43.0,-1.69,20.37,0.72,-0.08,-0.69,-0.05,1321
2405,9.24,-3.33,4.33,-0.26,1.36,0.48,-43.0,-1.69,20.37,0.72,-0.08,-0.69,-0.05,1322
2406,10.56,-1.93,4.59,-0.46,1.23,0.44,-43.0,-1.69,20.37,0.72,-0.08,-0.69,-0.05,1323
2407,10.84,0.44,4.91,-0.54,1.21,0.34,-44.75,2.19,15.0,0.73,-0.08,-0.68,-0.05,1324
2408,9.79,0.98,5.22,-0.59,1.25,0.28,-44.75,2.19,15.0,0.73,-0.08,-0.68,-0.05,1325
2409,8.79,1.2,5.53,-0.6,1.21,0.31,-44.75,2.19,15.0,0.74,-0.09,-0.67,-0.06,1326
2410,8.32,1.16,5.78,-0.52,1.1,0.36,-44.75,2.19,15.0,0.74,-0.09,-0.67,-0.06,1327
2411,8.84,0.54,5.57,-0.37,0.99,0.43,-44.75,2.19,15.0,0.74,-0.09,-0.66,-0.06,1328
2412,9.21,0.16,5.25,-0.16,0.89,0.53,-45.19,2.19,13.75,0.74,-0.09,-0.66,-0.05,1329
2413,9.31,-0.22,4.9,0.12,0.8,0.57,-45.19,2.19,13.75,0.75,-0.1,-0.66,-0.05,1330
2414,9.22,-0.72,4.43,0.44,0.71,0.52,-45.19,2.19,13.75,0.75,-0.09,-0.65,-0.05,1331
2415,9.25,-1.75,3.55,0.71,0.6,0.45,-45.19,2.19,13.75,0.75,-0.09,-0.65,-0.05,1332
2416,9.25,-1.75,3.55,0.86,0.51,0.41,-45.19,2.19,13.75,0.75,-0.09,-0.65,-0.04,1333
2417,9.9,-2.09,2.94,0.87,0.43,0.36,-46.0,3.56,11.06,0.75,-0.09,-0.65,-0.04,1334
2418,9.9,-2.09,2.94,0.81,0.37,0.3,-46.0,3.56,11.06,0.76,-0.09,-0.65,-0.03,1335
2419,9.98,-1.04,1.35,0.73,0.33,0.23,-46.0,3.56,11.06,0.76,-0.08,-0.65,-0.03,1336
2420,9.82,-0.55,0.69,0.66,0.34,0.2,-46.0,3.56,11.06,0.76,-0.08,-0.65,-0.03,1337
2421,9.82,-0.55,0.69,0.6,0.37,0.21,-46.0,3.56,11.06,0.76,-0.08,-0.64,-0.03,1338
2422,9.55,0.39,-2.0,0.57,0.42,0.25,-47.06,4.75,9.5,0.76,-0.08,-0.64,-0.02,1339
2423,9.55,0.39,-2.0,0.57,0.42,0.25,-47.06,4.75,9.5,0.76,-0.08,-0.64,-0.02,1340
2424,9.68,0.56,-2.81,0.65,0.54,0.28,-47.06,4.75,9.5,0.76,-0.08,-0.64,-0.02,1341
2425,9.79,0.31,-2.8,0.7,0.67,0.35,-47.06,4.75,9.5,0.77,-0.08,-0.64,-0.02,1342
2426,9.97,-0.96,-1.56,0.75,0.84,0.46,-47.06,4.75,9.5,0.77,-0.08,-0.63,-0.01,1343
2427,9.96,-1.44,-0.51,0.76,1.04,0.53,-48.19,5.75,8.69,0.77,-0.07,-0.63,-0.01,1344
2428,9.86,-1.53,0.49,0.75,1.19,0.51,-48.19,5.75,8.69,0.78,-0.07,-0.62,-0.0,1345
2429,9.72,-1.44,1.23,0.74,1.28,0.46,-48.19,5.75,8.69,0.78,-0.07,-0.62,-0.0,1346
2430,9.72,-1.44,1.23,0.75,1.31,0.45,-48.19,5.75,8.69,0.79,-0.07,-0.61,0.0,1347
2431,9.59,-1.67,2.34,0.75,1.33,0.45,-48.19,5.75,8.69,0.79,-0.07,-0.61,0.01,1348
2432,9.59,-1.67,2.34,0.75,1.33,0.45,-47.75,6.87,6.37,0.79,-0.07,-0.6,0.01,1349
2433,9.16,-2.39,1.99,0.63,1.31,0.39,-47.75,6.87,6.37,0.8,-0.07,-0.59,0.01,1350
2434,9.03,-2.29,1.83,0.46,1.3,0.33,-47.75,6.87,6.37,0.8,-0.07,-0.59,0.01,1351
2435,9.03,-2.29,1.83,0.28,1.33,0.3,-47.75,6.87,6.37,0.81,-0.07,-0.59,0.02,1352
2436,8.92,-1.35,2.07,0.14,1.39,0.27,-47.75,6.87,6.37,0.81,-0.07,-0.58,0.02,1353
2437,8.92,-1.35,2.07,0.14,1.39,0.27,-46.69,8.69,4.0,0.81,-0.07,-0.58,0.02,1354
2438,9.7,1.02,2.17,0.3,1.52,0.24,-46.69,8.69,4.0,0.82,-0.07,-0.57,0.02,1355
2439,9.99,0.61,2.13,0.56,1.6,0.35,-46.69,8.69,4.0,0.82,-0.06,-0.56,0.02,1356
2440,10.26,-0.29,2.36,0.75,1.67,0.48,-46.69,8.69,4.0,0.83,-0.06,-0.55,0.03,1357
2441,10.5,-1.69,2.27,0.78,1.7,0.49,-46.69,8.69,4.0,0.83,-0.06,-0.55,0.03,1358
2442,10.44,-1.58,2.26,0.67,1.76,0.38,-48.19,8.69,-0.25,0.84,-0.06,-0.54,0.03,1359
2443,10.42,-0.82,2.18,0.5,1.83,0.22,-48.19,8.69,-0.25,0.84,-0.06,-0.54,0.03,1360
2444,10.46,0.32,1.63,0.27,1.95,0.14,-48.19,8.69,-0.25,0.85,-0.06,-0.52,0.03,1361
2445,10.64,0.46,1.43,0.27,1.95,0.14,-48.19,8.69,-0.25,0.86,-0.06,-0.51,0.04,1362
2446,10.83,0.35,1.38,0.26,2.01,0.2,-48.19,8.69,-0.25,0.86,-0.06,-0.51,0.04,1363
2447,10.97,0.31,1.35,0.28,2.05,0.19,-47.0,10.5,-5.75,0.86,-0.06,-0.5,0.04,1364
2448,11.17,0.55,1.13,0.27,2.11,0.13,-47.0,10.5,-5.75,0.87,-0.06,-0.49,0.04,1365
2449,11.41,1.11,0.67,0.22,2.16,0.12,-47.0,10.5,-5.75,0.88,-0.06,-0.47,0.04,1366
2450,11.66,1.78,0.07,0.23,2.24,0.15,-47.0,10.5,-5.75,0.88,-0.06,-0.47,0.04,1367
2451,11.85,2.41,-0.67,0.33,2.35,0.22,-47.0,10.5,-5.75,0.88,-0.06,-0.46,0.04,1368
2452,12.65,3.06,-2.69,0.51,2.47,0.33,-44.75,9.5,-9.25,0.89,-0.05,-0.45,0.04,1369
2453,13.48,2.09,-4.16,0.74,2.58,0.48,-44.75,9.5,-9.25,0.89,-0.05,-0.44,0.04,1370
2454,14.66,1.57,-4.91,0.89,2.71,0.65,-44.75,9.5,-9.25,0.91,-0.05,-0.42,0.05,1371
2455,16.86,2.51,-5.27,0.79,2.88,0.64,-44.75,9.5,-9.25,0.91,-0.05,-0.42,0.05,1372
2456,16.86,2.51,-5.27,0.61,3.1,0.69,-44.75,9.5,-9.25,0.91,-0.05,-0.4,0.06,1373
2457,17.47,2.47,-4.09,0.33,3.34,1.03,-43.0,9.5,-13.56,0.92,-0.05,-0.39,0.06,1374
2458,17.47,2.47,-4.09,0.21,3.4,1.41,-43.0,9.5,-13.56,0.92,-0.05,-0.37,0.07,1375
2459,16.1,-2.72,-0.79,0.46,3.49,1.52,-43.0,9.5,-13.56,0.94,-0.06,-0.34,0.08,1376
2460,15.87,-4.73,0.19,0.75,3.63,1.43,-43.0,9.5,-13.56,0.94,-0.06,-0.34,0.08,1377
2461,16.02,-6.0,4.56,0.9,3.79,1.28,-43.0,9.5,-13.56,0.95,-0.05,-0.3,0.09,1378
2462,16.11,-7.25,9.85,1.07,3.58,1.05,-40.38,11.69,-19.56,0.95,-0.05,-0.3,0.09,1379
2463,14.82,-7.69,12.86,1.0,2.98,0.66,-40.38,11.69,-19.56,0.95,-0.05,-0.28,0.1,1380
2464,12.94,-6.73,12.96,0.6,2.39,0.27,-40.38,11.69,-19.56,0.95,-0.05,-0.28,0.1,1381
2465,10.59,-5.61,13.13,-0.11,1.9,0.01,-40.38,11.69,-19.56,0.96,-0.05,-0.27,0.1,1382
2466,8.43,-4.91,13.22,-0.78,1.55,-0.07,-40.38,11.69,-19.56,0.96,-0.05,-0.26,0.09,1383
2467,5.03,-4.06,16.39,-1.09,1.31,-0.06,-34.25,12.69,-28.87,0.96,-0.06,-0.26,0.09,1384
2468,4.4,-5.04,14.35,-0.81,0.83,-0.04,-34.25,12.69,-28.87,0.96,-0.07,-0.25,0.09,1385
2469,4.24,-4.5,12.63,-0.79,0.26,-0.02,-34.25,12.69,-28.87,0.96,-0.07,-0.25,0.09,1386
2470,4.79,-2.44,9.44,-0.82,-0.32,-0.11,-34.25,12.69,-28.87,0.96,-0.07,-0.26,0.09,1387
2471,4.74,-2.13,10.16,-0.79,-0.82,-0.27,-34.25,12.69,-28.87,0.96,-0.07,-0.26,0.09,1388
2472,4.74,-2.13,10.16,-0.65,-1.27,-0.39,-31.75,12.75,-28.69,0.96,-0.08,-0.27,0.08,1389
2473,3.96,-2.39,11.17,-0.56,-1.72,-0.46,-31.75,12.75,-28.69,0.95,-0.08,-0.28,0.08,1390
2474,2.66,-3.49,10.99,-0.58,-2.16,-0.56,-31.75,12.75,-28.69,0.95,-0.08,-0.28,0.08,1391
2475,1.8,-4.09,10.64,-1.33,-3.02,-0.73,-31.75,12.75,-28.69,0.94,-0.09,-0.31,0.07,1392
2476,1.06,-4.13,10.2,-1.33,-3.02,-0.73,-31.75,12.75,-28.69,0.94,-0.09,-0.31,0.07,1393
2477,0.61,-3.51,9.83,-1.71,-3.41,-0.83,-33.88,12.75,-28.0,0.93,-0.1,-0.35,0.06,1394
2478,0.79,-1.42,9.32,-1.82,-3.75,-0.97,-33.88,12.75,-28.0,0.93,-0.1,-0.35,0.06,1395
2479,1.03,-0.68,9.33,-1.6,-4.05,-1.12,-33.88,12.75,-28.0,0.92,-0.1,-0.37,0.06,1396
2480,1.2,-0.22,9.1,-1.15,-4.3,-1.25,-33.88,12.75,-28.0,0.91,-0.1,-0.41,0.04,1397
2481,1.06,-0.21,8.93,-0.61,-4.52,-1.34,-33.88,12.75,-28.0,0.91,-0.1,-0.41,0.04,1398
2482,0.92,-0.49,9.12,-0.11,-4.72,-1.38,-36.56,12.75,-21.69,0.89,-0.09,-0.45,0.04,1399
2483,0.96,-0.77,9.07,0.31,-4.92,-1.37,-36.56,12.75,-21.69,0.89,-0.09,-0.45,0.04,1400
2484,0.96,-0.77,9.07,0.64,-5.12,-1.38,-36.56,12.75,-21.69,0.88,-0.09,-0.47,0.04,1401
2485,1.49,-1.31,8.38,0.92,-5.27,-1.4,-36.56,12.75,-21.69,0.85,-0.07,-0.52,0.03,1402
2486,1.8,-1.47,7.73,1.07,-5.41,-1.4,-36.56,12.75,-21.69,0.85,-0.07,-0.52,0.03,1403
2487,2.47,-2.08,7.1,0.76,-5.65,-1.21,-40.69,10.25,-12.69,0.81,-0.05,-0.59,0.03,1404
2488,3.19,-2.37,8.05,0.76,-5.65,-1.21,-40.69,10.25,-12.69,0.81,-0.05,-0.59,0.03,1405
2489,3.72,-2.22,8.37,0.67,-5.7,-1.2,-40.69,10.25,-12.69,0.79,-0.04,-0.61,0.03,1406
2490,4.26,-2.06,7.95,0.58,-5.75,-1.24,-40.69,10.25,-12.69,0.76,-0.03,-0.65,0.02,1407
2491,5.03,-1.78,7.51,0.52,-5.74,-1.26,-44.0,7.0,-2.5,0.76,-0.03,-0.65,0.02,1408
2492,5.4,-1.68,7.31,0.51,-5.68,-1.25,-44.0,7.0,-2.5,0.72,-0.01,-0.69,0.02,1409
2493,5.82,-1.58,7.06,0.55,-5.59,-1.22,-44.0,7.0,-2.5,0.72,-0.01,-0.69,0.02,1410
2494,6.15,-1.49,6.86,0.63,-5.45,-1.21,-44.0,7.0,-2.5,0.7,-0.01,-0.71,0.02,1411
2495,6.88,-1.08,6.04,0.66,-5.27,-1.24,-44.0,7.0,-2.5,0.69,0.0,-0.73,0.02,1412
2496,6.88,-1.08,6.04,0.6,-5.04,-1.23,-42.5,5.19,8.19,0.67,0.01,-0.74,0.01,1413
2497,8.15,-0.3,5.5,0.41,-4.81,-1.17,-42.5,5.19,8.19,0.63,0.02,-0.77,0.01,1414
2498,8.65,0.26,5.26,0.21,-4.52,-1.09,-42.5,5.19,8.19,0.63,0.02,-0.77,0.01,1415
2499,8.65,0.26,5.26,-0.03,-4.17,-0.96,-42.5,5.19,8.19,0.62,0.02,-0.79,0.0,1416
2500,7.02,-1.43,0.25,-0.56,-3.18,-0.49,-39.06,2.69,17.56,0.58,0.02,-0.81,-0.01,1417
2501,6.45,-1.75,-1.48,-1.0,-2.44,-0.46,-39.06,2.69,17.56,0.58,0.02,-0.81,-0.01,1418
2502,6.28,1.35,-5.25,-1.47,-1.59,-0.81,-39.06,2.69,17.56,0.58,0.02,-0.82,-0.02,1419
2503,6.87,3.11,-5.94,-1.83,-0.62,-1.13,-39.06,2.69,17.56,0.57,0.02,-0.82,-0.04,1420
2504,7.88,3.93,-4.37,-1.96,0.33,-0.92,-39.06,2.69,17.56,0.57,0.02,-0.82,-0.04,1421
2505,7.77,2.25,0.44,-1.91,1.17,-0.16,-36.38,1.5,24.06,0.59,0.01,-0.81,-0.05,1422
2506,6.63,0.33,2.98,-1.75,1.84,0.66,-36.38,1.5,24.06,0.59,0.01,-0.81,-0.05,1423
2507,6.63,0.33,2.98,-1.61,2.39,1.19,-36.38,1.5,24.06,0.6,-0.0,-0.8,-0.05,1424
2508,5.37,-1.09,5.66,-1.46,2.54,1.3,-36.38,1.5,24.06,0.61,-0.02,-0.79,-0.06,1425
2509,15.32,4.42,0.01,-1.12,1.78,0.94,-36.38,1.5,24.06,0.61,-0.02,-0.79,-0.06,1426
2510,27.35,10.49,-7.31,-0.76,-0.27,-0.11,-36.25,-2.37,23.75,0.61,-0.01,-0.79,-0.07,1427
2511,33.87,15.14,-8.68,-0.73,-1.07,-1.86,-36.25,-2.37,23.75,0.61,-0.01,-0.79,-0.07,1428
2512,26.31,9.45,-8.57,-0.02,0.41,-1.64,-36.25,-2.37,23.75,0.62,-0.01,-0.78,-0.07,1429
2513,11.27,-3.59,-4.3,-0.46,2.56,1.8,-36.25,-2.37,23.75,0.62,-0.01,-0.78,-0.07,1430
2514,12.86,-0.12,-4.86,-2.0,3.72,3.91,-36.25,-2.37,23.75,0.63,-0.03,-0.77,-0.07,1431
2515,13.69,4.46,-1.27,-1.41,4.32,2.92,-36.88,-3.87,21.87,0.65,-0.05,-0.76,-0.06,1432
2516,4.15,-0.45,2.72,-0.07,3.52,1.05,-36.88,-3.87,21.87,0.66,-0.05,-0.74,-0.06,1433
2517,2.77,-2.49,4.42,0.17,2.87,1.18,-36.88,-3.87,21.87,0.68,-0.06,-0.73,-0.05,1434
2518,4.14,-4.1,5.81,0.25,2.28,1.82,-36.88,-3.87,21.87,0.68,-0.06,-0.73,-0.05,1435
2519,4.14,-4.1,5.81,0.39,1.77,1.6,-36.88,-3.87,21.87,0.69,-0.06,-0.72,-0.04,1436
2520,10.28,-5.7,6.16,0.73,1.6,0.92,-39.5,-1.0,15.56,0.7,-0.06,-0.71,-0.04,1437
2521,10.28,-5.7,6.16,0.81,1.51,0.43,-39.5,-1.0,15.56,0.7,-0.06,-0.71,-0.04,1438
2522,8.81,-6.18,6.25,0.77,1.45,0.39,-39.5,-1.0,15.56,0.71,-0.06,-0.7,-0.03,1439
2523,7.74,-5.82,6.75,0.6,1.32,0.51,-39.5,-1.0,15.56,0.71,-0.06,-0.7,-0.03,1440
2524,7.74,-5.82,6.75,0.25,1.11,0.4,-39.5,-1.0,15.56,0.72,-0.06,-0.7,-0.03,1441
2525,11.19,-2.16,5.99,-0.16,0.96,0.22,-40.69,2.19,12.06,0.72,-0.06,-0.69,-0.03,1442
2526,11.19,-2.16,5.99,-0.48,0.93,0.16,-40.69,2.19,12.06,0.72,-0.06,-0.69,-0.03,1443
2527,10.43,0.51,4.96,-0.72,0.92,0.17,-40.69,2.19,12.06,0.72,-0.07,-0.69,-0.03,1444
2528,9.52,1.45,4.17,-0.8,0.87,0.15,-40.69,2.19,12.06,0.73,-0.07,-0.68,-0.03,1445
2529,8.89,1.95,3.39,-0.6,0.79,0.18,-40.69,2.19,12.06,0.73,-0.07,-0.68,-0.03,1446
2530,8.73,2.17,2.58,-0.16,0.7,0.29,-43.19,1.69,10.06,0.73,-0.07,-0.68,-0.03,1447
2531,9.52,1.56,1.14,0.38,0.64,0.35,-43.19,1.69,10.06,0.74,-0.07,-0.67,-0.03,1448
2532,9.68,0.33,0.54,0.87,0.6,0.33,-43.19,1.69,10.06,0.74,-0.07,-0.67,-0.03,1449
2533,9.55,-0.95,-0.33,1.14,0.58,0.31,-43.19,1.69,10.06,0.74,-0.07,-0.67,-0.02,1450
2534,9.37,-1.81,-1.18,1.14,0.6,0.31,-43.19,1.69,10.06,0.74,-0.06,-0.67,-0.02,1451
2535,9.58,-2.07,-2.17,0.96,0.63,0.29,-42.5,2.5,8.88,0.74,-0.06,-0.67,-0.01,1452
2536,9.8,-1.43,-2.39,0.71,0.68,0.25,-42.5,2.5,8.88,0.75,-0.06,-0.66,-0.01,1453
2537,9.91,-0.59,-2.3,0.51,0.72,0.2,-42.5,2.5,8.88,0.75,-0.06,-0.66,-0.01,1454
2538,9.91,-0.59,-2.3,0.44,0.72,0.19,-42.5,2.5,8.88,0.75,-0.06,-0.66,-0.01,1455
2539,9.57,0.69,-1.8,0.47,0.76,0.23,-42.5,2.5,8.88,0.75,-0.06,-0.66,-0.01,1456
2540,9.57,0.69,-1.8,0.47,0.76,0.23,-42.06,4.0,7.37,0.76,-0.06,-0.65,-0.0,1457
2541,9.43,-0.75,-0.75,0.57,1.0,0.47,-42.06,4.0,7.37,0.76,-0.05,-0.65,0.0,1458
2542,9.59,-1.6,0.76,0.55,1.13,0.48,-42.06,4.0,7.37,0.76,-0.05,-0.64,0.0,1459
2543,9.55,-1.57,1.4,0.49,1.22,0.41,-42.06,4.0,7.37,0.77,-0.05,-0.63,0.01,1460
2544,9.15,-1.37,2.61,0.36,1.27,0.33,-42.5,4.69,6.19,0.77,-0.05,-0.63,0.01,1461
2545,9.13,-0.92,3.65,0.28,1.27,0.3,-42.5,4.69,6.19,0.78,-0.05,-0.62,0.01,1462
2546,9.18,-0.39,3.74,0.2,1.26,0.25,-42.5,4.69,6.19,0.79,-0.05,-0.62,0.02,1463
2547,9.17,0.0,3.66,0.18,1.23,0.25,-42.5,4.69,6.19,0.79,-0.05,-0.62,0.02,1464
2548,9.17,0.0,3.66,0.26,1.19,0.27,-42.5,4.69,6.19,0.79,-0.05,-0.61,0.02,1465
2549,9.24,-0.95,2.74,0.32,1.18,0.3,-42.75,5.06,2.25,0.79,-0.05,-0.61,0.02,1466
2550,9.24,-0.95,2.74,0.28,1.2,0.31,-42.75,5.06,2.25,0.8,-0.05,-0.6,0.02,1467
2551,9.28,-1.78,2.12,0.21,1.23,0.29,-42.75,5.06,2.25,0.8,-0.05,-0.6,0.02,1468
2552,9.45,-1.52,1.66,0.17,1.25,0.25,-42.75,5.06,2.25,0.8,-0.05,-0.59,0.02,1469
2553,9.45,-1.52,1.66,0.17,1.25,0.25,-42.75,5.06,2.25,0.81,-0.05,-0.59,0.02,1470
2554,9.71,-1.65,1.04,0.2,1.25,0.23,-40.69,4.69,-0.06,0.81,-0.05,-0.58,0.03,1471
2555,9.71,-1.65,1.04,0.2,1.25,0.23,-40.69,4.69,-0.06,0.82,-0.05,-0.58,0.03,1472
2556,9.61,-1.78,0.21,0.23,1.39,0.31,-40.69,4.69,-0.06,0.82,-0.05,-0.57,0.03,1473
2557,9.49,-1.73,0.2,0.29,1.49,0.29,-40.69,4.69,-0.06,0.82,-0.05,-0.56,0.03,1474
2558,9.39,-1.62,0.48,0.35,1.62,0.28,-40.69,4.69,-0.06,0.83,-0.05,-0.56,0.03,1475
2559,9.42,-1.54,0.87,0.38,1.73,0.28,-42.5,5.87,-2.37,0.83,-0.05,-0.55,0.03,1476
2560,10.07,-0.95,1.52,0.43,1.82,0.3,-42.5,5.87,-2.37,0.84,-0.05,-0.54,0.04,1477
2561,10.41,-0.77,1.76,0.51,1.9,0.3,-42.5,5.87,-2.37,0.84,-0.05,-0.54,0.04,1478
2562,10.59,-0.71,1.81,0.55,1.99,0.32,-42.5,5.87,-2.37,0.85,-0.05,-0.53,0.04,1479
2563,10.57,0.39,2.08,0.56,2.1,0.3,-42.5,5.87,-2.37,0.85,-0.05,-0.52,0.04,1480
2564,10.57,0.39,2.08,0.52,2.16,0.21,-41.25,5.19,-6.25,0.86,-0.05,-0.51,0.04,1481
2565,10.34,1.63,1.92,0.44,2.21,0.14,-41.25,5.19,-6.25,0.87,-0.05,-0.49,0.04,1482
2566,10.44,2.06,1.78,0.34,2.26,0.13,-41.25,5.19,-6.25,0.87,-0.05,-0.49,0.04,1483
2567,10.44,2.06,1.78,0.25,2.32,0.16,-41.25,5.19,-6.25,0.87,-0.05,-0.48,0.05,1484
2568,11.55,2.39,0.9,0.19,2.41,0.2,-41.25,5.19,-6.25,0.88,-0.05,-0.47,0.05,1485
2569,11.55,2.39,0.9,0.19,2.41,0.2,-41.25,5.19,-6.25,0.89,-0.05,-0.46,0.05,1486
2570,12.23,3.21,-0.47,0.23,2.64,0.32,-39.19,6.69,-11.0,0.89,-0.05,-0.45,0.05,1487
2571,13.05,3.97,-2.53,0.39,2.76,0.42,-39.19,6.69,-11.0,0.9,-0.05,-0.44,0.05,1488
2572,13.96,2.99,-3.8,0.69,2.87,0.66,-39.19,6.69,-11.0,0.91,-0.04,-0.41,0.06,1489
2573,15.2,2.28,-4.01,0.96,3.05,0.88,-39.19,6.69,-11.0,0.91,-0.04,-0.41,0.06,1490
2574,19.06,2.54,-4.81,1.02,3.26,0.91,-38.75,6.25,-16.06,0.92,-0.04,-0.38,0.07,1491
2575,21.0,2.63,-6.12,0.91,3.33,0.96,-38.75,6.25,-16.06,0.92,-0.04,-0.38,0.07,1492
2576,21.0,2.63,-6.12,0.92,3.49,1.12,-38.75,6.25,-16.06,0.93,-0.04,-0.36,0.08,1493
2577,17.9,-2.6,-2.04,1.37,3.74,1.31,-38.75,6.25,-16.06,0.94,-0.03,-0.33,0.09,1494
2578,15.5,-7.4,5.38,1.66,3.74,1.22,-38.75,6.25,-16.06,0.94,-0.03,-0.33,0.09,1495
2579,15.37,-8.85,9.78,1.58,3.66,0.92,-35.5,7.06,-23.56,0.95,-0.03,-0.31,0.1,1496
2580,15.06,-9.22,11.75,1.31,3.36,0.58,-35.5,7.06,-23.56,0.95,-0.03,-0.29,0.1,1497
2581,14.27,-8.94,12.71,0.38,2.39,0.03,-35.5,7.06,-23.56,0.96,-0.02,-0.27,0.1,1498
2582,11.58,-6.75,13.84,0.38,2.39,0.03,-35.5,7.06,-23.56,0.96,-0.02,-0.27,0.1,1499
2583,9.77,-5.76,13.44,-0.45,1.86,-0.19,-35.5,7.06,-23.56,0.96,-0.03,-0.26,0.1,1500
2584,8.12,-4.9,12.69,-1.17,1.42,-0.28,-31.0,7.56,-29.37,0.96,-0.03,-0.25,0.1,1501
2585,6.54,-3.52,14.1,-1.45,1.13,-0.34,-31.0,7.56,-29.37,0.96,-0.04,-0.25,0.1,1502
2586,3.55,-4.07,13.97,-1.11,0.7,-0.36,-31.0,7.56,-29.37,0.96,-0.05,-0.25,0.09,1503
2587,2.61,-1.98,9.86,-1.04,-0.38,-0.25,-31.0,7.56,-29.37,0.96,-0.05,-0.25,0.09,1504
2588,2.61,-1.98,9.86,-1.04,-0.38,-0.25,-31.0,7.56,-29.37,0.96,-0.05,-0.25,0.09,1505
2589,3.04,-0.94,9.34,-0.68,-1.31,-0.38,-28.87,7.37,-30.56,0.96,-0.06,-0.26,0.08,1506
2590,3.04,-0.94,9.34,-0.51,-1.73,-0.38,-28.87,7.37,-30.56,0.96,-0.06,-0.27,0.08,1507
2591,2.72,-2.04,9.54,-0.5,-2.14,-0.42,-28.87,7.37,-30.56,0.95,-0.06,-0.29,0.08,1508
2592,1.58,-3.22,9.57,-0.7,-2.53,-0.52,-28.87,7.37,-30.56,0.95,-0.06,-0.29,0.08,1509
2593,1.02,-3.38,9.61,-1.16,-2.93,-0.61,-29.19,7.37,-29.75,0.95,-0.07,-0.3,0.07,1510
2594,0.84,-3.03,9.53,-1.68,-3.33,-0.69,-29.19,7.37,-29.75,0.94,-0.07,-0.32,0.07,1511
2595,1.09,-2.38,9.46,-2.03,-3.71,-0.82,-29.19,7.37,-29.75,0.93,-0.08,-0.36,0.06,1512
2596,2.17,-1.15,9.59,-2.09,-4.05,-0.97,-29.19,7.37,-29.75,0.93,-0.08,-0.36,0.06,1513
2597,2.61,-0.97,8.89,-1.95,-4.33,-1.08,-29.19,7.37,-29.75,0.92,-0.09,-0.38,0.05,1514
2598,2.66,-1.02,8.7,-1.65,-4.55,-1.17,-30.25,8.38,-27.06,0.91,-0.09,-0.4,0.04,1515
2599,2.0,-1.34,8.8,-1.29,-4.75,-1.27,-30.25,8.38,-27.06,0.9,-0.1,-0.42,0.04,1516
2600,1.74,-1.09,8.73,0.25,-5.27,-1.51,-30.25,8.38,-27.06,0.87,-0.09,-0.49,0.02,1517
2601,2.04,-0.58,8.39,0.25,-5.27,-1.51,-30.25,8.38,-27.06,0.87,-0.09,-0.49,0.02,1518
2602,2.99,-0.74,7.5,0.93,-5.39,-1.55,-36.38,9.06,-18.87,0.84,-0.07,-0.53,0.02,1519
2603,3.47,-1.45,7.24,1.43,-5.51,-1.51,-36.38,9.06,-18.87,0.84,-0.07,-0.53,0.02,1520
2604,3.97,-2.46,7.36,1.68,-5.59,-1.35,-36.38,9.06,-18.87,0.83,-0.06,-0.56,0.02,1521
2605,4.48,-3.34,7.58,1.7,-5.67,-1.16,-36.38,9.06,-18.87,0.8,-0.04,-0.6,0.03,1522
2606,5.49,-3.58,7.71,1.58,-5.74,-1.08,-36.38,9.06,-18.87,0.8,-0.04,-0.6,0.03,1523
2607,5.88,-3.33,7.12,1.38,-5.78,-1.1,-41.88,7.19,-8.69,0.76,-0.02,-0.65,0.03,1524
2608,6.11,-3.21,6.56,1.38,-5.78,-1.1,-41.88,7.19,-8.69,0.76,-0.02,-0.65,0.03,1525
2609,6.11,-3.21,6.56,1.14,-5.78,-1.11,-41.88,7.19,-8.69,0.74,-0.01,-0.67,0.03,1526
2610,6.96,-2.64,6.72,0.57,-5.66,-0.99,-41.88,7.19,-8.69,0.71,-0.0,-0.71,0.02,1527
2611,7.42,-1.9,6.58,0.41,-5.54,-0.99,-41.88,7.19,-8.69,0.71,-0.0,-0.71,0.02,1528
2612,7.57,-0.98,6.28,0.37,-5.37,-1.05,-43.75,4.19,2.56,0.67,0.01,-0.74,0.02,1529
2613,7.46,0.29,4.99,0.37,-5.37,-1.05,-43.75,4.19,2.56,0.67,0.01,-0.74,0.02,1530
2614,7.46,0.29,4.99,0.37,-5.37,-1.05,-43.75,4.19,2.56,0.65,0.02,-0.76,0.02,1531
2615,7.92,0.88,4.02,0.33,-4.91,-0.91,-43.75,4.19,2.56,0.63,0.02,-0.77,0.01,1532
2616,8.45,0.87,3.35,0.32,-4.62,-0.68,-43.75,4.19,2.56,0.62,0.02,-0.79,0.01,1533
2617,8.22,-0.1,3.27,0.27,-3.84,-0.22,-41.75,2.25,14.69,0.6,0.03,-0.8,0.01,1534
2618,7.3,-1.82,1.0,0.27,-3.84,-0.22,-41.75,2.25,14.69,0.59,0.03,-0.81,0.01,1535
2619,6.91,-3.02,-1.68,0.26,-3.34,-0.05,-41.75,2.25,14.69,0.56,0.03,-0.83,0.01,1536
2620,6.2,-1.27,-4.26,-0.06,-2.76,0.03,-41.75,2.25,14.69,0.56,0.03,-0.83,0.01,1537
2621,6.2,-1.27,-4.26,-0.59,-2.03,-0.26,-41.75,2.25,14.69,0.55,0.03,-0.83,0.01,1538
2622,6.81,1.71,-5.07,-1.12,-1.2,-0.64,-38.5,1.75,22.37,0.55,0.03,-0.84,0.0,1539
2623,6.81,1.71,-5.07,-1.51,-0.34,-0.63,-38.5,1.75,22.37,0.55,0.03,-0.84,-0.0,1540
2624,6.55,0.02,1.19,-1.75,0.47,-0.14,-38.5,1.75,22.37,0.56,0.02,-0.83,-0.02,1541
2625,5.75,-1.27,2.37,-1.84,1.21,0.46,-38.5,1.75,22.37,0.56,0.02,-0.83,-0.02,1542
2626,5.02,-2.37,3.66,-1.93,1.81,0.91,-38.06,-0.37,24.37,0.57,-0.0,-0.82,-0.03,1543
2627,4.53,-3.16,4.89,-2.64,2.65,1.38,-38.06,-0.37,24.37,0.57,-0.0,-0.82,-0.03,1544
2628,9.04,-1.02,3.01,-2.64,2.65,1.38,-38.06,-0.37,24.37,0.59,-0.03,-0.8,-0.04,1545
2629,18.33,2.57,-1.32,-2.97,2.64,1.31,-38.06,-0.37,24.37,0.59,-0.03,-0.8,-0.04,1546
2630,30.28,9.59,-6.37,-3.04,0.94,0.53,-38.06,-0.37,24.37,0.6,-0.04,-0.8,-0.06,1547
2631,37.26,16.37,-5.41,-3.74,-1.19,-1.48,-38.06,-0.37,24.37,0.59,-0.05,-0.8,-0.07,1548
2632,15.41,4.5,-0.71,-3.52,-0.37,-3.35,-40.19,-1.5,20.75,0.59,-0.04,-0.8,-0.1,1549
2633,12.85,8.61,0.96,-3.28,2.37,-0.57,-40.19,-1.5,20.75,0.61,-0.07,-0.78,-0.12,1550
2634,10.23,13.53,1.58,-4.14,4.07,4.01,-40.19,-1.5,20.75,0.61,-0.07,-0.78,-0.12,1551
2635,10.23,13.53,1.58,-3.12,2.91,3.92,-40.19,-1.5,20.75,0.62,-0.1,-0.77,-0.12,1552
2636,2.01,-4.08,5.09,-0.47,2.57,2.26,-40.19,-1.5,20.75,0.63,-0.11,-0.76,-0.11,1553
2637,2.01,-4.08,5.09,1.43,2.37,1.32,-42.38,-4.87,17.56,0.65,-0.1,-0.75,-0.11,1554
2638,8.76,-8.87,8.72,2.23,2.03,1.4,-42.38,-4.87,17.56,0.66,-0.1,-0.74,-0.08,1555
2639,12.33,-9.61,6.94,2.14,1.71,1.32,-42.38,-4.87,17.56,0.66,-0.1,-0.74,-0.08,1556
2640,12.09,-9.97,6.05,1.26,1.52,0.42,-42.38,-4.87,17.56,0.67,-0.09,-0.73,-0.07,1557
2641,10.74,-9.16,5.23,1.26,1.52,0.42,-42.38,-4.87,17.56,0.67,-0.09,-0.73,-0.07,1558
2642,8.87,-7.18,4.86,0.43,1.46,0.2,-43.38,0.0,12.37,0.68,-0.09,-0.72,-0.07,1559
2643,9.35,-0.49,4.48,-1.33,1.22,0.36,-43.38,0.0,12.37,0.69,-0.1,-0.71,-0.08,1560
2644,10.5,0.63,3.95,-1.58,1.06,0.22,-43.38,0.0,12.37,0.69,-0.1,-0.71,-0.08,1561
2645,10.5,0.63,3.95,-1.53,0.95,0.07,-43.38,0.0,12.37,0.69,-0.11,-0.71,-0.09,1562
2646,10.14,2.14,2.99,-1.38,0.93,0.07,-44.88,0.75,8.69,0.7,-0.11,-0.7,-0.09,1563
2647,10.14,2.14,2.99,-1.38,0.93,0.07,-44.88,0.75,8.69,0.7,-0.12,-0.7,-0.09,1564
2648,9.21,1.97,1.89,-0.84,0.88,0.34,-44.88,0.75,8.69,0.7,-0.12,-0.7,-0.1,1565
2649,8.67,0.13,1.08,-0.29,0.83,0.45,-44.88,0.75,8.69,0.7,-0.12,-0.69,-0.1,1566
2650,8.82,-1.04,0.89,0.32,0.78,0.49,-44.88,0.75,8.69,0.71,-0.12,-0.69,-0.09,1567
2651,9.01,-1.98,0.78,0.75,0.71,0.48,-44.88,1.0,7.5,0.71,-0.12,-0.69,-0.09,1568
2652,9.07,-2.66,0.58,0.9,0.65,0.44,-44.88,1.0,7.5,0.72,-0.12,-0.68,-0.08,1569
2653,9.26,-2.74,0.46,0.8,0.6,0.4,-44.88,1.0,7.5,0.72,-0.12,-0.68,-0.08,1570
2654,9.65,-2.01,0.44,0.57,0.57,0.37,-44.88,1.0,7.5,0.72,-0.12,-0.68,-0.08,1571
2655,9.95,-1.12,0.17,0.31,0.53,0.31,-44.88,1.0,7.5,0.72,-0.12,-0.68,-0.08,1572
2656,9.89,-0.04,-0.3,0.13,0.5,0.25,-44.5,1.69,4.69,0.72,-0.12,-0.68,-0.08,1573
2657,9.82,0.19,-0.39,0.06,0.53,0.27,-44.5,1.69,4.69,0.73,-0.12,-0.67,-0.07,1574
2658,9.79,0.21,-0.42,0.09,0.59,0.31,-44.5,1.69,4.69,0.73,-0.12,-0.67,-0.07,1575
2659,9.79,0.21,-0.42,0.15,0.67,0.36,-44.5,1.69,4.69,0.73,-0.12,-0.67,-0.07,1576
2660,9.41,-0.64,0.15,0.22,0.79,0.4,-44.5,1.69,4.69,0.73,-0.12,-0.67,-0.07,1577
2661,9.41,-0.64,0.15,0.28,0.9,0.46,-44.5,2.56,5.5,0.73,-0.12,-0.66,-0.07,1578
2662,9.38,-1.23,0.61,0.32,0.99,0.48,-44.5,2.56,5.5,0.74,-0.12,-0.66,-0.07,1579
2663,9.38,-1.28,0.82,0.32,1.03,0.46,-44.5,2.56,5.5,0.74,-0.12,-0.66,-0.07,1580
2664,9.32,-0.79,1.31,0.2,1.14,0.41,-44.5,2.56,5.5,0.75,-0.12,-0.65,-0.06,1581
2665,9.28,-0.4,1.51,0.2,1.14,0.41,-44.5,2.56,5.5,0.75,-0.12,-0.65,-0.06,1582
2666,9.3,-0.09,1.84,0.18,1.2,0.42,-44.88,3.37,2.69,0.76,-0.12,-0.64,-0.06,1583
2667,9.36,0.02,2.17,0.25,1.25,0.44,-44.88,3.37,2.69,0.76,-0.12,-0.64,-0.06,1584
2668,9.55,-0.25,2.69,0.38,1.29,0.48,-44.88,3.37,2.69,0.76,-0.12,-0.63,-0.06,1585
2669,9.58,-0.41,2.91,0.52,1.32,0.52,-44.88,3.37,2.69,0.77,-0.12,-0.62,-0.05,1586
2670,9.55,-0.48,2.99,0.66,1.34,0.54,-44.88,3.37,2.69,0.77,-0.12,-0.62,-0.05,1587
2671,9.39,-0.38,2.87,0.77,1.34,0.54,-45.56,4.56,0.0,0.78,-0.11,-0.61,-0.04,1588
2672,9.36,-0.32,2.63,0.86,1.35,0.53,-45.56,4.56,0.0,0.78,-0.11,-0.61,-0.04,1589
2673,9.36,-0.32,2.63,0.93,1.37,0.55,-45.56,4.56,0.0,0.78,-0.11,-0.61,-0.04,1590
2674,9.38,-0.67,2.45,1.04,1.41,0.57,-45.56,4.56,0.0,0.79,-0.11,-0.6,-0.03,1591
2675,9.36,-1.3,2.51,1.14,1.47,0.58,-45.56,4.56,0.0,0.79,-0.11,-0.6,-0.03,1592
2676,9.42,-1.41,2.34,1.17,1.53,0.58,-45.56,6.0,-3.06,0.62,-0.44,-0.41,-0.5,1593
2677,9.58,-1.5,2.2,1.18,1.55,0.57,-45.56,6.0,-3.06,0.63,-0.43,-0.41,-0.5,1594
2678,9.74,-1.74,2.04,1.22,1.57,0.55,-45.56,6.0,-3.06,0.65,-0.42,-0.4,-0.5,1595
2679,9.88,-1.99,1.96,1.25,1.61,0.54,-45.56,6.0,-3.06,0.65,-0.42,-0.4,-0.5,1596
2680,9.95,-1.49,2.01,1.24,1.65,0.55,-45.56,6.0,-3.06,0.65,-0.41,-0.4,-0.5,1597
2681,9.94,-1.04,1.85,1.26,1.7,0.54,-45.56,7.06,-7.37,0.66,-0.4,-0.4,-0.49,1598
2682,9.94,-1.04,1.85,1.3,1.77,0.51,-45.56,7.06,-7.37,0.67,-0.4,-0.39,-0.49,1599
2683,9.95,-0.21,2.08,1.36,1.9,0.51,-45.56,7.06,-7.37,0.68,-0.38,-0.38,-0.49,1600
2684,10.03,-0.32,2.15,1.42,1.99,0.51,-45.56,7.06,-7.37,0.68,-0.38,-0.38,-0.49,1601
2685,10.03,-0.32,2.15,1.38,2.05,0.48,-45.56,7.06,-7.37,0.69,-0.37,-0.38,-0.49,1602
2686,10.28,0.46,2.43,1.23,2.12,0.45,-44.06,7.75,-11.25,0.7,-0.36,-0.37,-0.49,1603
2687,10.34,0.92,2.11,0.86,2.19,0.38,-44.06,7.75,-11.25,0.71,-0.35,-0.36,-0.49,1604
2688,10.45,1.31,1.63,0.86,2.19,0.38,-44.06,7.75,-11.25,0.71,-0.35,-0.36,-0.49,1605
2689,10.69,1.57,1.14,0.77,2.22,0.41,-44.06,7.75,-11.25,0.72,-0.34,-0.36,-0.49,1606
2690,11.41,2.22,-0.28,0.77,2.24,0.46,-44.06,7.75,-11.25,0.72,-0.33,-0.35,-0.5,1607
2691,12.0,2.36,-1.47,0.82,2.28,0.5,-43.06,7.75,-16.0,0.73,-0.33,-0.34,-0.5,1608
2692,12.92,1.43,-3.26,0.91,2.34,0.56,-43.06,7.75,-16.0,0.74,-0.31,-0.33,-0.5,1609
2693,16.21,0.41,-4.89,1.05,2.46,0.75,-43.06,7.75,-16.0,0.74,-0.31,-0.33,-0.5,1610
2694,18.39,1.54,-3.61,1.09,2.71,0.86,-43.06,7.75,-16.0,0.75,-0.3,-0.32,-0.49,1611
2695,20.13,2.76,-3.43,0.96,2.95,0.73,-43.06,7.75,-16.0,0.76,-0.29,-0.31,-0.5,1612
2696,20.13,2.76,-3.43,0.56,3.09,0.69,-39.38,8.25,-22.19,0.76,-0.28,-0.3,-0.5,1613
2697,15.62,-0.43,-0.45,0.27,3.14,1.03,-39.38,8.25,-22.19,0.78,-0.27,-0.27,-0.49,1614
2698,13.29,-2.26,0.56,0.34,3.21,1.35,-39.38,8.25,-22.19,0.78,-0.27,-0.27,-0.49,1615
2699,12.18,-2.99,4.76,0.44,3.45,0.99,-39.38,8.25,-22.19,0.8,-0.25,-0.25,-0.49,1616
2700,13.15,-6.15,12.54,0.71,3.3,0.79,-33.75,9.56,-27.69,0.81,-0.23,-0.23,-0.49,1617
2701,13.04,-6.26,13.25,1.19,2.92,0.69,-33.75,9.56,-27.69,0.81,-0.23,-0.23,-0.49,1618
2702,11.95,-5.77,13.43,1.29,2.42,0.56,-33.75,9.56,-27.69,0.81,-0.22,-0.22,-0.49,1619
2703,10.11,-5.34,12.81,0.93,1.9,0.32,-33.75,9.56,-27.69,0.82,-0.21,-0.21,-0.49,1620
2704,6.59,-4.33,13.77,0.34,1.44,0.1,-33.75,9.56,-27.69,0.82,-0.21,-0.21,-0.49,1621
2705,5.09,-4.66,13.51,-0.2,1.14,0.02,-28.87,10.19,-33.06,0.82,-0.21,-0.2,-0.49,1622
2706,4.03,-4.95,11.98,-0.42,0.8,-0.0,-28.87,10.19,-33.06,0.82,-0.21,-0.2,-0.49,1623
2707,3.17,-3.62,9.5,-0.54,0.36,-0.02,-28.87,10.19,-33.06,0.82,-0.21,-0.2,-0.5,1624
2708,3.67,-2.74,9.0,-0.61,-0.12,-0.07,-28.87,10.19,-33.06,0.82,-0.21,-0.2,-0.5,1625
2709,4.42,-2.42,8.98,-0.67,-0.59,-0.17,-28.87,10.19,-33.06,0.82,-0.21,-0.2,-0.5,1626
2710,4.89,-2.73,9.15,-0.69,-1.03,-0.28,-25.69,11.06,-35.5,0.82,-0.22,-0.2,-0.5,1627
2711,4.67,-3.86,8.84,-0.59,-1.44,-0.32,-25.69,11.06,-35.5,0.81,-0.22,-0.2,-0.5,1628
2712,3.95,-4.41,8.86,-0.59,-1.82,-0.41,-25.69,11.06,-35.5,0.8,-0.24,-0.22,-0.5,1629
2713,3.23,-4.67,9.07,-0.78,-2.2,-0.53,-25.69,11.06,-35.5,0.8,-0.24,-0.22,-0.5,1630
2714,2.89,-4.4,9.3,-1.19,-2.59,-0.63,-25.69,11.06,-35.5,0.8,-0.25,-0.22,-0.5,1631
2715,3.06,-3.2,9.0,-1.62,-2.94,-0.72,-27.5,13.06,-33.88,0.79,-0.26,-0.23,-0.5,1632
2716,3.06,-3.2,9.0,-1.86,-3.25,-0.88,-27.5,13.06,-33.88,0.78,-0.28,-0.24,-0.5,1633
2717,3.52,-1.69,8.17,-1.84,-3.51,-1.07,-27.5,13.06,-33.88,0.76,-0.3,-0.26,-0.5,1634
2718,3.71,-1.0,8.23,-1.6,-3.73,-1.25,-27.5,13.06,-33.88,0.76,-0.3,-0.26,-0.5,1635
2719,3.7,-1.02,8.23,-1.17,-3.93,-1.34,-33.56,16.06,-28.5,0.74,-0.33,-0.29,-0.5,1636
2720,3.57,-1.18,8.5,-0.68,-4.12,-1.34,-33.56,16.06,-28.5,0.74,-0.33,-0.29,-0.5,1637
2721,3.41,-1.42,8.64,0.32,-4.45,-1.33,-33.56,16.06,-28.5,0.72,-0.34,-0.33,-0.5,1638
2722,3.45,-2.13,7.82,0.32,-4.45,-1.33,-33.56,16.06,-28.5,0.72,-0.34,-0.33,-0.5,1639
2723,3.46,-2.46,8.1,0.63,-4.62,-1.36,-33.56,16.06,-28.5,0.71,-0.35,-0.35,-0.5,1640
2724,3.62,-2.82,7.93,0.81,-4.77,-1.37,-33.56,16.06,-28.5,0.7,-0.36,-0.37,-0.49,1641
2725,3.94,-2.98,7.98,0.83,-4.91,-1.33,-39.88,15.25,-21.75,0.69,-0.36,-0.39,-0.49,1642
2726,4.96,-2.62,7.42,0.77,-5.03,-1.28,-39.88,15.25,-21.75,0.67,-0.38,-0.43,-0.47,1643
2727,5.39,-2.37,6.82,0.68,-5.12,-1.26,-39.88,15.25,-21.75,0.67,-0.38,-0.43,-0.47,1644
2728,5.67,-2.05,6.51,0.59,-5.19,-1.26,-39.88,15.25,-21.75,0.66,-0.38,-0.45,-0.47,1645
2729,6.2,-1.81,6.45,0.55,-5.19,-1.28,-39.88,15.25,-21.75,0.64,-0.39,-0.47,-0.46,1646
2730,6.2,-1.81,6.45,0.48,-5.18,-1.27,-45.75,12.19,-10.88,0.63,-0.4,-0.49,-0.45,1647
2731,6.96,-1.44,6.5,0.38,-5.14,-1.18,-45.75,12.19,-10.88,0.6,-0.41,-0.53,-0.44,1648
2732,7.28,-1.21,6.47,0.24,-5.1,-1.07,-45.75,12.19,-10.88,0.6,-0.41,-0.53,-0.44,1649
2733,7.34,-0.96,6.17,0.16,-4.92,-0.98,-45.75,12.19,-10.88,0.57,-0.43,-0.56,-0.42,1650
2734,7.18,-0.79,5.99,0.16,-4.92,-0.98,-45.75,12.19,-10.88,0.57,-0.43,-0.56,-0.42,1651
2735,6.99,-0.52,5.89,0.22,-4.79,-0.93,-49.19,10.38,0.75,0.54,-0.44,-0.59,-0.41,1652
2736,6.91,-0.16,5.53,0.35,-4.65,-0.88,-49.19,10.38,0.75,0.54,-0.44,-0.59,-0.41,1653
2737,7.04,0.32,4.32,0.51,-4.51,-0.82,-49.19,10.38,0.75,0.53,-0.44,-0.61,-0.4,1654
2738,7.2,0.4,3.79,0.63,-4.31,-0.72,-49.19,10.38,0.75,0.5,-0.45,-0.63,-0.38,1655
2739,7.49,0.5,3.51,0.68,-4.04,-0.55,-49.19,10.38,0.75,0.5,-0.45,-0.63,-0.38,1656
2740,8.22,0.43,2.75,0.73,-3.71,-0.33,-47.25,8.38,12.06,0.49,-0.46,-0.65,-0.36,1657
2741,8.05,0.0,3.12,0.8,-3.36,-0.15,-47.25,8.38,12.06,0.49,-0.46,-0.65,-0.36,1658
2742,6.99,-2.48,-1.02,0.68,-2.07,0.09,-47.25,8.38,12.06,0.47,-0.47,-0.67,-0.33,1659
2743,6.99,-2.48,-1.02,0.68,-2.07,0.09,-47.25,8.38,12.06,0.47,-0.47,-0.67,-0.33,1660
2744,7.18,-2.32,-1.26,-0.34,-0.99,-0.12,-44.06,8.0,19.37,0.46,-0.47,-0.68,-0.33,1661
2745,7.61,-1.76,-1.01,-0.34,-0.99,-0.12,-44.06,8.0,19.37,0.46,-0.47,-0.68,-0.33,1662
2746,7.99,-1.21,-0.59,-0.92,-0.4,-0.27,-44.06,8.0,19.37,0.45,-0.47,-0.68,-0.33,1663
2747,7.39,-0.99,1.53,-1.49,0.16,-0.18,-44.06,8.0,19.37,0.45,-0.48,-0.67,-0.34,1664
2748,6.59,-1.19,2.79,-2.0,0.69,0.07,-44.06,8.0,19.37,0.45,-0.48,-0.67,-0.34,1665
2749,6.05,-1.27,3.4,-2.42,1.15,0.32,-41.06,8.0,23.69,0.45,-0.49,-0.66,-0.37,1666
2750,5.84,-1.37,4.32,-2.81,1.46,0.51,-41.06,8.0,23.69,0.45,-0.49,-0.66,-0.37,1667
2751,7.4,-0.45,4.83,-3.09,1.67,0.64,-41.06,8.0,23.69,0.45,-0.49,-0.64,-0.38,1668
2752,12.12,1.31,1.65,-3.24,1.61,0.56,-41.06,8.0,23.69,0.44,-0.51,-0.63,-0.4,1669
2753,20.86,5.81,-2.46,-3.44,0.69,0.12,-41.06,8.0,23.69,0.44,-0.51,-0.63,-0.4,1670
2754,26.2,18.09,-6.36,-3.95,-0.81,-1.05,-43.25,5.25,22.19,0.4,-0.51,-0.62,-0.43,1671
2755,14.76,14.24,-5.41,-3.95,-1.02,-3.03,-43.25,5.25,22.19,0.4,-0.51,-0.62,-0.43,1672
2756,13.03,12.74,-2.42,-2.28,1.5,1.02,-43.25,5.25,22.19,0.39,-0.51,-0.61,-0.45,1673
2757,16.03,15.6,-2.38,-2.28,1.5,1.02,-43.25,5.25,22.19,0.39,-0.51,-0.61,-0.45,1674
2758,8.43,7.06,-1.82,-1.5,1.91,2.79,-43.25,5.25,22.19,0.4,-0.52,-0.6,-0.46,1675
2759,5.36,-0.59,-0.35,0.2,2.2,2.46,-42.88,-0.25,23.25,0.41,-0.52,-0.59,-0.46,1676
2760,4.86,-6.7,-0.02,1.37,2.65,2.36,-42.88,-0.25,23.25,0.43,-0.52,-0.58,-0.45,1677
2761,6.37,-10.48,1.26,1.69,3.18,2.71,-42.88,-0.25,23.25,0.47,-0.51,-0.56,-0.45,1678
2762,10.6,-10.51,2.09,1.41,3.49,2.63,-42.88,-0.25,23.25,0.47,-0.51,-0.56,-0.45,1679
2763,10.59,-8.83,0.18,0.8,3.03,1.67,-42.88,-0.25,23.25,0.48,-0.51,-0.55,-0.45,1680
2764,9.32,-7.34,-1.04,0.12,2.39,0.49,-45.88,3.25,19.0,0.49,-0.51,-0.54,-0.46,1681
2765,9.32,-7.34,-1.04,-0.33,2.22,0.03,-45.88,3.25,19.0,0.49,-0.5,-0.54,-0.46,1682
2766,8.02,-1.92,4.26,-0.49,2.16,0.24,-45.88,3.25,19.0,0.5,-0.5,-0.52,-0.47,1683
2767,8.42,-1.07,4.15,-0.47,1.85,0.5,-45.88,3.25,19.0,0.5,-0.5,-0.52,-0.47,1684
2768,8.42,-1.07,4.15,-0.34,1.54,0.62,-45.88,3.25,19.0,0.51,-0.5,-0.52,-0.48,1685
2769,9.82,-1.49,4.45,-0.13,1.37,0.62,-47.06,5.75,13.88,0.51,-0.49,-0.51,-0.48,1686
2770,9.82,-1.49,4.45,-0.05,1.29,0.48,-47.06,5.75,13.88,0.52,-0.49,-0.51,-0.48,1687
2771,9.82,-0.91,4.91,-0.22,1.25,0.35,-47.06,5.75,13.88,0.52,-0.49,-0.5,-0.49,1688
2772,9.57,-0.15,5.07,-0.5,1.19,0.31,-47.06,5.75,13.88,0.52,-0.49,-0.5,-0.49,1689
2773,8.79,0.09,4.94,-0.62,1.12,0.32,-47.06,5.75,13.88,0.53,-0.49,-0.49,-0.49,1690
2774,8.62,-0.18,4.86,-0.6,1.05,0.38,-48.5,7.75,10.38,0.53,-0.49,-0.49,-0.49,1691
2775,8.66,-0.58,4.84,-0.48,0.99,0.43,-48.5,7.75,10.38,0.53,-0.49,-0.48,-0.5,1692
2776,8.95,-1.22,4.25,-0.31,0.89,0.42,-48.5,7.75,10.38,0.53,-0.49,-0.48,-0.5,1693
2777,9.19,-1.2,3.6,-0.14,0.78,0.36,-48.5,7.75,10.38,0.53,-0.49,-0.48,-0.5,1694
2778,9.45,-1.14,3.08,-0.02,0.66,0.31,-48.5,7.75,10.38,0.54,-0.49,-0.47,-0.5,1695
2779,9.72,-1.14,2.71,0.08,0.57,0.29,-48.75,8.25,9.19,0.54,-0.49,-0.47,-0.5,1696
2780,9.91,-1.02,2.06,0.16,0.5,0.27,-48.75,8.25,9.19,0.54,-0.49,-0.47,-0.5,1697
2781,9.92,-0.65,1.71,0.21,0.46,0.23,-48.75,8.25,9.19,0.54,-0.49,-0.47,-0.5,1698
2782,9.84,-0.2,1.29,0.22,0.42,0.19,-48.75,8.25,9.19,0.54,-0.48,-0.47,-0.5,1699
2783,9.76,0.18,0.92,0.22,0.42,0.21,-48.75,8.25,9.19,0.55,-0.48,-0.47,-0.5,1700
2784,9.76,0.18,0.92,0.22,0.42,0.21,-48.5,8.88,8.06,0.55,-0.48,-0.47,-0.5,1701
2785,9.63,-0.13,-1.59,0.58,0.41,0.28,-48.5,8.88,8.06,0.56,-0.48,-0.46,-0.5,1702
2786,9.63,-0.13,-1.59,0.58,0.41,0.28,-48.5,8.88,8.06,0.56,-0.47,-0.46,-0.5,1703
2787,9.6,-1.01,-1.49,0.55,0.5,0.33,-48.5,8.88,8.06,0.56,-0.47,-0.46,-0.5,1704
2788,9.48,-1.47,-1.24,0.47,0.65,0.38,-48.75,10.5,6.56,0.57,-0.47,-0.46,-0.49,1705
2789,9.35,-1.9,-0.74,0.37,0.82,0.43,-48.75,10.5,6.56,0.57,-0.47,-0.46,-0.49,1706
2790,9.45,-1.72,0.85,0.19,1.14,0.43,-48.75,10.5,6.56,0.58,-0.47,-0.45,-0.5,1707
2791,9.57,-1.23,1.39,0.19,1.14,0.43,-48.75,10.5,6.56,0.58,-0.47,-0.45,-0.5,1708
2792,9.63,-0.76,1.75,0.15,1.21,0.38,-48.75,10.5,6.56,0.58,-0.46,-0.45,-0.5,1709
2793,9.58,-0.46,2.0,0.18,1.26,0.36,-49.06,10.56,3.87,0.58,-0.46,-0.45,-0.5,1710
2794,9.33,-0.42,2.46,0.24,1.3,0.39,-49.06,10.56,3.87,0.59,-0.46,-0.44,-0.5,1711
2795,9.21,-0.29,2.49,0.29,1.33,0.4,-49.06,10.56,3.87,0.6,-0.45,-0.43,-0.5,1712
2796,9.14,-0.14,2.34,0.31,1.34,0.38,-49.06,10.56,3.87,0.6,-0.45,-0.43,-0.5,1713
2797,9.14,-0.14,2.34,0.36,1.36,0.39,-49.06,10.56,3.87,0.6,-0.45,-0.43,-0.5,1714
2798,9.42,-0.65,2.27,0.43,1.4,0.45,-48.38,12.06,1.5,0.61,-0.44,-0.43,-0.5,1715
2799,9.42,-0.65,2.27,0.5,1.46,0.49,-48.38,12.06,1.5,0.61,-0.44,-0.42,-0.5,1716
2800,9.87,-1.04,1.86,0.66,1.62,0.46,-48.38,12.06,1.5,0.63,-0.43,-0.41,-0.51,1717
2801,9.97,-1.15,1.62,0.66,1.62,0.46,-48.38,12.06,1.5,0.63,-0.43,-0.41,-0.51,1718
2802,10.0,-1.25,1.31,0.69,1.68,0.45,-48.69,12.75,-2.06,0.64,-0.41,-0.4,-0.51,1719
2803,9.98,-1.35,1.11,0.69,1.75,0.45,-48.69,12.75,-2.06,0.64,-0.41,-0.4,-0.51,1720
