Timestamp, AccelX, AccelY, AccelZ, GyroX, GyroY, GyroZ, MagX, MagY, MagZ, QuatW, QuatX, QuatY, QuatZ,TimeAligned
1851,9.94,-1.17,-2.27,-0.2,0.24,-0.09,-32.5,8.69,20.5,0.67,0.01,-0.74,0.05,768
1852,9.76,-0.67,-2.0,-0.28,0.21,-0.09,-32.5,8.69,20.5,0.67,0.01,-0.74,0.05,769
1853,9.69,-0.34,-1.86,-0.31,0.21,-0.09,-32.5,8.69,20.5,0.67,0.01,-0.74,0.05,770
1854,9.87,-0.02,-1.89,-0.29,0.18,-0.09,-32.5,9.38,19.69,0.67,0.01,-0.74,0.05,771
1855,9.96,0.0,-1.66,-0.24,0.16,-0.08,-32.5,9.38,19.69,0.67,0.01,-0.74,0.05,772
1856,9.97,0.0,-1.41,-0.21,0.16,-0.07,-32.5,9.38,19.69,0.67,0.01,-0.74,0.05,773
1857,9.97,0.0,-1.41,-0.23,0.13,-0.08,-32.5,9.38,19.69,0.67,0.01,-0.74,0.04,774
1858,9.65,0.32,-0.79,-0.21,0.11,-0.09,-32.5,9.38,19.69,0.67,0.01,-0.74,0.04,775
1859,9.65,0.32,-0.79,-0.21,0.11,-0.09,-33.56,8.69,19.25,0.67,0.01,-0.74,0.04,776
1860,9.57,0.2,-0.67,-0.08,0.07,-0.09,-33.56,8.69,19.25,0.67,0.01,-0.74,0.04,777
1861,9.68,-0.09,-0.44,-0.04,0.08,-0.09,-33.56,8.69,19.25,0.67,0.01,-0.74,0.04,778
1862,9.75,-0.22,-0.17,-0.01,0.1,-0.09,-33.56,8.69,19.25,0.67,0.01,-0.74,0.04,779
1863,9.83,-0.24,-0.06,-0.01,0.1,-0.07,-33.56,8.69,19.25,0.67,0.01,-0.74,0.04,780
1864,9.82,-0.25,-0.09,0.02,0.09,-0.06,-32.5,8.38,19.69,0.67,0.01,-0.74,0.04,781
1865,9.75,-0.31,-0.1,0.06,0.1,-0.05,-32.5,8.38,19.69,0.67,0.01,-0.74,0.04,782
1866,9.75,-0.31,-0.1,0.07,0.13,-0.04,-32.5,8.38,19.69,0.67,0.01,-0.74,0.04,783
1867,9.71,-0.32,-0.16,0.09,0.15,-0.03,-32.5,8.38,19.69,0.67,0.01,-0.74,0.04,784
1868,9.68,-0.24,-0.34,0.1,0.16,-0.02,-32.5,8.38,19.69,0.67,0.01,-0.74,0.04,785
1869,9.69,-0.21,-0.56,0.09,0.16,-0.01,-32.75,8.25,18.87,0.68,0.01,-0.74,0.04,786
1870,9.68,-0.19,-0.76,0.1,0.14,-0.0,-32.75,8.25,18.87,0.68,0.01,-0.74,0.04,787
1871,9.75,-0.17,-0.93,0.12,0.13,-0.01,-32.75,8.25,18.87,0.68,0.01,-0.74,0.04,788
1872,9.81,-0.21,-1.0,0.11,0.12,-0.01,-32.75,8.25,18.87,0.68,0.01,-0.74,0.04,789
1873,9.81,-0.21,-1.0,0.08,0.1,-0.02,-32.75,8.25,18.87,0.68,0.01,-0.73,0.04,790
1874,9.85,-0.28,-0.84,0.07,0.1,-0.01,-33.19,7.87,19.25,0.68,0.01,-0.73,0.04,791
1875,9.85,-0.28,-0.84,0.05,0.11,0.0,-33.19,7.87,19.25,0.68,0.01,-0.73,0.04,792
1876,9.79,-0.23,-0.59,0.03,0.11,0.01,-33.19,7.87,19.25,0.68,0.01,-0.73,0.04,793
1877,9.65,-0.23,-0.56,0.04,0.1,-0.0,-33.19,7.87,19.25,0.68,0.01,-0.73,0.04,794
1878,9.58,-0.23,-0.63,0.07,0.09,-0.01,-33.19,7.87,19.25,0.68,0.02,-0.73,0.04,795
1879,9.73,-0.24,-0.62,0.09,0.08,0.0,-34.0,7.56,18.87,0.68,0.02,-0.73,0.04,796
1880,9.81,-0.33,-0.63,0.1,0.06,0.01,-34.0,7.56,18.87,0.68,0.02,-0.73,0.05,797
1881,9.89,-0.49,-0.58,0.11,0.05,0.02,-34.0,7.56,18.87,0.68,0.02,-0.73,0.05,798
1882,9.91,-0.71,-0.44,0.1,0.06,0.03,-34.0,7.56,18.87,0.68,0.02,-0.73,0.05,799
1883,9.91,-0.65,-0.35,0.06,0.06,0.04,-34.0,7.56,18.87,0.68,0.02,-0.73,0.05,800
1884,9.8,-0.56,-0.25,0.02,0.05,0.04,-33.19,7.87,18.5,0.68,0.02,-0.73,0.05,801
1885,9.68,-0.38,-0.24,-0.01,0.04,0.04,-33.19,7.87,18.5,0.68,0.02,-0.73,0.05,802
1886,9.66,-0.24,-0.25,-0.03,0.03,0.03,-33.19,7.87,18.5,0.68,0.02,-0.73,0.05,803
1887,9.69,-0.24,-0.21,-0.01,0.01,0.03,-33.19,7.87,18.5,0.68,0.02,-0.73,0.05,804
1888,9.74,-0.25,-0.26,-0.01,0.01,0.03,-33.19,7.87,18.5,0.68,0.02,-0.73,0.05,805
1889,9.76,-0.36,-0.33,0.02,-0.0,0.02,-32.75,7.87,18.87,0.68,0.02,-0.73,0.05,806
1890,9.76,-0.42,-0.35,0.02,-0.0,0.02,-32.75,7.87,18.87,0.68,0.02,-0.73,0.05,807
1891,9.74,-0.51,-0.37,0.03,0.0,0.03,-32.75,7.87,18.87,0.68,0.02,-0.73,0.05,808
1892,9.76,-0.55,-0.33,0.03,0.0,0.04,-32.75,7.87,18.87,0.68,0.02,-0.73,0.05,809
1893,9.79,-0.64,-0.39,0.03,0.0,0.04,-32.75,7.87,18.87,0.68,0.02,-0.73,0.05,810
1894,9.77,-0.63,-0.46,0.02,0.0,0.05,-32.75,7.87,18.5,0.68,0.01,-0.73,0.05,811
1895,9.69,-0.56,-0.52,0.01,-0.0,0.04,-32.75,7.87,18.5,0.68,0.01,-0.73,0.05,812
1896,9.74,-0.59,-0.58,0.01,-0.01,0.04,-32.75,7.87,18.5,0.68,0.01,-0.73,0.05,813
1897,9.79,-0.54,-0.62,0.0,-0.01,0.05,-32.75,7.87,18.5,0.68,0.01,-0.73,0.05,814
1898,9.79,-0.54,-0.62,-0.02,-0.02,0.06,-32.75,7.87,18.5,0.68,0.01,-0.73,0.05,815
1899,9.77,-0.65,-0.63,-0.03,-0.03,0.05,-33.56,7.56,18.5,0.68,0.01,-0.73,0.05,816
1900,9.77,-0.62,-0.63,-0.05,-0.04,0.05,-33.56,7.56,18.5,0.68,0.01,-0.73,0.05,817
1901,9.75,-0.59,-0.55,-0.05,-0.04,0.05,-33.56,7.56,18.5,0.68,0.01,-0.73,0.05,818
1902,9.76,-0.62,-0.48,-0.07,-0.05,0.06,-33.56,7.56,18.5,0.68,0.01,-0.73,0.05,819
1903,9.7,-0.52,-0.49,-0.07,-0.06,0.07,-33.56,7.56,18.5,0.68,0.01,-0.73,0.05,820
1904,9.66,-0.49,-0.4,-0.06,-0.05,0.06,-33.19,8.69,18.06,0.68,0.01,-0.73,0.05,821
1905,9.67,-0.48,-0.4,-0.05,-0.04,0.05,-33.19,8.69,18.06,0.68,0.01,-0.73,0.05,822
1906,9.69,-0.55,-0.43,-0.04,-0.05,0.05,-33.19,8.69,18.06,0.68,0.01,-0.73,0.05,823
1907,9.72,-0.66,-0.63,-0.03,-0.05,0.05,-33.19,8.69,18.06,0.68,0.01,-0.73,0.05,824
1908,9.69,-0.69,-0.54,-0.01,-0.05,0.05,-33.19,8.69,18.06,0.68,0.01,-0.73,0.05,825
1909,9.72,-0.71,-0.56,-0.01,-0.04,0.05,-33.25,9.38,17.69,0.68,0.01,-0.73,0.05,826
1910,9.77,-0.72,-0.68,-0.02,-0.03,0.05,-33.25,9.38,17.69,0.68,0.01,-0.73,0.05,827
1911,9.83,-0.82,-0.62,-0.03,-0.02,0.05,-33.25,9.38,17.69,0.68,0.01,-0.73,0.05,828
1912,9.85,-0.78,-0.64,-0.03,-0.02,0.06,-33.25,9.38,17.69,0.68,0.01,-0.73,0.05,829
1913,9.85,-0.78,-0.64,-0.05,-0.02,0.06,-33.25,9.38,17.69,0.68,0.01,-0.73,0.05,830
1914,9.74,-0.61,-0.63,-0.04,-0.03,0.06,-32.88,8.69,18.5,0.68,0.01,-0.73,0.05,831
1915,9.74,-0.61,-0.63,-0.04,-0.02,0.05,-32.88,8.69,18.5,0.68,0.01,-0.73,0.05,832
1916,9.72,-0.54,-0.6,-0.03,-0.03,0.05,-32.88,8.69,18.5,0.68,0.01,-0.73,0.05,833
1917,9.74,-0.56,-0.69,-0.01,-0.02,0.05,-32.88,8.69,18.5,0.68,0.01,-0.73,0.05,834
1918,9.86,-0.76,-0.57,-0.01,-0.01,0.06,-32.88,8.69,18.5,0.68,0.01,-0.73,0.05,835
1919,9.86,-0.76,-0.57,-0.01,0.01,0.06,-32.88,8.25,18.06,0.68,0.01,-0.73,0.05,836
1920,9.97,-0.99,-0.58,-0.01,0.02,0.06,-32.88,8.25,18.06,0.68,0.01,-0.73,0.05,837
1921,9.79,-1.05,-0.64,-0.01,0.02,0.06,-32.88,8.25,18.06,0.68,0.01,-0.73,0.05,838
1922,9.79,-1.05,-0.64,-0.03,0.02,0.06,-32.88,8.25,18.06,0.68,0.01,-0.73,0.05,839
1923,9.72,-0.89,-0.58,-0.05,0.03,0.06,-32.88,8.25,18.06,0.68,0.01,-0.73,0.05,840
1924,9.72,-0.89,-0.58,-0.05,0.03,0.06,-33.25,8.69,18.06,0.68,0.01,-0.73,0.05,841
1925,9.72,-0.68,-0.5,-0.08,0.03,0.06,-33.25,8.69,18.06,0.68,0.01,-0.73,0.05,842
1926,9.76,-0.65,-0.53,-0.09,0.03,0.06,-33.25,8.69,18.06,0.68,0.0,-0.73,0.05,843
1927,9.8,-0.68,-0.48,-0.09,0.03,0.06,-33.25,8.69,18.06,0.68,0.0,-0.73,0.05,844
1928,9.79,-0.63,-0.55,-0.07,0.03,0.05,-33.25,8.69,18.06,0.68,0.0,-0.73,0.05,845
1929,9.7,-0.6,-0.55,-0.06,0.03,0.04,-32.88,8.69,18.06,0.68,0.0,-0.73,0.05,846
1930,9.63,-0.61,-0.65,-0.03,0.03,0.03,-32.88,8.69,18.06,0.68,0.0,-0.73,0.05,847
1931,9.68,-0.54,-0.86,-0.01,0.02,0.03,-32.88,8.69,18.06,0.68,0.0,-0.73,0.05,848
1932,9.77,-0.68,-0.82,0.02,0.01,0.04,-32.88,8.69,18.06,0.68,0.0,-0.73,0.05,849
1933,9.8,-0.76,-0.86,0.04,0.02,0.04,-32.88,8.69,18.06,0.68,0.0,-0.73,0.05,850
1934,9.79,-0.8,-0.81,0.05,0.01,0.04,-32.19,8.69,18.5,0.68,0.0,-0.73,0.05,851
1935,9.79,-0.8,-0.81,0.05,0.0,0.03,-32.19,8.69,18.5,0.68,0.0,-0.73,0.05,852
1936,9.8,-0.93,-0.66,0.03,-0.0,0.03,-32.19,8.69,18.5,0.68,0.0,-0.73,0.05,853
1937,9.8,-0.95,-0.61,-0.0,-0.0,0.03,-32.19,8.69,18.5,0.68,0.0,-0.73,0.05,854
1938,9.79,-0.94,-0.47,-0.02,0.01,0.03,-32.19,8.69,18.5,0.68,0.0,-0.73,0.05,855
1939,9.69,-0.85,-0.46,-0.03,0.01,0.03,-33.25,9.0,17.69,0.68,0.0,-0.73,0.05,856
1940,9.68,-0.78,-0.48,-0.05,-0.0,0.02,-33.25,9.0,17.69,0.68,0.0,-0.73,0.05,857
1941,9.7,-0.77,-0.48,-0.05,-0.01,0.02,-33.25,9.0,17.69,0.68,0.0,-0.73,0.05,858
1942,9.7,-0.77,-0.48,-0.03,-0.02,0.02,-33.25,9.0,17.69,0.68,0.0,-0.73,0.05,859
1943,9.78,-0.86,-0.5,-0.01,-0.02,0.01,-33.25,9.0,17.69,0.68,0.0,-0.73,0.05,860
1944,9.8,-0.89,-0.5,-0.0,-0.02,0.02,-33.69,9.0,17.69,0.68,0.0,-0.73,0.05,861
1945,9.83,-0.93,-0.5,-0.0,-0.02,0.02,-33.69,9.0,17.69,0.68,0.0,-0.73,0.05,862
1946,9.81,-0.9,-0.41,-0.01,-0.01,0.02,-33.69,9.0,17.69,0.68,0.0,-0.73,0.05,863
1947,9.76,-0.83,-0.43,-0.02,-0.0,0.02,-33.69,9.0,17.69,0.68,0.0,-0.73,0.05,864
1948,9.65,-0.74,-0.39,-0.03,-0.02,0.02,-33.69,9.0,17.69,0.68,0.0,-0.73,0.05,865
1949,9.7,-0.71,-0.49,-0.02,-0.02,0.02,-33.25,9.0,18.5,0.68,0.0,-0.73,0.05,866
1950,9.74,-0.67,-0.59,-0.01,-0.02,0.01,-33.25,9.0,18.5,0.68,0.0,-0.73,0.05,867
1951,9.76,-0.72,-0.55,-0.0,-0.0,0.01,-33.25,9.0,18.5,0.68,0.0,-0.73,0.05,868
1952,9.78,-0.73,-0.61,0.01,0.0,0.01,-33.25,9.0,18.5,0.68,0.0,-0.73,0.05,869
1953,9.74,-0.73,-0.64,0.02,0.0,-0.0,-33.25,9.0,18.5,0.68,0.0,-0.73,0.05,870
1954,9.72,-0.76,-0.66,0.01,-0.01,-0.0,-33.69,8.69,16.87,0.68,0.0,-0.73,0.05,871
1955,9.68,-0.79,-0.66,0.02,-0.02,0.0,-33.69,8.69,16.87,0.68,0.0,-0.73,0.05,872
1956,9.68,-0.85,-0.74,0.03,-0.01,0.01,-33.69,8.69,16.87,0.68,0.0,-0.73,0.05,873
1957,9.9,-0.93,-0.85,0.03,-0.01,0.01,-33.69,8.69,16.87,0.68,0.0,-0.73,0.05,874
1958,9.89,-0.99,-0.72,0.03,-0.0,0.01,-33.69,8.69,16.87,0.68,0.0,-0.73,0.05,875
1959,9.86,-0.94,-0.73,0.03,0.01,0.02,-33.25,9.69,18.87,0.68,0.0,-0.73,0.05,876
1960,9.86,-0.94,-0.73,0.0,0.01,0.02,-33.25,9.69,18.87,0.68,0.0,-0.73,0.05,877
1961,9.69,-0.78,-0.57,-0.02,-0.01,0.02,-33.25,9.69,18.87,0.68,0.0,-0.73,0.05,878
1962,9.65,-0.78,-0.49,-0.02,-0.01,0.01,-33.25,9.69,18.87,0.68,0.0,-0.73,0.05,879
1963,9.71,-0.75,-0.69,-0.01,-0.0,-0.01,-33.25,8.25,18.5,0.68,0.0,-0.73,0.05,880
1964,9.78,-0.78,-0.51,-0.01,-0.0,-0.01,-33.25,8.25,18.5,0.68,0.0,-0.73,0.05,881
1965,9.8,-0.8,-0.48,-0.01,0.01,-0.01,-33.25,8.25,18.5,0.68,0.0,-0.73,0.05,882
1966,9.79,-0.82,-0.48,-0.01,0.01,-0.0,-33.25,8.25,18.5,0.68,0.0,-0.73,0.05,883
1967,9.75,-0.87,-0.49,-0.01,0.01,0.0,-33.25,8.25,18.5,0.68,0.0,-0.73,0.05,884
1968,9.75,-0.87,-0.49,-0.0,-0.0,0.01,-33.25,8.25,18.5,0.68,0.0,-0.73,0.05,885
1969,9.73,-0.82,-0.64,0.01,-0.0,0.01,-32.19,9.0,18.87,0.68,0.0,-0.73,0.05,886
1970,9.74,-0.86,-0.6,0.0,0.0,0.0,-32.19,9.0,18.87,0.68,0.0,-0.73,0.05,887
1971,9.79,-0.79,-0.68,0.01,-0.01,0.0,-32.19,9.0,18.87,0.68,0.0,-0.73,0.05,888
1972,9.74,-0.77,-0.62,0.01,-0.01,0.01,-32.19,9.0,18.87,0.68,0.0,-0.73,0.05,889
1973,9.77,-0.72,-0.65,0.01,-0.0,0.0,-32.19,9.0,18.87,0.68,0.0,-0.73,0.05,890
1974,9.71,-0.7,-0.65,0.01,0.0,-0.0,-32.88,7.87,18.5,0.68,0.0,-0.73,0.05,891
1975,9.69,-0.73,-0.68,0.0,0.01,-0.01,-32.88,7.87,18.5,0.68,0.0,-0.73,0.05,892
1976,9.73,-0.73,-0.72,0.01,-0.0,-0.02,-32.88,7.87,18.5,0.68,0.0,-0.73,0.05,893
1977,9.76,-0.73,-0.68,0.01,-0.0,-0.02,-32.88,7.87,18.5,0.68,0.0,-0.73,0.05,894
1978,9.76,-0.8,-0.5,0.01,-0.0,-0.01,-32.88,7.87,18.5,0.68,0.0,-0.73,0.05,895
1979,9.85,-0.82,-0.68,0.01,0.0,-0.01,-33.25,9.0,18.06,0.68,0.0,-0.73,0.05,896
1980,9.85,-0.93,-0.54,0.0,0.02,-0.01,-33.25,9.0,18.06,0.68,0.0,-0.73,0.05,897
1981,9.85,-0.93,-0.54,0.0,0.02,0.01,-33.25,9.0,18.06,0.68,0.0,-0.73,0.05,898
1982,9.74,-0.95,-0.48,-0.01,0.01,0.01,-33.25,9.0,18.06,0.68,0.0,-0.73,0.05,899
1983,9.69,-0.87,-0.64,-0.02,0.0,0.01,-33.25,9.0,18.06,0.68,0.0,-0.73,0.05,900
1984,9.75,-0.8,-0.62,-0.03,0.01,0.01,-33.25,9.0,18.06,0.68,0.0,-0.73,0.05,901
1985,9.8,-0.69,-0.54,-0.03,0.01,0.01,-33.25,9.0,18.06,0.68,0.0,-0.73,0.05,902
1986,9.8,-0.7,-0.52,-0.03,0.02,0.01,-33.25,9.0,18.06,0.68,0.0,-0.73,0.05,903
1987,9.69,-0.84,-0.4,-0.02,0.01,-0.0,-33.25,9.0,18.06,0.68,0.0,-0.73,0.05,904
1988,9.69,-0.84,-0.4,-0.02,0.01,-0.0,-33.25,9.0,18.06,0.68,0.0,-0.73,0.05,905
1989,9.77,-0.85,-0.51,-0.03,0.0,-0.01,-32.19,9.0,18.06,0.68,-0.0,-0.73,0.05,906
1990,9.77,-0.85,-0.51,-0.03,0.0,-0.01,-32.19,9.0,18.06,0.68,-0.0,-0.73,0.05,907
1991,9.8,-0.86,-0.57,-0.02,-0.0,-0.01,-32.19,9.0,18.06,0.68,-0.0,-0.73,0.05,908
1992,9.71,-0.8,-0.46,-0.03,0.01,-0.0,-32.19,9.0,18.06,0.68,-0.0,-0.73,0.05,909
1993,9.78,-0.77,-0.62,-0.03,0.01,-0.0,-32.19,9.0,18.06,0.68,-0.0,-0.73,0.05,910
1994,9.75,-0.8,-0.58,-0.03,-0.0,0.01,-32.88,8.69,19.25,0.68,-0.0,-0.73,0.05,911
1995,9.76,-0.82,-0.6,-0.03,-0.0,0.01,-32.88,8.69,19.25,0.68,-0.0,-0.73,0.05,912
1996,9.78,-0.76,-0.69,-0.04,0.0,0.01,-32.88,8.69,19.25,0.68,-0.0,-0.73,0.05,913
1997,9.75,-0.83,-0.51,-0.04,-0.01,0.0,-32.88,8.69,19.25,0.68,-0.0,-0.73,0.05,914
1998,9.83,-0.78,-0.66,-0.03,-0.0,0.0,-32.88,8.69,19.25,0.68,-0.0,-0.73,0.05,915
1999,9.69,-0.82,-0.5,-0.03,-0.01,0.0,-32.88,9.38,18.5,0.68,-0.0,-0.73,0.05,916
2000,9.75,-0.81,-0.52,-0.03,-0.0,0.01,-32.88,9.38,18.5,0.68,-0.0,-0.73,0.05,917
2001,9.75,-0.81,-0.52,-0.03,-0.0,0.01,-32.88,9.38,18.5,0.68,-0.0,-0.73,0.05,918
2002,9.75,-0.77,-0.5,-0.03,0.01,0.01,-32.88,9.38,18.5,0.68,-0.0,-0.73,0.05,919
2003,9.75,-0.78,-0.4,-0.03,-0.0,0.01,-32.88,9.38,18.5,0.68,-0.0,-0.73,0.05,920
2004,9.82,-0.76,-0.58,-0.02,0.01,0.0,-33.69,9.38,18.5,0.68,-0.0,-0.73,0.05,921
2005,9.76,-0.8,-0.44,-0.01,0.0,-0.0,-33.69,9.38,18.5,0.68,-0.0,-0.73,0.05,922
2006,9.74,-0.75,-0.57,-0.02,0.01,-0.0,-33.69,9.38,18.5,0.68,-0.0,-0.73,0.05,923
2007,9.73,-0.75,-0.54,-0.03,0.0,-0.0,-33.69,9.38,18.5,0.68,-0.0,-0.73,0.05,924
2008,9.77,-0.72,-0.55,-0.02,0.0,-0.0,-33.69,9.38,18.5,0.68,-0.0,-0.73,0.05,925
2009,9.77,-0.72,-0.61,-0.01,0.0,0.0,-33.69,8.69,18.87,0.68,-0.0,-0.73,0.05,926
2010,9.72,-0.75,-0.58,-0.01,0.01,0.0,-33.69,8.69,18.87,0.68,-0.0,-0.73,0.05,927
2011,9.65,-0.73,-0.49,-0.01,0.02,0.0,-33.69,8.69,18.87,0.68,-0.0,-0.73,0.05,928
2012,9.76,-0.74,-0.68,-0.0,-0.0,0.0,-33.69,8.69,18.87,0.68,-0.0,-0.73,0.05,929
2013,9.75,-0.73,-0.64,-0.0,-0.0,0.0,-33.69,8.69,18.87,0.68,-0.0,-0.73,0.05,930
2014,9.73,-0.76,-0.61,0.0,0.0,-0.0,-33.25,9.0,18.06,0.68,-0.0,-0.73,0.05,931
2015,9.74,-0.79,-0.63,0.0,0.0,-0.0,-33.25,9.0,18.06,0.68,-0.0,-0.73,0.05,932
2016,9.76,-0.82,-0.68,-0.0,0.01,-0.0,-33.25,9.0,18.06,0.68,-0.0,-0.73,0.05,933
2017,9.79,-0.82,-0.69,-0.01,0.01,-0.0,-33.25,9.0,18.06,0.68,-0.0,-0.73,0.05,934
2018,9.79,-0.84,-0.68,-0.0,0.01,-0.0,-33.25,9.0,18.06,0.68,-0.0,-0.73,0.05,935
2019,9.8,-0.83,-0.6,-0.0,0.02,0.01,-32.88,8.69,18.06,0.68,-0.0,-0.73,0.05,936
2020,9.76,-0.78,-0.53,-0.02,0.03,0.01,-32.88,8.69,18.06,0.68,-0.0,-0.73,0.05,937
2021,9.81,-0.8,-0.53,-0.03,0.03,0.01,-32.88,8.69,18.06,0.68,-0.0,-0.73,0.05,938
2022,9.79,-0.87,-0.48,-0.02,0.01,0.01,-32.88,8.69,18.06,0.68,-0.0,-0.73,0.05,939
2023,9.75,-0.87,-0.54,-0.02,0.02,0.01,-32.88,8.69,18.06,0.68,-0.0,-0.73,0.05,940
2024,9.79,-0.9,-0.56,-0.02,0.01,0.0,-33.25,8.25,17.69,0.68,-0.0,-0.73,0.05,941
2025,9.8,-0.88,-0.58,-0.01,0.01,0.01,-33.25,8.25,17.69,0.68,-0.0,-0.73,0.05,942
2026,9.78,-0.83,-0.56,-0.02,0.02,0.01,-33.25,8.25,17.69,0.68,-0.0,-0.73,0.05,943
2027,9.72,-0.76,-0.47,-0.02,0.02,-0.0,-33.25,8.25,17.69,0.68,-0.0,-0.73,0.05,944
2028,9.75,-0.69,-0.45,-0.01,0.03,-0.0,-33.25,8.25,17.69,0.68,-0.0,-0.73,0.05,945
2029,9.74,-0.6,-0.4,-0.01,0.04,-0.01,-32.88,9.0,17.69,0.68,-0.0,-0.73,0.05,946
2030,9.73,-0.56,-0.46,-0.03,0.07,-0.02,-32.88,9.0,17.69,0.68,-0.0,-0.73,0.05,947
2031,9.78,-0.8,-0.54,-0.01,0.07,-0.03,-32.88,9.0,17.69,0.68,-0.0,-0.73,0.05,948
2032,9.78,-0.88,-0.58,0.02,0.08,-0.03,-32.88,9.0,17.69,0.68,-0.0,-0.73,0.05,949
2033,9.76,-0.91,-0.54,0.02,0.08,-0.03,-31.87,8.69,18.5,0.68,-0.0,-0.73,0.05,950
2034,9.74,-0.93,-0.5,0.01,0.07,-0.03,-31.87,8.69,18.5,0.68,-0.0,-0.73,0.05,951
2035,9.76,-0.92,-0.49,0.0,0.03,-0.02,-31.87,8.69,18.5,0.68,-0.0,-0.73,0.05,952
2036,9.75,-0.88,-0.54,0.0,0.03,-0.02,-31.87,8.69,18.5,0.68,-0.0,-0.73,0.05,953
2037,9.71,-0.84,-0.56,-0.0,0.02,-0.01,-31.87,8.69,18.5,0.68,-0.0,-0.73,0.05,954
2038,9.72,-0.77,-0.51,-0.0,0.02,-0.01,-31.87,8.69,18.5,0.68,-0.0,-0.73,0.05,955
2039,9.74,-0.74,-0.53,-0.01,0.02,-0.0,-33.25,8.25,18.5,0.68,-0.0,-0.73,0.05,956
2040,9.74,-0.73,-0.55,0.0,0.01,0.0,-33.25,8.25,18.5,0.68,-0.0,-0.73,0.05,957
2041,9.78,-0.71,-0.55,0.01,0.01,0.01,-33.25,8.25,18.5,0.68,-0.0,-0.73,0.05,958
2042,9.78,-0.71,-0.55,0.02,0.01,0.01,-33.25,8.25,18.5,0.68,-0.0,-0.73,0.05,959
2043,9.8,-0.8,-0.51,0.03,-0.0,0.01,-33.25,7.87,17.69,0.68,-0.0,-0.73,0.05,960
2044,9.8,-0.8,-0.51,0.03,-0.0,0.01,-33.25,7.87,17.69,0.68,-0.0,-0.73,0.05,961
2045,9.73,-0.78,-0.46,0.02,-0.0,0.0,-33.25,7.87,17.69,0.68,-0.0,-0.73,0.05,962
2046,9.73,-0.8,-0.47,0.02,-0.01,0.01,-33.25,7.87,17.69,0.68,-0.0,-0.73,0.05,963
2047,9.71,-0.81,-0.46,0.01,-0.0,0.01,-33.25,7.87,17.69,0.68,-0.0,-0.73,0.05,964
2048,9.82,-0.82,-0.5,0.0,0.01,0.01,-33.69,8.25,18.5,0.68,-0.0,-0.73,0.05,965
2049,9.84,-0.86,-0.48,-0.0,0.02,0.01,-33.69,8.25,18.5,0.68,-0.0,-0.73,0.05,966
2050,9.84,-0.83,-0.51,-0.01,0.02,0.01,-33.69,8.25,18.5,0.68,-0.0,-0.73,0.05,967
2051,9.72,-0.81,-0.41,-0.01,-0.0,0.0,-33.69,8.25,18.5,0.68,-0.0,-0.73,0.05,968
2052,9.7,-0.78,-0.43,-0.01,-0.0,0.0,-33.69,8.25,18.5,0.68,-0.0,-0.73,0.05,969
2053,9.72,-0.77,-0.42,-0.01,-0.01,0.01,-32.88,9.38,18.87,0.68,-0.0,-0.73,0.05,970
2054,9.74,-0.74,-0.44,-0.01,-0.01,0.01,-32.88,9.38,18.87,0.68,-0.0,-0.73,0.05,971
2055,9.71,-0.67,-0.43,-0.0,-0.0,0.0,-32.88,9.38,18.87,0.68,-0.0,-0.73,0.05,972
2056,9.66,-0.72,-0.29,0.0,0.01,0.0,-32.88,9.38,18.87,0.68,-0.0,-0.73,0.05,973
2057,9.79,-0.71,-0.53,-0.0,0.02,0.0,-32.88,9.38,18.87,0.68,-0.0,-0.73,0.05,974
2058,9.78,-0.87,-0.41,0.01,0.0,0.0,-33.69,9.38,17.69,0.68,-0.0,-0.73,0.05,975
2059,9.77,-0.88,-0.45,0.01,0.01,0.01,-33.69,9.38,17.69,0.68,-0.0,-0.73,0.05,976
2060,9.86,-0.84,-0.44,0.0,0.01,0.01,-33.69,9.38,17.69,0.68,-0.0,-0.73,0.05,977
2061,9.84,-0.85,-0.41,0.01,-0.0,0.0,-33.69,9.38,17.69,0.68,-0.0,-0.73,0.05,978
2062,9.72,-0.82,-0.37,0.01,-0.0,0.0,-33.69,9.38,17.69,0.68,-0.0,-0.73,0.05,979
2063,9.72,-0.81,-0.35,-0.0,0.0,0.01,-33.69,8.69,17.25,0.68,-0.0,-0.73,0.05,980
2064,9.68,-0.84,-0.29,-0.01,0.01,0.01,-33.69,8.69,17.25,0.68,-0.0,-0.73,0.05,981
2065,9.82,-0.77,-0.42,-0.01,0.01,0.0,-33.69,8.69,17.25,0.68,-0.0,-0.73,0.05,982
2066,9.78,-0.77,-0.37,-0.01,-0.0,0.0,-33.69,8.69,17.25,0.69,-0.0,-0.73,0.05,983
2067,9.82,-0.74,-0.56,-0.0,0.01,0.0,-33.69,8.69,17.25,0.69,-0.0,-0.73,0.05,984
2068,9.78,-0.75,-0.45,-0.01,0.01,0.0,-33.25,9.38,18.5,0.69,-0.0,-0.73,0.05,985
2069,9.76,-0.8,-0.41,-0.01,0.01,0.01,-33.25,9.38,18.5,0.69,-0.0,-0.73,0.05,986
2070,9.68,-0.83,-0.36,-0.01,0.01,0.0,-33.25,9.38,18.5,0.69,-0.0,-0.73,0.05,987
2071,9.72,-0.8,-0.45,-0.01,0.01,-0.0,-33.25,9.38,18.5,0.69,-0.0,-0.73,0.05,988
2072,9.7,-0.78,-0.46,-0.01,-0.0,-0.01,-33.25,9.38,18.5,0.69,-0.0,-0.73,0.05,989
2073,9.72,-0.81,-0.49,-0.02,0.0,-0.02,-32.88,8.25,17.25,0.69,-0.0,-0.73,0.05,990
2074,9.75,-0.8,-0.56,-0.02,-0.0,-0.01,-32.88,8.25,17.25,0.69,-0.0,-0.73,0.05,991
2075,9.8,-0.84,-0.57,-0.03,-0.01,-0.01,-32.88,8.25,17.25,0.69,-0.0,-0.73,0.05,992
2076,9.74,-0.8,-0.52,-0.04,-0.0,-0.01,-32.88,8.25,17.25,0.69,-0.0,-0.73,0.05,993
2077,9.74,-0.81,-0.55,-0.05,-0.01,-0.0,-32.88,8.25,17.25,0.69,-0.0,-0.73,0.05,994
2078,9.7,-0.79,-0.54,-0.06,-0.01,-0.01,-33.69,8.69,18.06,0.69,-0.0,-0.73,0.05,995
2079,9.68,-0.78,-0.55,-0.07,-0.02,-0.01,-33.69,8.69,18.06,0.69,-0.0,-0.73,0.05,996
2080,9.74,-0.79,-0.7,-0.07,-0.02,-0.02,-33.69,8.69,18.06,0.68,-0.0,-0.73,0.05,997
2081,9.83,-0.79,-0.68,-0.06,-0.02,-0.02,-33.69,8.69,18.06,0.68,-0.0,-0.73,0.05,998
2082,9.82,-0.79,-0.6,-0.07,-0.0,0.0,-34.06,8.25,17.69,0.68,-0.0,-0.73,0.05,999
2083,9.83,-0.76,-0.42,-0.07,-0.0,0.0,-34.06,8.25,17.69,0.68,-0.0,-0.73,0.05,1000
2084,9.72,-0.76,-0.27,-0.07,0.02,0.01,-34.06,8.25,17.69,0.69,-0.0,-0.73,0.05,1001
2085,9.76,-0.72,-0.46,-0.07,0.02,0.01,-34.06,8.25,17.69,0.69,-0.0,-0.73,0.05,1002
2086,9.72,-0.78,-0.44,-0.05,0.01,-0.0,-34.06,8.25,17.69,0.69,-0.01,-0.73,0.05,1003
2087,9.72,-0.78,-0.44,-0.05,0.01,-0.0,-34.06,8.25,17.69,0.69,-0.01,-0.73,0.05,1004
2088,9.81,-0.78,-0.43,-0.03,0.0,0.0,-32.56,9.0,19.25,0.69,-0.01,-0.73,0.05,1005
2089,9.81,-0.78,-0.43,-0.03,0.0,0.0,-32.56,9.0,19.25,0.69,-0.01,-0.73,0.05,1006
2090,9.8,-0.76,-0.42,-0.03,0.01,0.01,-32.56,9.0,19.25,0.69,-0.01,-0.73,0.05,1007
2091,9.79,-0.71,-0.37,-0.03,0.01,0.01,-32.56,9.0,19.25,0.69,-0.01,-0.73,0.05,1008
2092,9.75,-0.73,-0.37,-0.03,0.01,0.01,-32.56,9.0,19.25,0.69,-0.01,-0.73,0.05,1009
2093,9.74,-0.75,-0.37,-0.01,0.02,0.01,-33.69,7.56,18.5,0.69,-0.01,-0.73,0.05,1010
2094,9.75,-0.77,-0.46,-0.01,0.02,0.01,-33.69,7.56,18.5,0.69,-0.01,-0.73,0.05,1011
2095,9.78,-0.78,-0.45,-0.01,0.02,0.0,-33.69,7.56,18.5,0.69,-0.01,-0.73,0.05,1012
2096,9.72,-0.78,-0.34,-0.0,0.01,0.01,-33.69,7.56,18.5,0.69,-0.01,-0.73,0.05,1013
2097,9.81,-0.8,-0.49,-0.0,0.02,0.0,-33.69,7.56,18.5,0.69,-0.01,-0.73,0.05,1014
2098,9.81,-0.8,-0.53,0.0,0.01,0.0,-33.69,7.87,17.25,0.69,-0.01,-0.73,0.05,1015
2099,9.82,-0.85,-0.57,0.01,0.01,0.01,-33.69,7.87,17.25,0.69,-0.01,-0.73,0.05,1016
2100,9.8,-0.85,-0.56,-0.03,-0.01,0.01,-33.69,7.87,17.25,0.69,-0.01,-0.73,0.05,1017
2101,9.74,-0.88,-0.53,-0.03,-0.01,0.01,-33.69,7.87,17.25,0.69,-0.01,-0.73,0.05,1018
2102,9.73,-0.86,-0.54,-0.04,-0.02,0.0,-34.06,8.69,19.25,0.69,-0.01,-0.73,0.05,1019
2103,9.78,-0.77,-0.47,-0.04,-0.02,0.0,-34.06,8.69,19.25,0.69,-0.01,-0.73,0.05,1020
2104,9.8,-0.72,-0.46,-0.05,-0.0,0.0,-34.06,8.69,19.25,0.69,-0.01,-0.73,0.05,1021
2105,9.78,-0.68,-0.4,-0.05,-0.0,0.0,-34.06,8.69,19.25,0.69,-0.01,-0.73,0.05,1022
2106,9.77,-0.72,-0.35,-0.05,0.0,0.0,-34.06,8.69,19.25,0.69,-0.01,-0.73,0.05,1023
2107,9.72,-0.74,-0.34,-0.04,0.0,0.0,-34.06,8.25,18.06,0.69,-0.01,-0.73,0.05,1024
2108,9.71,-0.77,-0.36,-0.03,0.01,0.0,-34.06,8.25,18.06,0.69,-0.01,-0.73,0.05,1025
2109,9.71,-0.76,-0.38,-0.01,0.0,0.0,-34.06,8.25,18.06,0.69,-0.01,-0.73,0.05,1026
2110,9.73,-0.79,-0.44,-0.01,-0.0,0.0,-34.06,8.25,18.06,0.69,-0.01,-0.73,0.05,1027
2111,9.74,-0.8,-0.47,-0.0,-0.01,0.0,-34.06,7.87,18.06,0.69,-0.01,-0.73,0.05,1028
2112,9.78,-0.81,-0.48,-0.0,-0.01,0.0,-34.06,7.87,18.06,0.69,-0.01,-0.73,0.05,1029
2113,9.82,-0.81,-0.43,-0.0,0.0,0.01,-34.06,7.87,18.06,0.69,-0.01,-0.73,0.05,1030
2114,9.79,-0.77,-0.38,-0.01,0.01,0.01,-34.06,7.87,18.06,0.69,-0.01,-0.73,0.05,1031
2115,9.75,-0.8,-0.39,-0.01,0.0,0.01,-34.06,7.87,18.06,0.69,-0.01,-0.73,0.05,1032
2116,9.75,-0.8,-0.39,-0.0,-0.0,0.0,-34.06,7.87,18.06,0.69,-0.01,-0.73,0.05,1033
2117,9.67,-0.83,-0.46,0.0,-0.01,0.0,-33.25,8.69,17.25,0.69,-0.01,-0.73,0.05,1034
2118,9.75,-0.82,-0.54,0.0,-0.0,-0.0,-33.25,8.69,17.25,0.69,-0.01,-0.73,0.05,1035
2119,9.8,-0.79,-0.52,-0.01,0.02,0.0,-33.25,8.69,17.25,0.69,-0.01,-0.73,0.05,1036
2120,9.8,-0.78,-0.48,-0.01,0.02,0.0,-33.25,8.69,17.25,0.69,-0.01,-0.73,0.05,1037
2121,9.78,-0.81,-0.43,-0.01,0.02,0.0,-33.25,8.69,17.25,0.69,-0.01,-0.73,0.05,1038
2122,9.76,-0.85,-0.42,-0.02,0.02,0.0,-34.06,7.87,17.25,0.69,-0.01,-0.73,0.05,1039
2123,9.76,-0.82,-0.42,-0.01,0.01,0.0,-34.06,7.87,17.25,0.69,-0.01,-0.73,0.05,1040
2124,9.76,-0.82,-0.42,-0.01,0.01,0.0,-34.06,7.87,17.25,0.69,-0.01,-0.73,0.05,1041
2125,9.76,-0.85,-0.49,-0.0,0.0,-0.0,-34.06,7.87,17.25,0.69,-0.01,-0.73,0.05,1042
2126,9.79,-0.81,-0.49,-0.0,0.01,-0.0,-34.06,7.87,17.25,0.69,-0.01,-0.73,0.05,1043
2127,9.74,-0.8,-0.46,-0.0,0.01,0.0,-33.25,8.69,17.25,0.69,-0.01,-0.73,0.05,1044
2128,9.71,-0.78,-0.44,0.0,0.02,0.0,-33.25,8.69,17.25,0.69,-0.01,-0.73,0.05,1045
2129,9.75,-0.76,-0.45,-0.0,0.01,0.0,-33.25,8.69,17.25,0.69,-0.01,-0.73,0.05,1046
2130,9.77,-0.77,-0.48,-0.0,0.0,0.0,-33.25,8.69,17.25,0.69,-0.01,-0.73,0.05,1047
2131,9.78,-0.82,-0.47,0.01,0.01,0.0,-33.25,8.69,17.25,0.69,-0.01,-0.73,0.05,1048
2132,9.8,-0.82,-0.45,0.02,0.01,0.0,-33.25,8.25,18.06,0.69,-0.01,-0.73,0.05,1049
2133,9.8,-0.81,-0.44,0.01,0.01,0.0,-33.25,8.25,18.06,0.69,-0.01,-0.73,0.05,1050
2134,9.77,-0.85,-0.44,0.01,0.01,0.0,-33.25,8.25,18.06,0.69,-0.01,-0.73,0.05,1051
2135,9.71,-0.82,-0.41,0.01,0.01,0.0,-33.25,8.25,18.06,0.69,-0.01,-0.73,0.05,1052
2136,9.72,-0.82,-0.4,0.0,0.01,0.0,-33.25,8.25,18.06,0.69,-0.01,-0.73,0.05,1053
2137,9.6,-0.82,-0.26,-0.0,0.01,-0.0,-33.25,9.38,18.5,0.69,-0.01,-0.73,0.05,1054
2138,9.79,-0.76,-0.64,-0.02,0.04,-0.01,-33.25,9.38,18.5,0.69,-0.01,-0.73,0.05,1055
2139,9.85,-0.81,-0.45,-0.01,0.01,-0.01,-33.25,9.38,18.5,0.69,-0.01,-0.73,0.05,1056
2140,9.8,-0.79,-0.43,0.0,0.02,0.0,-33.25,9.38,18.5,0.69,-0.01,-0.73,0.05,1057
2141,9.75,-0.77,-0.4,-0.0,0.02,0.01,-33.25,9.38,18.5,0.69,-0.01,-0.73,0.05,1058
2142,9.72,-0.78,-0.36,-0.01,0.02,0.0,-33.25,7.87,18.06,0.69,-0.01,-0.73,0.05,1059
2143,9.72,-0.75,-0.4,-0.01,0.02,0.0,-33.25,7.87,18.06,0.69,-0.01,-0.73,0.05,1060
2144,9.76,-0.78,-0.44,0.01,0.02,0.0,-33.25,7.87,18.06,0.69,-0.01,-0.73,0.05,1061
2145,9.76,-0.78,-0.44,0.01,0.02,0.0,-33.25,7.87,18.06,0.69,-0.01,-0.73,0.05,1062
2146,9.8,-0.84,-0.45,0.01,0.02,0.01,-33.25,7.87,18.06,0.69,-0.01,-0.73,0.05,1063
2147,9.77,-0.84,-0.46,0.01,0.02,0.0,-34.38,8.25,18.5,0.69,-0.01,-0.72,0.05,1064
2148,9.8,-0.82,-0.46,0.0,0.02,0.0,-34.38,8.25,18.5,0.69,-0.01,-0.72,0.05,1065
2149,9.82,-0.85,-0.4,-0.0,0.03,0.01,-34.38,8.25,18.5,0.69,-0.01,-0.72,0.05,1066
2150,9.75,-0.85,-0.28,-0.0,0.02,0.01,-34.38,8.25,18.5,0.69,-0.01,-0.72,0.05,1067
2151,9.7,-0.84,-0.33,-0.0,0.01,0.01,-34.38,8.25,18.5,0.69,-0.01,-0.72,0.05,1068
2152,9.7,-0.77,-0.34,0.0,0.01,-0.0,-32.19,7.87,16.5,0.69,-0.01,-0.72,0.05,1069
2153,9.76,-0.75,-0.4,0.01,0.01,-0.01,-32.19,7.87,16.5,0.69,-0.01,-0.72,0.05,1070
2154,9.78,-0.73,-0.4,0.01,0.01,-0.01,-32.19,7.87,16.5,0.69,-0.01,-0.72,0.05,1071
2155,9.79,-0.7,-0.37,0.02,0.01,-0.01,-32.19,7.87,16.5,0.69,-0.01,-0.72,0.05,1072
2156,9.81,-0.74,-0.36,0.02,0.01,-0.0,-32.19,7.87,16.5,0.69,-0.01,-0.72,0.05,1073
2157,9.77,-0.87,-0.3,0.02,0.02,0.0,-33.25,8.69,17.69,0.69,-0.01,-0.72,0.05,1074
2158,9.73,-0.89,-0.3,0.02,0.01,0.0,-33.25,8.69,17.69,0.69,-0.01,-0.72,0.05,1075
2159,9.72,-0.9,-0.33,0.01,0.01,0.0,-33.25,8.69,17.69,0.69,-0.01,-0.72,0.05,1076
2160,9.7,-0.82,-0.33,0.01,0.0,0.0,-33.25,8.69,17.69,0.69,-0.01,-0.72,0.05,1077
2161,9.74,-0.8,-0.34,0.01,0.0,-0.0,-33.25,8.69,17.69,0.69,-0.01,-0.72,0.05,1078
2162,9.78,-0.8,-0.37,0.01,0.0,-0.0,-33.69,8.69,18.5,0.69,-0.01,-0.72,0.05,1079
2163,9.8,-0.75,-0.35,0.01,0.0,-0.0,-33.69,8.69,18.5,0.69,-0.01,-0.72,0.05,1080
2164,9.78,-0.75,-0.38,0.01,-0.0,0.0,-33.69,8.69,18.5,0.69,-0.01,-0.72,0.05,1081
2165,9.76,-0.73,-0.35,0.01,-0.0,0.0,-33.69,8.69,18.5,0.69,-0.01,-0.72,0.05,1082
2166,9.75,-0.77,-0.33,0.0,-0.0,0.0,-33.69,8.69,18.5,0.69,-0.01,-0.72,0.05,1083
2167,9.76,-0.81,-0.34,0.01,-0.0,-0.0,-33.25,9.38,18.06,0.69,-0.01,-0.72,0.05,1084
2168,9.78,-0.86,-0.36,0.02,0.0,-0.01,-33.25,9.38,18.06,0.69,-0.01,-0.72,0.05,1085
2169,9.79,-0.86,-0.39,0.01,0.0,-0.0,-33.25,9.38,18.06,0.69,-0.01,-0.72,0.05,1086
2170,9.77,-0.82,-0.39,0.0,0.01,-0.0,-33.25,9.38,18.06,0.69,-0.01,-0.72,0.05,1087
2171,9.76,-0.77,-0.42,-0.01,0.01,0.0,-33.25,9.38,18.06,0.69,-0.01,-0.72,0.05,1088
2172,9.78,-0.75,-0.44,-0.01,0.01,0.0,-33.69,7.56,16.87,0.69,-0.01,-0.72,0.05,1089
2173,9.77,-0.73,-0.41,-0.01,0.01,0.0,-33.69,7.56,16.87,0.69,-0.01,-0.72,0.05,1090
2174,9.73,-0.72,-0.45,-0.02,0.0,0.0,-33.69,7.56,16.87,0.69,-0.01,-0.72,0.05,1091
2175,9.71,-0.72,-0.49,-0.03,0.0,0.01,-33.69,7.56,16.87,0.69,-0.01,-0.72,0.05,1092
2176,9.75,-0.75,-0.47,-0.03,0.0,0.01,-33.69,7.56,16.87,0.69,-0.01,-0.72,0.05,1093
2177,9.78,-0.75,-0.49,-0.02,0.01,0.01,-34.69,8.69,17.69,0.69,-0.01,-0.72,0.05,1094
2178,9.77,-0.72,-0.46,-0.03,0.02,0.02,-34.69,8.69,17.69,0.69,-0.01,-0.72,0.05,1095
2179,9.78,-0.72,-0.46,-0.03,0.02,0.02,-34.69,8.69,17.69,0.69,-0.01,-0.72,0.05,1096
2180,9.75,-0.72,-0.48,-0.02,0.02,0.02,-34.69,8.69,17.69,0.69,-0.01,-0.72,0.05,1097
2181,9.75,-0.72,-0.48,-0.01,0.01,0.01,-34.69,8.69,17.69,0.69,-0.01,-0.72,0.05,1098
2182,9.76,-0.77,-0.52,-0.0,0.01,0.01,-34.06,8.25,18.06,0.69,-0.01,-0.72,0.05,1099
2183,9.78,-0.76,-0.52,-0.0,0.0,0.01,-34.06,8.25,18.06,0.69,-0.01,-0.72,0.05,1100
2184,9.78,-0.76,-0.52,0.0,-0.0,0.01,-34.06,8.25,18.06,0.69,-0.01,-0.72,0.05,1101
2185,9.78,-0.83,-0.41,-0.0,-0.0,0.01,-34.06,8.25,18.06,0.69,-0.01,-0.72,0.05,1102
2186,9.8,-0.85,-0.41,-0.01,-0.0,0.01,-34.06,8.25,18.06,0.69,-0.01,-0.72,0.05,1103
2187,9.74,-0.81,-0.4,-0.02,-0.01,0.01,-33.69,9.38,15.69,0.69,-0.01,-0.72,0.05,1104
2188,9.78,-0.78,-0.41,-0.03,-0.01,0.01,-33.69,9.38,15.69,0.69,-0.01,-0.72,0.05,1105
2189,9.8,-0.76,-0.36,-0.03,-0.0,0.02,-33.69,9.38,15.69,0.69,-0.01,-0.72,0.05,1106
2190,9.77,-0.77,-0.35,-0.04,0.0,0.02,-33.69,9.38,15.69,0.69,-0.01,-0.72,0.05,1107
2191,9.77,-0.77,-0.35,-0.04,0.0,0.01,-33.25,9.38,17.37,0.69,-0.01,-0.72,0.05,1108
2192,9.72,-0.86,-0.36,-0.04,0.0,0.02,-33.25,9.38,17.37,0.69,-0.01,-0.72,0.05,1109
2193,9.72,-0.9,-0.38,-0.04,0.0,0.01,-33.25,9.38,17.37,0.69,-0.01,-0.72,0.05,1110
2194,9.72,-0.88,-0.34,-0.05,-0.0,0.02,-33.25,9.38,17.37,0.69,-0.01,-0.72,0.04,1111
2195,9.7,-0.86,-0.3,-0.05,-0.0,0.02,-33.25,9.38,17.37,0.69,-0.01,-0.72,0.04,1112
2196,9.65,-0.84,-0.15,-0.04,0.01,0.0,-34.06,8.69,17.69,0.69,-0.01,-0.72,0.04,1113
2197,9.75,-0.78,-0.5,-0.04,0.01,0.0,-34.06,8.69,17.69,0.69,-0.01,-0.72,0.04,1114
2198,9.84,-0.8,-0.36,-0.01,0.01,0.01,-34.06,8.69,17.69,0.69,-0.01,-0.72,0.04,1115
2199,9.76,-0.82,-0.3,-0.01,0.01,0.01,-34.06,8.69,17.69,0.69,-0.01,-0.72,0.04,1116
2200,9.74,-0.81,-0.35,-0.01,0.02,0.0,-33.25,8.69,17.69,0.69,-0.01,-0.72,0.04,1117
2201,9.74,-0.81,-0.35,-0.01,0.02,0.0,-33.25,8.69,17.69,0.69,-0.01,-0.72,0.04,1118
2202,9.78,-0.84,-0.38,-0.02,0.02,0.01,-33.25,8.69,17.69,0.69,-0.01,-0.72,0.04,1119
2203,9.78,-0.87,-0.42,-0.03,0.03,0.01,-33.25,8.69,17.69,0.69,-0.01,-0.72,0.04,1120
2204,9.82,-0.81,-0.52,-0.03,0.04,0.01,-33.25,8.69,17.69,0.69,-0.01,-0.72,0.04,1121
2205,9.82,-0.81,-0.52,-0.04,0.03,0.01,-33.25,8.69,17.69,0.69,-0.01,-0.72,0.04,1122
2206,9.74,-0.75,-0.5,-0.03,0.03,0.01,-32.88,8.69,16.87,0.69,-0.01,-0.72,0.04,1123
2207,9.74,-0.75,-0.5,-0.02,0.03,0.01,-32.88,8.69,16.87,0.69,-0.01,-0.72,0.04,1124
2208,9.69,-0.76,-0.51,-0.02,0.03,0.0,-32.88,8.69,16.87,0.69,-0.01,-0.72,0.04,1125
2209,9.74,-0.8,-0.47,-0.01,0.03,0.01,-32.88,8.69,16.87,0.69,-0.01,-0.72,0.04,1126
2210,9.81,-0.87,-0.48,-0.0,0.03,0.01,-32.88,8.69,16.87,0.69,-0.01,-0.72,0.04,1127
2211,9.81,-0.93,-0.44,0.0,0.03,0.01,-34.38,9.25,18.06,0.69,-0.01,-0.72,0.04,1128
2212,9.82,-0.93,-0.39,-0.0,0.02,0.01,-34.38,9.25,18.06,0.69,-0.01,-0.72,0.04,1129
2213,9.82,-0.89,-0.37,-0.0,0.02,0.02,-34.38,9.25,18.06,0.69,-0.01,-0.72,0.04,1130
2214,9.82,-0.87,-0.33,-0.0,0.02,0.02,-34.38,9.25,18.06,0.69,-0.01,-0.72,0.04,1131
2215,9.78,-0.89,-0.32,-0.0,0.02,0.02,-34.38,9.25,18.06,0.69,-0.01,-0.72,0.04,1132
2216,9.75,-0.95,-0.28,0.0,0.01,0.01,-34.69,8.69,17.25,0.69,-0.01,-0.72,0.04,1133
2217,9.77,-0.97,-0.34,0.0,0.01,0.01,-34.69,8.69,17.25,0.69,-0.01,-0.72,0.04,1134
2218,9.83,-1.0,-0.42,0.0,0.01,0.01,-34.69,8.69,17.25,0.69,-0.01,-0.72,0.04,1135
2219,9.86,-0.96,-0.45,-0.01,0.01,0.01,-34.69,8.69,17.25,0.69,-0.01,-0.72,0.04,1136
2220,9.88,-0.94,-0.38,-0.02,0.01,0.01,-34.69,8.69,17.25,0.69,-0.01,-0.72,0.04,1137
2221,9.84,-0.91,-0.3,-0.03,0.01,0.01,-33.25,8.69,17.69,0.69,-0.01,-0.72,0.04,1138
2222,9.76,-0.86,-0.22,-0.04,0.0,0.0,-33.25,8.69,17.69,0.69,-0.01,-0.72,0.04,1139
2223,9.69,-0.86,-0.14,-0.03,-0.0,0.0,-33.25,8.69,17.69,0.69,-0.01,-0.72,0.04,1140
2224,9.67,-0.89,-0.14,-0.02,-0.01,-0.0,-33.25,8.69,17.69,0.69,-0.01,-0.72,0.04,1141
2225,9.67,-0.88,-0.12,-0.01,-0.0,-0.01,-33.25,8.69,17.69,0.69,-0.01,-0.72,0.04,1142
2226,9.69,-0.83,-0.12,-0.01,0.01,-0.0,-34.06,7.87,18.06,0.69,-0.01,-0.72,0.04,1143
2227,9.74,-0.8,-0.19,-0.01,0.01,-0.0,-34.06,7.87,18.06,0.69,-0.01,-0.72,0.04,1144
2228,9.77,-0.8,-0.21,0.0,0.01,0.0,-34.06,7.87,18.06,0.69,-0.01,-0.72,0.04,1145
2229,9.89,-0.81,-0.35,0.0,0.01,0.0,-34.06,7.87,18.06,0.69,-0.01,-0.72,0.04,1146
2230,9.7,-0.8,-0.23,0.01,0.01,0.01,-34.06,7.87,18.06,0.69,-0.01,-0.72,0.04,1147
2231,9.63,-0.85,-0.25,0.01,0.01,-0.0,-34.38,9.38,17.69,0.69,-0.01,-0.72,0.04,1148
2232,9.66,-0.88,-0.3,0.02,0.0,-0.01,-34.38,9.38,17.69,0.69,-0.01,-0.72,0.04,1149
2233,9.66,-0.88,-0.3,0.03,-0.0,-0.01,-34.38,9.38,17.69,0.69,-0.01,-0.72,0.04,1150
2234,9.82,-0.82,-0.44,0.04,0.0,-0.01,-34.38,9.38,17.69,0.69,-0.01,-0.72,0.04,1151
2235,9.84,-0.78,-0.41,0.05,0.01,-0.01,-34.38,9.38,17.69,0.69,-0.01,-0.72,0.04,1152
2236,9.86,-0.83,-0.37,0.04,0.01,-0.0,-33.69,8.25,16.06,0.69,-0.01,-0.72,0.05,1153
2237,9.81,-0.85,-0.36,0.04,0.01,0.0,-33.69,8.25,16.06,0.69,-0.01,-0.72,0.05,1154
2238,9.77,-0.88,-0.38,0.04,0.01,0.0,-33.69,8.25,16.06,0.69,-0.01,-0.72,0.05,1155
2239,9.75,-0.89,-0.36,0.04,0.01,-0.0,-33.69,8.25,16.06,0.69,-0.01,-0.72,0.05,1156
2240,9.75,-0.89,-0.36,0.03,0.01,-0.0,-33.69,8.25,16.06,0.69,-0.01,-0.72,0.05,1157
2241,9.91,-0.89,-0.58,0.03,0.01,-0.0,-33.25,8.88,17.37,0.69,-0.01,-0.72,0.05,1158
2242,9.91,-0.89,-0.58,0.02,-0.01,0.01,-33.25,8.88,17.37,0.69,-0.01,-0.72,0.05,1159
2243,9.75,-0.89,-0.34,0.01,0.01,0.0,-33.25,8.88,17.37,0.69,-0.01,-0.72,0.05,1160
2244,9.78,-0.91,-0.29,-0.0,0.0,-0.0,-33.25,8.88,17.37,0.69,-0.01,-0.72,0.05,1161
2245,9.78,-0.91,-0.29,-0.0,0.0,-0.0,-33.25,8.88,17.37,0.69,-0.01,-0.72,0.05,1162
2246,9.71,-0.86,-0.21,-0.01,0.01,-0.0,-33.69,8.19,16.5,0.69,-0.01,-0.72,0.05,1163
2247,9.71,-0.86,-0.21,-0.01,0.01,-0.0,-33.69,8.19,16.5,0.69,-0.01,-0.72,0.05,1164
2248,9.69,-0.78,-0.25,-0.01,0.01,-0.01,-33.69,8.19,16.5,0.69,-0.01,-0.72,0.05,1165
2249,9.72,-0.77,-0.3,0.01,0.0,-0.01,-33.69,8.19,16.5,0.69,-0.01,-0.72,0.05,1166
2250,9.78,-0.78,-0.38,0.01,0.0,-0.01,-33.69,8.19,16.5,0.69,-0.01,-0.72,0.05,1167
2251,9.8,-0.79,-0.35,0.03,0.02,0.0,-33.25,8.56,17.69,0.69,-0.01,-0.72,0.05,1168
2252,9.8,-0.81,-0.31,0.03,0.02,0.0,-33.25,8.56,17.69,0.69,-0.01,-0.72,0.05,1169
2253,9.82,-0.81,-0.34,0.03,0.02,-0.0,-33.25,8.56,17.69,0.69,-0.01,-0.72,0.05,1170
2254,9.88,-0.8,-0.42,0.04,0.0,-0.0,-33.25,8.56,17.69,0.69,-0.01,-0.72,0.05,1171
2255,9.65,-0.75,-0.33,0.04,-0.0,0.0,-33.25,8.56,17.69,0.69,-0.01,-0.72,0.05,1172
2256,9.63,-0.75,-0.32,0.03,-0.0,-0.0,-34.06,9.25,17.37,0.69,-0.01,-0.72,0.05,1173
2257,9.69,-0.8,-0.32,0.03,-0.01,-0.01,-34.06,9.25,17.37,0.69,-0.01,-0.72,0.05,1174
2258,9.69,-0.93,-0.31,0.03,-0.01,-0.01,-34.06,9.25,17.37,0.69,-0.01,-0.72,0.05,1175
2259,9.76,-0.96,-0.41,0.02,-0.0,-0.01,-34.06,9.25,17.37,0.69,-0.01,-0.72,0.05,1176
2260,9.76,-0.96,-0.41,-0.01,-0.0,-0.01,-34.06,9.25,17.37,0.69,-0.01,-0.72,0.05,1177
2261,9.82,-0.93,-0.39,-0.02,-0.01,-0.01,-34.38,9.25,18.5,0.69,-0.01,-0.72,0.05,1178
2262,9.82,-0.83,-0.28,-0.03,-0.01,-0.0,-34.38,9.25,18.5,0.69,-0.01,-0.72,0.05,1179
2263,9.82,-0.78,-0.33,-0.02,-0.01,-0.01,-34.38,9.25,18.5,0.69,-0.01,-0.72,0.05,1180
2264,9.83,-0.76,-0.25,-0.02,-0.01,-0.01,-34.38,9.25,18.5,0.69,-0.01,-0.72,0.05,1181
2265,9.8,-0.76,-0.19,-0.02,-0.01,-0.01,-34.38,9.25,18.5,0.69,-0.01,-0.72,0.05,1182
2266,9.74,-0.81,-0.19,-0.01,-0.01,-0.01,-33.25,9.25,16.5,0.69,-0.01,-0.72,0.05,1183
2267,9.75,-0.79,-0.26,-0.01,-0.01,-0.01,-33.25,9.25,16.5,0.69,-0.01,-0.72,0.05,1184
2268,9.7,-0.82,-0.29,0.0,-0.01,-0.0,-33.25,9.25,16.5,0.69,-0.01,-0.72,0.05,1185
2269,9.75,-0.76,-0.26,0.0,-0.01,-0.0,-33.25,9.25,16.5,0.69,-0.01,-0.72,0.05,1186
2270,9.75,-0.68,-0.22,-0.0,-0.0,0.0,-33.25,9.25,16.5,0.69,-0.01,-0.72,0.05,1187
2271,9.77,-0.7,-0.24,-0.0,-0.01,0.01,-34.38,8.56,16.87,0.69,-0.01,-0.72,0.05,1188
2272,9.75,-0.81,-0.27,0.01,-0.02,0.0,-34.38,8.56,16.87,0.69,-0.01,-0.72,0.05,1189
2273,9.75,-0.81,-0.27,0.02,-0.02,0.0,-34.38,8.56,16.87,0.69,-0.01,-0.72,0.05,1190
2274,9.76,-0.86,-0.47,0.02,0.0,-0.0,-34.38,8.56,16.87,0.69,-0.01,-0.72,0.05,1191
2275,9.83,-0.89,-0.35,0.02,-0.01,-0.0,-34.38,8.56,16.87,0.69,-0.01,-0.72,0.05,1192
2276,9.77,-0.88,-0.32,0.01,-0.01,0.0,-33.25,7.5,17.69,0.69,-0.01,-0.72,0.05,1193
2277,9.77,-0.83,-0.46,0.0,-0.0,-0.0,-33.25,7.5,17.69,0.69,-0.01,-0.72,0.05,1194
2278,9.79,-0.83,-0.35,-0.01,-0.01,0.0,-33.25,7.5,17.69,0.69,-0.01,-0.72,0.05,1195
2279,9.77,-0.83,-0.33,-0.01,-0.01,-0.0,-33.25,7.5,17.69,0.69,-0.01,-0.72,0.05,1196
2280,9.68,-0.81,-0.24,-0.02,-0.01,-0.0,-33.25,7.5,17.69,0.69,-0.01,-0.72,0.05,1197
2281,9.69,-0.76,-0.41,-0.01,-0.0,-0.0,-33.69,8.56,16.87,0.69,-0.01,-0.72,0.05,1198
2282,9.72,-0.77,-0.36,-0.0,-0.0,-0.01,-33.69,8.56,16.87,0.69,-0.01,-0.72,0.05,1199
2283,9.83,-0.75,-0.48,0.01,-0.0,-0.01,-33.69,8.56,16.87,0.69,-0.01,-0.72,0.05,1200
2284,9.83,-0.78,-0.38,0.01,-0.0,0.0,-33.69,8.56,16.87,0.69,-0.01,-0.72,0.05,1201
2285,9.82,-0.78,-0.34,0.0,0.0,0.01,-33.69,8.56,16.87,0.69,-0.01,-0.72,0.05,1202
2286,9.7,-0.81,-0.43,0.0,-0.0,0.01,-32.88,8.56,16.5,0.69,-0.01,-0.72,0.05,1203
2287,9.8,-0.77,-0.5,0.0,-0.0,0.0,-32.88,8.56,16.5,0.69,-0.01,-0.72,0.05,1204
2288,9.82,-0.78,-0.43,0.01,-0.02,0.0,-32.88,8.56,16.5,0.69,-0.01,-0.72,0.05,1205
2289,9.79,-0.83,-0.38,0.02,-0.02,0.0,-32.88,8.56,16.5,0.69,-0.01,-0.72,0.05,1206
2290,9.78,-0.86,-0.37,0.02,-0.02,0.01,-32.88,8.56,17.69,0.69,-0.01,-0.72,0.05,1207
2291,9.75,-0.87,-0.35,0.01,-0.01,0.0,-32.88,8.56,17.69,0.69,-0.01,-0.72,0.05,1208
2292,9.72,-0.9,-0.35,0.0,-0.01,0.0,-32.88,8.56,17.69,0.69,-0.01,-0.72,0.05,1209
2293,9.72,-0.91,-0.33,-0.01,-0.01,0.01,-32.88,8.56,17.69,0.69,-0.01,-0.72,0.05,1210
2294,9.71,-0.84,-0.33,-0.01,-0.01,0.01,-32.88,8.56,17.69,0.69,-0.01,-0.72,0.05,1211
2295,9.76,-0.85,-0.31,-0.02,0.01,0.01,-34.06,8.56,17.69,0.69,-0.01,-0.72,0.05,1212
2296,9.78,-0.87,-0.32,-0.02,0.01,0.01,-34.06,8.56,17.69,0.69,-0.01,-0.72,0.05,1213
2297,9.77,-0.89,-0.35,-0.02,0.01,0.01,-34.06,8.56,17.69,0.69,-0.01,-0.72,0.05,1214
2298,9.77,-0.9,-0.3,-0.02,0.01,0.01,-34.06,8.56,17.69,0.69,-0.01,-0.72,0.05,1215
2299,9.74,-0.89,-0.27,-0.03,-0.0,0.01,-34.06,8.56,17.69,0.69,-0.01,-0.72,0.05,1216
2300,9.78,-0.81,-0.35,-0.03,-0.01,0.01,-34.06,8.19,17.37,0.69,-0.01,-0.72,0.05,1217
2301,9.8,-0.82,-0.37,-0.02,-0.01,0.0,-34.06,8.19,17.37,0.69,-0.01,-0.72,0.05,1218
2302,9.82,-0.79,-0.37,0.0,0.0,0.0,-34.06,8.19,17.37,0.69,-0.01,-0.72,0.05,1219
2303,9.82,-0.82,-0.43,0.0,0.0,0.0,-34.06,8.19,17.37,0.69,-0.01,-0.72,0.05,1220
2304,9.76,-0.86,-0.41,0.01,0.01,-0.0,-32.88,8.56,17.37,0.69,-0.01,-0.72,0.05,1221
2305,9.7,-0.89,-0.36,0.01,0.01,-0.0,-32.88,8.56,17.37,0.69,-0.01,-0.72,0.05,1222
2306,9.71,-0.89,-0.35,-0.01,0.01,0.0,-32.88,8.56,17.37,0.69,-0.01,-0.72,0.05,1223
2307,9.73,-0.89,-0.36,-0.02,-0.0,0.0,-32.88,8.56,17.37,0.69,-0.01,-0.72,0.05,1224
2308,9.73,-0.82,-0.3,-0.02,-0.0,-0.0,-32.88,8.56,17.37,0.69,-0.01,-0.72,0.05,1225
2309,9.76,-0.82,-0.3,-0.02,0.01,0.0,-33.25,8.56,16.87,0.69,-0.01,-0.72,0.05,1226
2310,9.78,-0.82,-0.34,-0.02,0.01,0.0,-33.25,8.56,16.87,0.69,-0.01,-0.72,0.05,1227
2311,9.79,-0.8,-0.31,-0.03,0.01,0.01,-33.25,8.56,16.87,0.69,-0.01,-0.72,0.05,1228
2312,9.78,-0.81,-0.3,-0.03,0.02,0.01,-33.25,8.56,16.87,0.69,-0.01,-0.72,0.05,1229
2313,9.73,-0.86,-0.25,-0.03,0.02,0.01,-33.25,8.56,16.87,0.69,-0.01,-0.72,0.05,1230
2314,9.71,-0.88,-0.29,-0.02,0.01,0.0,-34.06,8.56,16.5,0.69,-0.01,-0.72,0.05,1231
2315,9.69,-0.83,-0.33,-0.02,0.01,0.0,-34.06,8.56,16.5,0.69,-0.01,-0.72,0.05,1232
2316,9.77,-0.83,-0.37,-0.01,0.0,0.0,-34.06,8.56,16.5,0.69,-0.01,-0.72,0.05,1233
2317,9.8,-0.82,-0.34,-0.0,-0.0,0.0,-34.06,8.56,16.5,0.69,-0.01,-0.72,0.05,1234
2318,9.8,-0.82,-0.34,-0.0,0.0,0.01,-34.06,8.56,16.5,0.69,-0.01,-0.72,0.05,1235
2319,9.79,-0.84,-0.32,-0.0,0.01,0.01,-34.69,8.88,17.37,0.69,-0.01,-0.72,0.05,1236
2320,9.78,-0.85,-0.33,0.0,0.01,0.01,-34.69,8.88,17.37,0.69,-0.01,-0.72,0.05,1237
2321,9.72,-0.85,-0.19,-0.01,0.02,-0.0,-34.69,8.88,17.37,0.69,-0.01,-0.72,0.05,1238
2322,9.74,-0.88,-0.31,-0.01,0.02,-0.0,-34.69,8.88,17.37,0.69,-0.01,-0.72,0.05,1239
2323,9.73,-0.95,-0.34,-0.0,0.01,-0.01,-34.69,8.88,17.37,0.69,-0.01,-0.72,0.05,1240
2324,9.72,-0.91,-0.36,0.0,0.01,-0.01,-33.69,8.19,17.69,0.69,-0.01,-0.72,0.05,1241
2325,9.76,-0.92,-0.4,-0.0,0.01,-0.01,-33.69,8.19,17.69,0.69,-0.01,-0.72,0.05,1242
2326,9.8,-0.89,-0.42,-0.02,0.02,0.0,-33.69,8.19,17.69,0.69,-0.01,-0.72,0.05,1243
2327,9.83,-0.8,-0.35,-0.02,0.02,0.0,-33.69,8.19,17.69,0.69,-0.01,-0.72,0.05,1244
2328,9.8,-0.79,-0.31,-0.03,0.02,0.01,-33.69,8.19,17.69,0.69,-0.01,-0.72,0.05,1245
2329,9.8,-0.78,-0.41,-0.03,0.02,0.01,-33.25,8.19,16.87,0.69,-0.01,-0.72,0.05,1246
2330,9.69,-0.8,-0.12,-0.02,0.0,0.01,-33.25,8.19,16.87,0.69,-0.01,-0.72,0.05,1247
2331,9.64,-0.82,-0.35,-0.01,0.01,0.0,-33.25,8.19,16.87,0.69,-0.01,-0.72,0.05,1248
2332,9.7,-0.83,-0.35,0.01,0.01,-0.0,-33.25,8.19,16.87,0.69,-0.01,-0.72,0.05,1249
2333,9.7,-0.83,-0.35,0.01,0.01,-0.0,-33.25,8.19,16.87,0.69,-0.01,-0.72,0.05,1250
2334,9.86,-0.87,-0.37,0.01,0.01,-0.0,-34.38,8.88,17.69,0.69,-0.01,-0.72,0.05,1251
2335,9.84,-0.86,-0.34,0.01,0.02,0.0,-34.38,8.88,17.69,0.69,-0.01,-0.72,0.05,1252
2336,9.81,-0.87,-0.34,0.0,0.03,0.0,-34.38,8.88,17.69,0.69,-0.01,-0.72,0.05,1253
2337,9.77,-0.85,-0.3,0.0,0.03,0.0,-34.38,8.88,17.69,0.69,-0.01,-0.72,0.05,1254
2338,9.7,-0.88,-0.27,0.0,0.02,0.0,-34.38,8.88,17.69,0.69,-0.01,-0.72,0.05,1255
2339,9.71,-0.87,-0.32,0.01,0.02,-0.0,-34.38,8.56,17.37,0.69,-0.01,-0.72,0.05,1256
2340,9.8,-0.86,-0.3,0.01,0.02,-0.0,-34.38,8.56,17.37,0.69,-0.01,-0.72,0.05,1257
2341,9.8,-0.86,-0.3,0.01,0.02,-0.01,-34.38,8.56,17.37,0.69,-0.01,-0.72,0.05,1258
2342,9.77,-0.8,-0.38,0.01,0.02,-0.0,-34.38,8.56,17.37,0.69,-0.01,-0.72,0.05,1259
2343,9.76,-0.81,-0.4,0.01,0.01,-0.0,-34.38,8.56,17.37,0.69,-0.01,-0.72,0.05,1260
2344,9.82,-0.91,-0.41,0.01,0.0,0.0,-34.06,8.88,16.87,0.69,-0.01,-0.72,0.05,1261
2345,9.77,-0.95,-0.38,0.01,0.0,0.0,-34.06,8.88,16.87,0.69,-0.01,-0.72,0.05,1262
2346,9.72,-0.92,-0.33,0.01,0.0,0.0,-34.06,8.88,16.87,0.69,-0.01,-0.72,0.05,1263
2347,9.75,-0.87,-0.34,0.01,0.01,-0.0,-34.06,8.88,16.87,0.69,-0.01,-0.72,0.05,1264
2348,9.77,-0.85,-0.26,0.0,0.01,0.0,-33.69,8.88,18.5,0.69,-0.01,-0.72,0.05,1265
2349,9.78,-0.81,-0.22,-0.01,0.02,0.01,-33.69,8.88,18.5,0.69,-0.01,-0.72,0.05,1266
2350,9.75,-0.83,-0.24,-0.01,0.02,0.01,-33.69,8.88,18.5,0.69,-0.01,-0.72,0.05,1267
2351,9.72,-0.82,-0.22,-0.02,0.02,0.0,-33.69,8.88,18.5,0.69,-0.01,-0.72,0.05,1268
2352,9.71,-0.84,-0.24,-0.01,0.02,-0.0,-33.69,8.88,18.5,0.69,-0.01,-0.72,0.05,1269
2353,9.71,-0.85,-0.23,-0.01,0.02,-0.01,-33.25,8.56,19.37,0.69,-0.01,-0.72,0.05,1270
2354,9.78,-0.89,-0.28,-0.01,0.02,-0.01,-33.25,8.56,19.37,0.69,-0.01,-0.72,0.05,1271
2355,9.79,-0.87,-0.33,-0.01,0.02,-0.01,-33.25,8.56,19.37,0.69,-0.01,-0.72,0.05,1272
2356,9.79,-0.86,-0.3,-0.01,0.03,-0.0,-33.25,8.56,19.37,0.69,-0.01,-0.72,0.05,1273
2357,9.76,-0.79,-0.28,0.0,0.03,0.0,-33.25,8.56,19.37,0.69,-0.01,-0.72,0.05,1274
2358,9.87,-0.78,-0.38,0.0,0.04,-0.0,-34.38,8.56,17.37,0.69,-0.01,-0.72,0.05,1275
2359,9.7,-0.82,-0.08,0.01,0.02,-0.0,-34.38,8.56,17.37,0.69,-0.01,-0.72,0.05,1276
2360,9.68,-0.85,-0.31,0.02,0.03,0.0,-34.38,8.56,17.37,0.69,-0.01,-0.72,0.05,1277
2361,9.68,-0.85,-0.31,0.03,0.04,-0.01,-34.38,8.56,17.37,0.69,-0.01,-0.72,0.05,1278
2362,9.82,-0.93,-0.44,0.03,0.04,-0.01,-34.38,8.56,17.37,0.69,-0.01,-0.72,0.05,1279
2363,9.82,-0.93,-0.44,0.03,0.04,-0.01,-33.69,8.88,17.37,0.69,-0.01,-0.72,0.05,1280
2364,9.86,-0.85,-0.38,0.01,0.02,-0.0,-33.69,8.88,17.37,0.69,-0.01,-0.72,0.05,1281
2365,9.87,-0.78,-0.38,0.01,0.03,0.01,-33.69,8.88,17.37,0.69,-0.01,-0.72,0.05,1282
2366,9.91,-0.76,-0.34,0.01,0.02,0.0,-33.69,8.88,17.37,0.69,-0.01,-0.72,0.05,1283
2367,9.95,-0.71,-0.31,0.01,0.01,-0.0,-33.69,8.88,17.37,0.69,-0.01,-0.72,0.05,1284
2368,9.89,-0.57,-0.34,0.03,-0.0,-0.02,-34.38,9.25,16.87,0.69,-0.01,-0.72,0.05,1285
2369,9.8,-0.58,-0.52,0.06,-0.0,-0.03,-34.38,9.25,16.87,0.69,-0.01,-0.72,0.05,1286
2370,9.74,-0.6,-0.66,0.1,-0.01,-0.05,-34.38,9.25,16.87,0.69,-0.01,-0.72,0.05,1287
2371,9.65,-0.62,-0.78,0.13,-0.03,-0.06,-34.38,9.25,16.87,0.69,-0.01,-0.72,0.05,1288
2372,9.54,-0.58,-1.13,0.15,-0.03,-0.06,-34.38,9.25,16.87,0.69,-0.01,-0.72,0.05,1289
2373,9.6,-0.54,-1.35,0.16,-0.05,-0.06,-34.38,8.56,17.69,0.69,-0.01,-0.72,0.05,1290
2374,9.79,-0.5,-1.57,0.18,-0.07,-0.06,-34.38,8.56,17.69,0.69,-0.01,-0.72,0.05,1291
2375,9.93,-0.41,-1.5,0.21,-0.1,-0.05,-34.38,8.56,17.69,0.69,-0.01,-0.72,0.05,1292
2376,9.94,-0.46,-1.3,0.25,-0.12,-0.04,-34.38,8.56,17.69,0.69,-0.01,-0.72,0.05,1293
2377,9.94,-0.46,-1.3,0.29,-0.13,-0.04,-34.38,8.56,17.69,0.69,-0.0,-0.72,0.05,1294
2378,9.69,-0.79,-1.4,0.3,-0.13,-0.06,-34.06,8.19,16.19,0.69,-0.0,-0.72,0.05,1295
2379,9.69,-0.79,-1.4,0.3,-0.12,-0.07,-34.06,8.19,16.19,0.69,-0.0,-0.72,0.05,1296
2380,9.55,-1.13,-1.2,0.25,-0.1,-0.07,-34.06,8.19,16.19,0.69,-0.0,-0.72,0.05,1297
2381,9.57,-1.16,-1.06,0.18,-0.09,-0.07,-34.06,8.19,16.19,0.69,-0.0,-0.72,0.05,1298
2382,9.61,-1.07,-1.03,0.09,-0.09,-0.07,-34.06,8.19,16.19,0.69,0.0,-0.72,0.05,1299
2383,9.63,-0.77,-0.86,0.02,-0.09,-0.08,-33.69,8.56,16.87,0.69,0.0,-0.72,0.05,1300
2384,9.65,-0.71,-0.75,-0.03,-0.1,-0.09,-33.69,8.56,16.87,0.69,0.0,-0.72,0.05,1301
2385,9.66,-0.75,-0.61,-0.01,-0.09,-0.11,-33.69,8.56,16.87,0.69,0.0,-0.72,0.05,1302
2386,9.76,-0.94,-0.12,0.03,-0.08,-0.13,-33.69,8.56,16.87,0.69,0.0,-0.72,0.05,1303
2387,9.49,-1.3,0.23,0.12,0.0,-0.15,-32.88,9.0,16.87,0.69,0.0,-0.72,0.05,1304
2388,9.49,-1.3,0.23,0.13,0.04,-0.13,-32.88,9.0,16.87,0.69,0.01,-0.72,0.05,1305
2389,9.68,-1.19,0.25,0.14,0.07,-0.13,-32.88,9.0,16.87,0.69,0.01,-0.72,0.05,1306
2390,9.68,-1.19,0.25,0.14,0.07,-0.13,-34.38,8.56,17.69,0.69,0.01,-0.72,0.05,1307
2391,9.71,-1.16,-0.01,0.2,0.1,-0.13,-34.38,8.56,17.69,0.69,0.01,-0.72,0.05,1308
2392,9.75,-1.16,-0.15,0.24,0.12,-0.12,-34.38,8.56,17.69,0.69,0.01,-0.72,0.05,1309
2393,9.82,-1.19,-0.26,0.26,0.15,-0.13,-34.38,8.56,17.69,0.69,0.01,-0.72,0.05,1310
2394,9.78,-1.25,-0.37,0.26,0.16,-0.14,-34.38,8.56,17.69,0.69,0.01,-0.72,0.05,1311
2395,9.7,-1.22,-0.46,0.25,0.18,-0.15,-34.69,8.19,16.5,0.69,0.01,-0.72,0.05,1312
2396,9.66,-1.18,-0.4,0.23,0.19,-0.16,-34.69,8.19,16.5,0.69,0.01,-0.72,0.05,1313
2397,9.71,-1.0,-0.35,0.18,0.23,-0.17,-34.69,8.19,16.5,0.7,0.02,-0.72,0.05,1314
2398,9.74,-0.94,-0.22,0.18,0.23,-0.17,-34.69,8.19,16.5,0.7,0.02,-0.72,0.05,1315
2399,9.78,-0.85,0.0,0.15,0.26,-0.18,-34.69,8.19,16.5,0.7,0.02,-0.72,0.05,1316
2400,9.72,-0.54,0.23,0.13,0.28,-0.21,-34.38,8.69,17.37,0.7,0.02,-0.71,0.05,1317
2401,9.68,-0.43,0.26,0.14,0.3,-0.21,-34.38,8.69,17.37,0.7,0.02,-0.71,0.05,1318
2402,9.68,-0.43,0.26,0.21,0.35,-0.21,-34.38,8.69,17.37,0.7,0.02,-0.71,0.05,1319
2403,9.51,-0.31,0.25,0.25,0.37,-0.22,-34.38,8.69,17.37,0.7,0.02,-0.71,0.05,1320
2404,9.51,-0.31,0.25,0.25,0.37,-0.22,-34.06,8.19,16.87,0.7,0.03,-0.71,0.05,1321
2405,9.63,-0.14,0.23,0.35,0.39,-0.23,-34.06,8.19,16.87,0.7,0.03,-0.71,0.05,1322
2406,9.7,-0.09,0.22,0.41,0.41,-0.24,-34.06,8.19,16.87,0.71,0.03,-0.71,0.05,1323
2407,9.8,-0.02,0.11,0.47,0.42,-0.24,-34.06,8.19,16.87,0.71,0.03,-0.7,0.06,1324
2408,9.75,-0.04,0.17,0.52,0.43,-0.24,-34.06,8.19,16.87,0.71,0.03,-0.7,0.06,1325
2409,9.68,0.03,0.15,0.55,0.42,-0.24,-34.38,7.69,15.69,0.71,0.04,-0.7,0.06,1326
2410,9.63,0.03,0.16,0.57,0.41,-0.24,-34.38,7.69,15.69,0.71,0.04,-0.7,0.06,1327
2411,9.63,-0.17,0.16,0.6,0.41,-0.23,-34.38,7.69,15.69,0.71,0.05,-0.7,0.06,1328
2412,9.65,-0.3,0.21,0.59,0.41,-0.22,-34.38,7.69,15.69,0.71,0.05,-0.7,0.06,1329
2413,9.65,-0.3,0.21,0.54,0.39,-0.21,-34.38,7.69,15.69,0.72,0.05,-0.69,0.06,1330
2414,9.72,-0.26,0.24,0.47,0.37,-0.21,-35.06,7.37,14.87,0.72,0.05,-0.69,0.06,1331
2415,9.72,-0.26,0.24,0.42,0.35,-0.22,-35.06,7.37,14.87,0.72,0.05,-0.69,0.06,1332
2416,9.63,-0.17,0.18,0.37,0.34,-0.22,-35.06,7.37,14.87,0.72,0.05,-0.69,0.06,1333
2417,9.68,-0.04,0.22,0.32,0.32,-0.22,-35.06,7.37,14.87,0.72,0.06,-0.69,0.06,1334
2418,9.8,0.08,0.28,0.3,0.31,-0.22,-35.06,7.37,14.87,0.72,0.06,-0.69,0.07,1335
2419,9.76,0.13,0.39,0.29,0.3,-0.21,-35.56,7.56,13.56,0.72,0.06,-0.69,0.07,1336
2420,9.65,0.2,0.39,0.28,0.3,-0.19,-35.56,7.56,13.56,0.72,0.06,-0.68,0.07,1337
2421,9.5,0.31,0.29,0.27,0.28,-0.19,-35.56,7.56,13.56,0.72,0.06,-0.68,0.07,1338
2422,9.5,0.31,0.29,0.25,0.27,-0.18,-35.56,7.56,13.56,0.72,0.06,-0.68,0.07,1339
2423,9.69,0.27,0.16,0.21,0.26,-0.16,-35.56,7.56,13.56,0.73,0.06,-0.68,0.07,1340
2424,9.69,0.27,0.16,0.21,0.26,-0.16,-36.25,7.0,12.88,0.73,0.07,-0.68,0.07,1341
2425,10.0,-0.25,0.17,0.06,0.29,-0.09,-36.25,7.0,12.88,0.73,0.07,-0.68,0.07,1342
2426,9.83,-0.18,0.21,-0.06,0.29,-0.07,-36.25,7.0,12.88,0.73,0.07,-0.68,0.07,1343
2427,9.55,0.07,0.21,-0.18,0.27,-0.06,-36.25,7.0,12.88,0.73,0.06,-0.68,0.06,1344
2428,9.25,0.94,0.25,-0.26,0.27,-0.07,-36.25,7.0,12.88,0.73,0.06,-0.68,0.06,1345
2429,9.35,1.25,0.31,-0.3,0.27,-0.06,-36.25,6.75,13.25,0.73,0.06,-0.68,0.06,1346
2430,9.49,1.3,0.35,-0.29,0.28,-0.06,-36.25,6.75,13.25,0.73,0.06,-0.68,0.06,1347
2431,9.49,1.3,0.35,-0.27,0.29,-0.05,-36.25,6.75,13.25,0.73,0.06,-0.67,0.06,1348
2432,9.58,0.52,0.49,-0.29,0.32,-0.04,-36.25,6.75,13.25,0.74,0.06,-0.67,0.06,1349
2433,9.52,0.36,0.58,-0.34,0.33,-0.03,-36.25,6.75,13.25,0.74,0.06,-0.67,0.06,1350
2434,9.53,0.28,0.54,-0.41,0.33,-0.02,-37.0,7.0,12.25,0.74,0.06,-0.67,0.06,1351
2435,9.52,0.32,0.4,-0.47,0.34,-0.0,-37.0,7.0,12.25,0.74,0.06,-0.67,0.06,1352
2436,9.57,0.43,0.46,-0.49,0.36,0.03,-37.0,7.0,12.25,0.74,0.05,-0.67,0.05,1353
2437,9.59,0.57,0.51,-0.5,0.39,0.06,-37.0,7.0,12.25,0.74,0.05,-0.67,0.05,1354
2438,9.61,0.64,0.3,-0.46,0.39,0.08,-37.0,7.0,12.25,0.74,0.05,-0.67,0.05,1355
2439,9.41,0.55,-0.08,-0.41,0.37,0.1,-36.0,6.69,11.25,0.74,0.05,-0.67,0.05,1356
2440,9.35,0.56,-0.14,-0.37,0.36,0.11,-36.0,6.69,11.25,0.74,0.05,-0.66,0.05,1357
2441,9.39,0.6,-0.12,-0.35,0.38,0.13,-36.0,6.69,11.25,0.75,0.04,-0.66,0.05,1358
2442,9.4,0.45,0.12,-0.32,0.39,0.13,-36.0,6.69,11.25,0.75,0.04,-0.66,0.05,1359
2443,9.4,0.45,0.12,-0.33,0.39,0.15,-36.0,6.69,11.25,0.75,0.04,-0.66,0.05,1360
2444,9.36,0.7,0.67,-0.35,0.41,0.17,-36.0,6.69,10.75,0.75,0.04,-0.66,0.05,1361
2445,9.36,0.97,1.46,-0.35,0.47,0.14,-36.0,6.69,10.75,0.75,0.04,-0.66,0.05,1362
2446,9.36,0.97,1.46,-0.35,0.47,0.14,-36.0,6.69,10.75,0.75,0.03,-0.65,0.05,1363
2447,9.31,0.94,1.56,-0.33,0.5,0.13,-36.0,6.69,10.75,0.75,0.03,-0.65,0.05,1364
2448,9.38,0.68,1.17,-0.27,0.51,0.14,-37.88,6.56,10.25,0.76,0.03,-0.65,0.05,1365
2449,9.38,0.68,1.17,-0.27,0.51,0.14,-37.88,6.56,10.25,0.76,0.03,-0.65,0.05,1366
2450,9.73,-0.31,1.32,-0.26,0.54,0.2,-37.88,6.56,10.25,0.76,0.03,-0.65,0.05,1367
2451,9.73,-0.31,1.32,-0.26,0.54,0.2,-37.88,6.56,10.25,0.76,0.03,-0.64,0.05,1368
2452,9.8,-0.59,1.38,-0.29,0.57,0.2,-37.88,6.56,10.25,0.76,0.03,-0.64,0.05,1369
2453,9.57,-0.71,1.42,-0.33,0.59,0.22,-37.5,7.25,10.06,0.77,0.02,-0.64,0.05,1370
2454,9.37,-0.51,1.37,-0.38,0.6,0.22,-37.5,7.25,10.06,0.77,0.02,-0.64,0.05,1371
2455,9.36,-0.15,1.39,-0.46,0.63,0.19,-37.5,7.25,10.06,0.77,0.02,-0.64,0.05,1372
2456,9.46,0.05,1.39,-0.46,0.63,0.19,-37.5,7.25,10.06,0.77,0.02,-0.64,0.05,1373
2457,9.64,0.46,1.29,-0.5,0.63,0.2,-37.5,7.25,10.06,0.77,0.01,-0.63,0.04,1374
2458,9.62,0.63,1.32,-0.52,0.63,0.22,-37.5,7.25,10.06,0.77,0.01,-0.63,0.04,1375
2459,9.73,0.76,1.26,-0.51,0.62,0.23,-37.75,6.25,7.25,0.78,0.01,-0.63,0.04,1376
2460,9.91,0.8,0.81,-0.51,0.61,0.26,-37.75,6.25,7.25,0.78,0.0,-0.63,0.04,1377
2461,10.0,0.82,0.45,-0.52,0.58,0.26,-37.75,6.25,7.25,0.78,0.0,-0.63,0.04,1378
2462,10.27,0.88,0.22,-0.5,0.55,0.25,-37.75,6.25,7.25,0.78,0.0,-0.62,0.04,1379
2463,10.36,0.79,0.16,-0.48,0.55,0.28,-37.75,6.25,7.25,0.78,-0.0,-0.62,0.04,1380
2464,10.36,0.79,0.16,-0.48,0.53,0.29,-38.0,7.19,7.0,0.78,-0.01,-0.62,0.04,1381
2465,10.19,0.35,0.0,-0.47,0.52,0.3,-38.0,7.19,7.0,0.79,-0.01,-0.62,0.04,1382
2466,10.11,0.11,0.02,-0.45,0.51,0.34,-38.0,7.19,7.0,0.79,-0.01,-0.62,0.04,1383
2467,9.98,-0.38,-0.23,-0.43,0.44,0.33,-38.0,7.19,7.0,0.79,-0.02,-0.61,0.04,1384
2468,10.08,-0.44,-0.07,-0.42,0.39,0.31,-38.0,7.19,7.0,0.79,-0.02,-0.61,0.04,1385
2469,10.39,-0.38,-0.34,-0.44,0.39,0.36,-39.06,7.25,6.19,0.79,-0.02,-0.61,0.04,1386
2470,10.57,-0.34,-0.63,-0.5,0.34,0.41,-39.06,7.25,6.19,0.79,-0.02,-0.61,0.04,1387
2471,10.57,-0.34,-0.63,-0.56,0.28,0.43,-39.06,7.25,6.19,0.79,-0.03,-0.61,0.04,1388
2472,10.44,-0.22,-1.26,-0.65,0.28,0.44,-39.06,7.25,6.19,0.79,-0.03,-0.61,0.04,1389
2473,10.67,0.21,-1.41,-0.75,0.17,0.46,-39.06,7.25,6.19,0.79,-0.03,-0.61,0.04,1390
2474,11.11,1.19,-1.76,-0.79,0.07,0.49,-38.88,8.0,4.25,0.79,-0.04,-0.61,0.04,1391
2475,11.71,1.74,-1.67,-0.79,-0.09,0.5,-38.88,8.0,4.25,0.79,-0.04,-0.61,0.04,1392
2476,13.1,2.42,-1.67,-0.55,-0.34,0.46,-38.88,8.0,4.25,0.79,-0.05,-0.61,0.04,1393
2477,14.77,2.89,-2.26,-0.55,-0.34,0.46,-38.88,8.0,4.25,0.79,-0.05,-0.61,0.04,1394
2478,15.04,1.76,-4.28,-0.45,-0.53,0.45,-38.88,8.0,4.25,0.79,-0.05,-0.61,0.04,1395
2479,13.96,0.68,-5.84,-0.32,-0.93,0.42,-39.88,7.5,5.5,0.79,-0.06,-0.62,0.04,1396
2480,12.59,-0.5,-5.98,-0.13,-1.4,0.45,-39.88,7.5,5.5,0.78,-0.06,-0.62,0.04,1397
2481,11.9,-0.85,-6.53,-0.01,-1.58,0.53,-39.88,7.5,5.5,0.77,-0.06,-0.63,0.05,1398
2482,11.18,-0.5,-6.63,0.06,-1.71,0.52,-39.88,7.5,5.5,0.77,-0.06,-0.63,0.05,1399
2483,11.18,-0.5,-6.63,0.16,-1.87,0.44,-39.88,7.5,5.5,0.76,-0.06,-0.64,0.05,1400
2484,10.38,-0.5,-4.42,0.27,-1.87,0.34,-38.5,8.25,6.87,0.76,-0.06,-0.65,0.05,1401
2485,10.38,-0.5,-4.42,0.3,-1.92,0.25,-38.5,8.25,6.87,0.75,-0.06,-0.65,0.05,1402
2486,11.61,-0.92,-2.22,0.2,-2.04,0.17,-38.5,8.25,6.87,0.75,-0.06,-0.66,0.06,1403
2487,12.0,-0.83,-1.37,0.04,-2.03,0.11,-38.5,8.25,6.87,0.74,-0.06,-0.67,0.06,1404
2488,13.24,0.93,1.54,-0.24,-1.84,-0.09,-37.69,9.38,9.69,0.72,-0.06,-0.69,0.06,1405
2489,13.32,1.41,2.46,-0.29,-1.74,-0.31,-37.69,9.38,9.69,0.72,-0.06,-0.69,0.06,1406
2490,13.32,1.41,2.46,-0.26,-1.68,-0.51,-37.69,9.38,9.69,0.72,-0.06,-0.69,0.05,1407
2491,12.95,0.69,2.51,-0.17,-1.73,-0.62,-37.69,9.38,9.69,0.7,-0.05,-0.71,0.05,1408
2492,12.69,0.39,2.25,-0.02,-1.87,-0.65,-37.69,9.38,9.69,0.7,-0.05,-0.71,0.05,1409
2493,12.57,0.11,1.7,0.17,-2.02,-0.66,-37.69,10.0,13.19,0.7,-0.05,-0.71,0.05,1410
2494,12.17,-0.2,2.02,0.33,-2.17,-0.71,-37.69,10.0,13.19,0.69,-0.04,-0.72,0.05,1411
2495,11.56,-0.62,1.84,0.43,-2.13,-0.76,-37.69,10.0,13.19,0.68,-0.03,-0.73,0.05,1412
2496,11.37,-0.73,1.39,0.52,-2.08,-0.81,-37.69,10.0,13.19,0.68,-0.03,-0.73,0.05,1413
2497,11.2,-0.86,1.08,0.62,-2.13,-0.83,-37.69,10.0,13.19,0.67,-0.03,-0.74,0.05,1414
2498,11.08,-0.91,1.08,0.64,-2.16,-0.84,-37.38,7.5,18.19,0.66,-0.02,-0.75,0.05,1415
2499,10.98,-0.75,1.14,0.54,-2.14,-0.85,-37.38,7.5,18.19,0.65,-0.02,-0.76,0.05,1416
2500,10.36,-0.93,0.78,0.3,-2.04,-0.84,-37.38,7.5,18.19,0.63,-0.0,-0.77,0.04,1417
2501,10.36,-0.93,0.78,0.3,-2.04,-0.84,-37.38,7.5,18.19,0.63,-0.0,-0.77,0.04,1418
2502,10.16,-0.73,0.72,0.25,-1.96,-0.84,-35.06,7.06,21.06,0.62,0.01,-0.79,0.04,1419
2503,9.92,-0.51,0.75,0.25,-1.96,-0.84,-35.06,7.06,21.06,0.61,0.01,-0.79,0.04,1420
2504,9.48,-0.34,0.88,0.3,-1.89,-0.88,-35.06,7.06,21.06,0.61,0.01,-0.79,0.04,1421
2505,9.24,-0.35,0.88,0.42,-1.84,-0.91,-35.06,7.06,21.06,0.6,0.02,-0.8,0.04,1422
2506,9.04,-0.42,0.76,0.58,-1.81,-0.92,-35.06,7.06,21.06,0.6,0.02,-0.8,0.04,1423
2507,8.85,-0.47,0.65,0.69,-1.8,-0.92,-34.5,5.87,24.5,0.58,0.03,-0.81,0.04,1424
2508,8.48,-0.53,0.56,0.73,-1.78,-0.92,-34.5,5.87,24.5,0.58,0.03,-0.81,0.04,1425
2509,8.23,-0.75,0.55,0.74,-1.73,-0.9,-34.5,5.87,24.5,0.58,0.04,-0.82,0.04,1426
2510,7.97,-0.99,0.49,0.73,-1.67,-0.88,-34.5,5.87,24.5,0.56,0.05,-0.82,0.04,1427
2511,7.3,-1.46,0.36,0.74,-1.62,-0.84,-34.5,5.87,24.5,0.56,0.05,-0.82,0.04,1428
2512,7.07,-1.65,0.31,0.76,-1.56,-0.8,-32.0,5.0,27.25,0.55,0.06,-0.83,0.04,1429
2513,6.95,-1.8,0.21,0.77,-1.5,-0.75,-32.0,5.0,27.25,0.55,0.06,-0.83,0.04,1430
2514,6.86,-1.85,0.11,0.74,-1.43,-0.72,-32.0,5.0,27.25,0.54,0.07,-0.84,0.04,1431
2515,6.74,-1.93,-0.06,0.66,-1.35,-0.7,-32.0,5.0,27.25,0.54,0.07,-0.84,0.04,1432
2516,6.69,-1.87,-0.16,0.57,-1.27,-0.68,-32.0,5.0,27.25,0.53,0.08,-0.84,0.04,1433
2517,6.59,-1.68,-0.24,0.46,-1.2,-0.65,-29.5,4.87,29.56,0.53,0.08,-0.84,0.04,1434
2518,6.29,-1.57,-0.25,0.34,-1.12,-0.64,-29.5,4.87,29.56,0.52,0.08,-0.85,0.04,1435
2519,6.06,-1.56,-0.29,0.18,-1.0,-0.62,-29.5,4.87,29.56,0.52,0.09,-0.85,0.03,1436
2520,5.88,-1.51,-0.29,0.02,-0.82,-0.6,-29.5,4.87,29.56,0.52,0.09,-0.85,0.03,1437
2521,5.88,-1.51,-0.29,-0.15,-0.61,-0.59,-29.5,4.87,29.56,0.51,0.09,-0.85,0.03,1438
2522,5.81,-1.07,-0.69,-0.31,-0.4,-0.59,-28.56,3.87,32.0,0.51,0.09,-0.85,0.03,1439
2523,5.81,-1.07,-0.69,-0.31,-0.4,-0.59,-28.56,3.87,32.0,0.51,0.09,-0.85,0.03,1440
2524,6.26,-0.44,-0.98,-0.54,-0.25,-0.58,-28.56,3.87,32.0,0.51,0.1,-0.85,0.02,1441
2525,6.64,-0.08,-1.2,-0.58,-0.25,-0.55,-28.56,3.87,32.0,0.51,0.1,-0.85,0.02,1442
2526,7.51,0.73,-2.06,-0.55,-0.22,-0.53,-28.56,3.87,32.0,0.51,0.1,-0.85,0.01,1443
2527,7.61,1.0,-1.99,-0.47,-0.2,-0.52,-28.56,3.69,32.56,0.51,0.1,-0.86,0.01,1444
2528,7.74,1.18,-2.22,-0.37,-0.07,-0.51,-28.56,3.69,32.56,0.51,0.1,-0.85,0.01,1445
2529,8.02,1.24,-3.95,-0.19,0.16,-0.5,-28.56,3.69,32.56,0.51,0.1,-0.85,0.01,1446
2530,8.15,1.21,-4.89,0.07,0.35,-0.51,-28.56,3.69,32.56,0.51,0.1,-0.85,0.01,1447
2531,8.41,1.12,-5.78,0.38,0.45,-0.5,-28.56,3.69,32.56,0.51,0.11,-0.85,0.01,1448
2532,8.41,1.12,-5.78,0.38,0.45,-0.5,-26.87,2.25,32.06,0.51,0.11,-0.85,0.01,1449
2533,8.67,1.02,-7.73,0.83,0.58,-0.4,-26.87,2.25,32.06,0.52,0.11,-0.85,0.01,1450
2534,8.6,0.94,-8.74,1.0,0.63,-0.39,-26.87,2.25,32.06,0.52,0.12,-0.85,0.01,1451
2535,8.64,0.93,-10.05,1.11,0.61,-0.38,-26.87,2.25,32.06,0.52,0.13,-0.84,0.02,1452
2536,8.96,0.85,-13.17,1.12,0.53,-0.4,-26.87,2.25,32.06,0.52,0.13,-0.84,0.02,1453
2537,8.84,0.58,-14.05,1.12,0.33,-0.42,-29.06,2.06,31.37,0.52,0.13,-0.84,0.03,1454
2538,8.38,0.01,-13.66,1.22,0.09,-0.34,-29.06,2.06,31.37,0.52,0.13,-0.84,0.03,1455
2539,8.38,0.01,-13.66,1.27,-0.07,-0.16,-29.06,2.06,31.37,0.52,0.14,-0.84,0.03,1456
2540,8.83,-1.86,-8.56,1.05,-0.14,-0.02,-29.06,2.06,31.37,0.52,0.14,-0.84,0.04,1457
2541,8.76,-2.41,-6.79,0.6,-0.11,0.05,-29.06,2.06,31.37,0.52,0.14,-0.84,0.04,1458
2542,8.34,-2.72,-5.03,0.13,-0.01,0.09,-29.69,4.06,31.0,0.52,0.14,-0.84,0.04,1459
2543,7.04,-2.33,-1.03,-0.4,0.2,0.11,-29.69,4.06,31.0,0.52,0.14,-0.84,0.04,1460
2544,17.68,5.59,-7.47,-0.24,0.98,0.22,-28.87,3.25,30.56,0.54,0.13,-0.83,0.03,1461
2545,17.68,5.59,-7.47,-0.24,0.98,0.22,-28.87,3.25,30.56,0.54,0.13,-0.83,0.03,1462
2546,23.9,11.48,-12.2,-0.11,0.66,-0.15,-28.87,3.25,30.56,0.54,0.13,-0.83,0.03,1463
2547,20.06,12.35,-3.24,2.3,1.26,-1.72,-28.87,3.25,30.56,0.55,0.14,-0.82,0.04,1464
2548,11.39,3.59,-2.26,2.3,1.26,-1.72,-28.87,3.25,30.56,0.55,0.14,-0.82,0.04,1465
2549,7.36,-2.84,-2.82,3.6,1.88,-1.38,-30.06,3.25,29.37,0.56,0.17,-0.81,0.06,1466
2550,6.41,-7.68,0.47,2.52,2.34,-0.48,-30.06,3.25,29.37,0.56,0.17,-0.81,0.06,1467
2551,7.28,-13.99,5.43,1.13,2.61,0.18,-30.06,3.25,29.37,0.57,0.17,-0.8,0.07,1468
2552,6.15,-12.95,5.57,-0.11,2.36,0.43,-30.06,3.25,29.37,0.59,0.16,-0.79,0.07,1469
2553,4.56,-9.68,4.77,-0.8,1.71,0.42,-30.06,3.25,29.37,0.59,0.16,-0.79,0.07,1470
2554,6.0,0.01,3.42,-1.02,1.19,0.39,-33.69,4.06,26.56,0.6,0.15,-0.78,0.07,1471
2555,8.46,3.89,3.67,-1.24,0.85,0.36,-33.69,4.06,26.56,0.6,0.15,-0.78,0.07,1472
2556,8.46,3.89,3.67,-1.47,0.75,0.17,-33.69,4.06,26.56,0.6,0.15,-0.78,0.06,1473
2557,12.52,7.63,4.37,-1.27,0.99,-0.23,-33.69,4.06,26.56,0.61,0.14,-0.78,0.05,1474
2558,11.27,6.53,3.2,-0.72,1.37,-0.58,-33.69,4.06,26.56,0.61,0.14,-0.78,0.05,1475
2559,10.01,5.12,1.92,-0.25,1.58,-0.57,-36.56,5.06,23.87,0.62,0.14,-0.77,0.05,1476
2560,9.36,3.63,0.49,0.09,1.59,-0.35,-36.56,5.06,23.87,0.62,0.15,-0.77,0.05,1477
2561,10.0,1.04,-1.15,0.32,1.54,-0.18,-36.56,5.06,23.87,0.64,0.15,-0.76,0.06,1478
2562,10.52,0.02,-1.45,0.43,1.59,-0.06,-36.56,5.06,23.87,0.64,0.15,-0.76,0.06,1479
2563,10.62,-0.52,-1.52,0.41,1.68,0.17,-36.56,5.06,23.87,0.64,0.15,-0.75,0.06,1480
2564,10.27,-0.82,-1.88,0.28,1.71,0.42,-38.06,3.19,22.75,0.65,0.15,-0.75,0.06,1481
2565,8.9,-0.99,-2.24,0.12,1.68,0.5,-38.06,3.19,22.75,0.65,0.15,-0.74,0.07,1482
2566,8.61,-0.72,-2.2,-0.1,1.62,0.44,-38.06,3.19,22.75,0.66,0.14,-0.73,0.07,1483
2567,8.78,-0.44,-2.04,-0.36,1.56,0.33,-38.06,3.19,22.75,0.66,0.14,-0.73,0.07,1484
2568,8.78,-0.44,-2.04,-0.63,1.5,0.22,-38.06,3.19,22.75,0.67,0.14,-0.73,0.07,1485
2569,9.81,0.21,-1.49,-0.87,1.43,0.11,-39.38,4.25,18.06,0.68,0.13,-0.72,0.07,1486
2570,9.81,0.21,-1.49,-0.87,1.43,0.11,-39.38,4.25,18.06,0.68,0.13,-0.72,0.06,1487
2571,9.57,0.62,-1.5,-1.22,1.31,0.0,-39.38,4.25,18.06,0.69,0.12,-0.71,0.06,1488
2572,9.07,2.0,-0.86,-1.39,1.26,0.07,-39.38,4.25,18.06,0.69,0.12,-0.71,0.06,1489
2573,9.16,2.83,-0.59,-1.45,1.23,0.19,-39.38,4.25,18.06,0.7,0.11,-0.71,0.05,1490
2574,9.32,3.42,-0.41,-1.36,1.23,0.29,-40.56,4.06,17.06,0.7,0.11,-0.7,0.05,1491
2575,9.44,3.68,-0.28,-1.15,1.23,0.34,-40.56,4.06,17.06,0.71,0.1,-0.7,0.05,1492
2576,9.23,3.19,-0.28,-0.92,1.25,0.34,-40.56,4.06,17.06,0.71,0.1,-0.7,0.05,1493
2577,9.12,2.45,-0.24,-0.69,1.29,0.31,-40.56,4.06,17.06,0.72,0.09,-0.69,0.05,1494
2578,9.02,1.58,-0.12,-0.52,1.35,0.29,-40.56,4.06,17.06,0.72,0.09,-0.69,0.05,1495
2579,9.02,1.58,-0.12,-0.44,1.43,0.29,-42.06,3.87,13.88,0.72,0.09,-0.68,0.05,1496
2580,9.36,-0.1,0.49,-0.41,1.46,0.29,-42.06,3.87,13.88,0.73,0.08,-0.67,0.05,1497
2581,9.39,-0.19,0.44,-0.39,1.45,0.27,-42.06,3.87,13.88,0.73,0.08,-0.67,0.05,1498
2582,9.39,-0.19,0.44,-0.39,1.45,0.27,-42.06,3.87,13.88,0.74,0.08,-0.67,0.05,1499
2583,9.05,0.35,0.3,-0.36,1.33,0.27,-42.06,3.87,13.88,0.74,0.08,-0.66,0.05,1500
2584,9.05,0.35,0.3,-0.36,1.33,0.27,-42.75,5.0,11.0,0.75,0.07,-0.66,0.05,1501
2585,9.18,0.29,0.59,-0.42,1.27,0.35,-42.75,5.0,11.0,0.75,0.07,-0.65,0.05,1502
2586,9.47,-0.16,0.72,-0.49,1.26,0.36,-42.75,5.0,11.0,0.76,0.07,-0.65,0.05,1503
2587,9.65,-0.25,0.78,-0.54,1.28,0.34,-42.75,5.0,11.0,0.76,0.06,-0.64,0.05,1504
2588,9.89,-0.19,0.42,-0.7,1.32,0.26,-43.56,4.87,7.37,0.77,0.06,-0.64,0.05,1505
2589,9.89,-0.19,0.42,-0.7,1.32,0.26,-43.56,4.87,7.37,0.77,0.06,-0.64,0.05,1506
2590,9.86,0.2,0.31,-0.92,1.26,0.28,-43.56,4.87,7.37,0.78,0.05,-0.63,0.05,1507
2591,9.86,0.2,0.31,-0.92,1.26,0.28,-43.56,4.87,7.37,0.78,0.04,-0.62,0.04,1508
2592,9.86,0.15,0.21,-0.97,1.19,0.29,-43.56,4.87,7.37,0.78,0.04,-0.62,0.04,1509
2593,10.81,0.75,-0.13,-1.04,1.04,0.29,-44.88,4.0,5.06,0.79,0.03,-0.61,0.04,1510
2594,10.81,0.75,-0.13,-1.04,1.04,0.29,-44.88,4.0,5.06,0.79,0.03,-0.61,0.04,1511
2595,10.45,1.02,-0.3,-1.05,0.98,0.32,-44.88,4.0,5.06,0.79,0.02,-0.61,0.04,1512
2596,10.45,1.02,-0.3,-1.05,0.98,0.32,-44.88,4.0,5.06,0.8,0.02,-0.6,0.03,1513
2597,9.62,0.88,-0.01,-1.07,0.91,0.3,-44.88,4.0,5.06,0.8,0.02,-0.6,0.03,1514
2598,9.76,1.03,0.0,-1.15,0.71,0.34,-45.0,5.75,4.06,0.8,0.01,-0.6,0.03,1515
2599,9.92,1.34,0.08,-1.15,0.71,0.34,-45.0,5.75,4.06,0.8,0.01,-0.6,0.03,1516
2600,10.67,0.75,-0.5,-1.17,0.58,0.39,-45.0,5.75,4.06,0.81,-0.01,-0.59,0.03,1517
2601,10.48,-0.05,-0.96,-1.11,0.55,0.41,-45.0,5.75,4.06,0.81,-0.01,-0.59,0.03,1518
2602,10.32,-0.63,-1.49,-1.06,0.5,0.45,-45.0,5.75,4.06,0.81,-0.01,-0.59,0.02,1519
2603,10.69,-0.79,-2.76,-1.07,0.31,0.53,-44.69,6.5,1.0,0.81,-0.02,-0.59,0.02,1520
2604,11.12,-0.49,-3.48,-1.07,0.31,0.53,-44.69,6.5,1.0,0.81,-0.03,-0.59,0.02,1521
2605,11.46,-0.21,-4.36,-1.13,0.12,0.56,-44.69,6.5,1.0,0.81,-0.04,-0.59,0.02,1522
2606,12.12,0.88,-5.88,-1.29,-0.45,0.63,-44.69,6.5,1.0,0.81,-0.04,-0.59,0.02,1523
2607,12.12,0.88,-5.88,-1.29,-0.45,0.63,-44.69,6.5,1.0,0.8,-0.05,-0.59,0.02,1524
2608,14.29,3.69,-7.4,-1.41,-1.36,0.67,-44.75,6.5,1.37,0.8,-0.05,-0.6,0.02,1525
2609,14.29,3.69,-7.4,-1.31,-1.95,0.57,-44.75,6.5,1.37,0.79,-0.06,-0.6,0.02,1526
2610,17.17,4.37,-7.45,-1.11,-2.06,0.61,-44.75,6.5,1.37,0.79,-0.07,-0.61,0.02,1527
2611,15.17,2.44,-7.49,-0.62,-2.09,0.46,-44.75,6.5,1.37,0.78,-0.07,-0.62,0.02,1528
2612,13.35,0.91,-7.88,-0.17,-2.22,0.22,-44.75,6.5,1.37,0.77,-0.07,-0.64,0.02,1529
2613,12.64,1.07,-7.36,-0.1,-2.36,0.07,-44.38,8.25,3.75,0.77,-0.07,-0.64,0.02,1530
2614,13.47,3.16,-1.81,-0.32,-2.39,-0.04,-44.38,8.25,3.75,0.75,-0.07,-0.65,0.02,1531
2615,14.61,4.41,0.79,-0.66,-2.22,-0.18,-44.38,8.25,3.75,0.75,-0.07,-0.65,0.02,1532
2616,15.24,5.04,2.81,-0.7,-2.11,-0.42,-44.38,8.25,3.75,0.75,-0.07,-0.66,0.01,1533
2617,16.36,4.07,4.16,-0.45,-2.08,-0.69,-44.38,8.25,3.75,0.74,-0.07,-0.67,0.01,1534
2618,16.36,4.07,4.16,0.01,-2.12,-0.91,-43.38,9.25,8.56,0.73,-0.07,-0.68,0.01,1535
2619,16.83,1.43,5.2,0.61,-2.15,-1.06,-43.38,9.25,8.56,0.72,-0.06,-0.69,0.01,1536
2620,16.6,0.14,4.63,1.18,-2.39,-1.13,-43.38,9.25,8.56,0.72,-0.06,-0.69,0.01,1537
2621,16.6,0.14,4.63,1.6,-2.75,-1.14,-43.38,9.25,8.56,0.71,-0.05,-0.7,0.01,1538
2622,13.36,-0.81,4.31,1.69,-2.77,-1.14,-43.38,9.25,8.56,0.7,-0.04,-0.71,0.01,1539
2623,13.36,-0.81,4.31,1.69,-2.77,-1.14,-42.25,7.37,12.37,0.69,-0.03,-0.72,0.01,1540
2624,11.19,-1.94,2.34,1.51,-2.64,-1.12,-42.25,7.37,12.37,0.68,-0.02,-0.73,0.02,1541
2625,10.69,-2.14,2.13,1.35,-2.66,-1.08,-42.25,7.37,12.37,0.67,-0.01,-0.74,0.02,1542
2626,10.28,-2.14,2.1,1.14,-2.6,-1.06,-42.25,7.37,12.37,0.65,0.01,-0.76,0.02,1543
2627,10.16,-2.04,2.2,0.97,-2.52,-1.07,-42.25,7.37,12.37,0.65,0.01,-0.76,0.02,1544
2628,10.16,-2.08,2.18,0.83,-2.45,-1.09,-41.88,6.56,18.75,0.64,0.02,-0.77,0.02,1545
2629,10.0,-2.1,2.11,0.64,-2.39,-1.06,-41.88,6.56,18.75,0.64,0.02,-0.77,0.02,1546
2630,9.76,-1.69,2.31,0.41,-2.26,-1.0,-41.88,6.56,18.75,0.62,0.03,-0.78,0.01,1547
2631,9.21,-1.09,2.7,0.41,-2.26,-1.0,-41.88,6.56,18.75,0.62,0.03,-0.78,0.01,1548
2632,9.05,-0.64,2.81,0.45,-2.2,-1.0,-41.88,6.56,18.75,0.61,0.03,-0.79,0.01,1549
2633,8.92,-0.5,3.01,0.61,-2.14,-0.99,-39.0,5.75,22.69,0.6,0.04,-0.8,0.01,1550
2634,8.91,-0.44,3.19,0.81,-2.07,-0.93,-39.0,5.75,22.69,0.59,0.05,-0.8,0.01,1551
2635,8.67,-0.74,3.41,1.0,-2.04,-0.87,-39.0,5.75,22.69,0.58,0.06,-0.81,0.01,1552
2636,8.36,-0.96,3.44,1.17,-2.01,-0.83,-39.0,5.75,22.69,0.58,0.06,-0.81,0.01,1553
2637,8.36,-0.96,3.44,1.32,-1.98,-0.8,-39.0,5.75,22.69,0.57,0.07,-0.82,0.02,1554
2638,7.3,-1.33,2.97,1.46,-1.96,-0.75,-37.5,4.69,26.69,0.56,0.07,-0.82,0.02,1555
2639,7.3,-1.33,2.97,1.57,-1.92,-0.71,-37.5,4.69,26.69,0.55,0.08,-0.83,0.02,1556
2640,6.85,-1.5,2.52,1.57,-1.87,-0.68,-37.5,4.69,26.69,0.55,0.09,-0.83,0.03,1557
2641,6.81,-1.55,2.13,1.48,-1.83,-0.67,-37.5,4.69,26.69,0.54,0.09,-0.84,0.03,1558
2642,6.58,-1.91,1.41,1.37,-1.8,-0.65,-37.5,4.69,26.69,0.52,0.11,-0.85,0.03,1559
2643,6.38,-2.1,1.06,1.23,-1.68,-0.62,-35.0,4.75,30.19,0.52,0.11,-0.85,0.03,1560
2644,5.6,-2.13,0.11,0.77,-1.17,-0.61,-35.0,4.75,30.19,0.51,0.12,-0.85,0.04,1561
2645,5.49,-2.15,-0.2,0.46,-0.83,-0.61,-35.0,4.75,30.19,0.51,0.12,-0.85,0.04,1562
2646,5.7,-2.14,-0.7,0.09,-0.58,-0.6,-35.0,4.75,30.19,0.51,0.12,-0.85,0.04,1563
2647,6.22,-2.11,-1.24,-0.29,-0.56,-0.58,-32.5,6.25,32.88,0.5,0.12,-0.85,0.03,1564
2648,6.22,-2.11,-1.24,-0.64,-0.72,-0.54,-32.5,6.25,32.88,0.5,0.13,-0.86,0.03,1565
2649,7.45,-1.1,-2.43,-0.91,-0.89,-0.52,-32.5,6.25,32.88,0.49,0.13,-0.86,0.02,1566
2650,7.79,-0.17,-2.78,-1.03,-1.03,-0.53,-32.5,6.25,32.88,0.49,0.13,-0.86,0.02,1567
2651,7.8,0.58,-2.74,-0.99,-1.07,-0.54,-31.75,5.06,34.5,0.49,0.13,-0.86,0.01,1568
2652,7.64,1.42,-3.57,-0.76,-0.95,-0.46,-31.75,5.06,34.5,0.49,0.13,-0.86,0.01,1569
2653,7.52,1.85,-4.52,-0.05,-0.32,-0.36,-31.75,5.06,34.5,0.48,0.13,-0.87,0.0,1570
2654,7.06,2.19,-5.37,-0.05,-0.32,-0.36,-31.75,5.06,34.5,0.48,0.13,-0.87,0.0,1571
2655,7.27,2.34,-7.36,0.26,0.09,-0.34,-31.75,5.06,34.5,0.48,0.13,-0.87,0.0,1572
2656,8.46,2.63,-8.98,0.38,0.43,-0.33,-31.75,5.06,34.5,0.48,0.13,-0.86,0.0,1573
2657,8.72,2.23,-9.18,0.63,0.48,-0.29,-29.25,2.56,36.0,0.49,0.13,-0.86,0.01,1574
2658,8.71,1.7,-9.25,1.01,0.47,-0.14,-29.25,2.56,36.0,0.49,0.14,-0.86,0.01,1575
2659,8.53,0.34,-9.24,1.11,0.43,-0.03,-29.25,2.56,36.0,0.49,0.14,-0.86,0.01,1576
2660,8.53,0.34,-9.24,1.12,0.3,0.07,-29.25,2.56,36.0,0.49,0.14,-0.86,0.02,1577
2661,7.14,-1.52,-8.19,1.22,0.23,0.24,-29.25,2.56,36.0,0.49,0.14,-0.86,0.03,1578
2662,7.14,-1.52,-8.19,1.22,0.23,0.24,-30.06,4.0,35.19,0.49,0.15,-0.86,0.03,1579
2663,5.28,-1.76,-5.57,0.92,0.47,0.32,-30.06,4.0,35.19,0.49,0.15,-0.86,0.04,1580
2664,4.74,-1.86,-4.07,0.67,0.84,0.22,-30.06,4.0,35.19,0.49,0.15,-0.86,0.04,1581
2665,4.03,-2.3,-1.71,0.45,1.43,0.17,-30.06,4.0,35.19,0.51,0.15,-0.85,0.05,1582
2666,2.85,-3.21,3.06,0.23,2.15,0.21,-30.06,4.0,35.19,0.51,0.15,-0.85,0.05,1583
2667,3.61,-3.21,3.93,-0.12,2.65,0.22,-31.56,4.56,34.0,0.53,0.14,-0.84,0.05,1584
2668,6.74,-2.55,1.43,-0.37,2.4,0.17,-31.56,4.56,34.0,0.53,0.14,-0.84,0.05,1585
2669,6.74,-2.55,1.43,-0.42,1.14,0.1,-31.56,4.56,34.0,0.53,0.14,-0.83,0.05,1586
2670,28.7,6.36,-12.95,-0.42,0.69,0.02,-31.56,4.56,34.0,0.54,0.14,-0.83,0.05,1587
2671,35.58,13.75,-16.62,0.02,1.07,-0.6,-31.56,4.56,34.0,0.54,0.14,-0.83,0.05,1588
2672,31.01,16.14,-8.65,1.38,1.43,-1.81,-34.5,5.37,32.38,0.55,0.15,-0.82,0.05,1589
2673,9.22,-0.7,-7.19,2.65,2.04,-2.03,-34.5,5.37,32.38,0.55,0.17,-0.81,0.06,1590
2674,7.17,-6.74,-5.39,1.64,2.24,-1.05,-34.5,5.37,32.38,0.57,0.18,-0.8,0.06,1591
2675,5.95,-11.94,0.24,0.27,2.24,-0.18,-34.5,5.37,32.38,0.57,0.18,-0.8,0.06,1592
2676,4.25,-13.4,5.22,-0.87,1.96,0.33,-34.5,5.37,32.38,0.58,0.17,-0.8,0.06,1593
2677,3.06,-9.95,5.63,-1.69,1.36,0.58,-36.25,5.0,29.06,0.58,0.16,-0.79,0.06,1594
2678,3.56,-4.68,6.14,-2.05,0.92,0.74,-36.25,5.0,29.06,0.59,0.15,-0.79,0.05,1595
2679,6.31,0.77,6.4,-2.07,0.72,0.76,-36.25,5.0,29.06,0.6,0.14,-0.79,0.04,1596
2680,12.84,8.27,5.6,-1.9,0.81,0.41,-36.25,5.0,29.06,0.6,0.14,-0.79,0.04,1597
2681,12.84,8.27,5.6,-1.43,1.17,-0.17,-36.25,5.0,29.06,0.6,0.13,-0.79,0.04,1598
2682,13.74,9.2,5.82,-0.69,1.49,-0.55,-37.69,5.0,26.25,0.61,0.13,-0.78,0.03,1599
2683,13.74,9.2,5.82,-0.69,1.49,-0.55,-37.69,5.0,26.25,0.61,0.14,-0.78,0.03,1600
2684,7.99,3.15,1.53,0.22,1.63,0.08,-37.69,5.0,26.25,0.62,0.14,-0.77,0.04,1601
2685,8.16,1.88,-0.13,0.36,1.68,0.2,-37.69,5.0,26.25,0.63,0.14,-0.77,0.04,1602
2686,9.0,0.58,-1.56,0.43,1.72,0.13,-37.69,5.0,26.25,0.63,0.14,-0.76,0.04,1603
2687,10.43,-1.85,-2.27,0.21,1.81,0.39,-40.25,3.0,23.5,0.65,0.13,-0.75,0.05,1604
2688,10.43,-1.85,-2.27,-0.12,1.78,0.54,-40.25,3.0,23.5,0.65,0.13,-0.75,0.05,1605
2689,9.46,-0.68,-3.42,-0.44,1.66,0.51,-40.25,3.0,23.5,0.66,0.13,-0.74,0.05,1606
2690,8.97,-0.1,-3.29,-0.71,1.55,0.37,-40.25,3.0,23.5,0.66,0.12,-0.74,0.05,1607
2691,8.71,0.23,-3.05,-0.92,1.48,0.26,-42.06,3.87,19.87,0.67,0.12,-0.73,0.05,1608
2692,8.79,0.52,-2.79,-1.12,1.41,0.17,-42.06,3.87,19.87,0.67,0.12,-0.73,0.05,1609
2693,8.88,0.94,-2.66,-1.3,1.32,0.07,-42.06,3.87,19.87,0.69,0.11,-0.72,0.04,1610
2694,8.7,1.21,-2.4,-1.46,1.24,0.01,-42.06,3.87,19.87,0.69,0.11,-0.72,0.04,1611
2695,8.7,1.21,-2.4,-1.55,1.21,0.06,-42.06,3.87,19.87,0.69,0.1,-0.72,0.03,1612
2696,8.7,2.01,-2.27,-1.56,1.2,0.15,-43.56,4.37,17.19,0.69,0.09,-0.71,0.03,1613
2697,8.7,2.01,-2.27,-1.47,1.19,0.22,-43.56,4.37,17.19,0.7,0.09,-0.71,0.03,1614
2698,9.7,2.29,-1.57,-1.31,1.16,0.29,-43.56,4.37,17.19,0.7,0.08,-0.7,0.02,1615
2699,9.88,2.39,-1.34,-1.16,1.11,0.36,-43.56,4.37,17.19,0.71,0.08,-0.7,0.02,1616
2700,9.52,2.38,0.35,-0.85,1.23,0.39,-44.38,2.19,14.0,0.72,0.07,-0.69,0.02,1617
2701,9.12,1.96,0.65,-0.69,1.29,0.38,-44.38,2.19,14.0,0.72,0.06,-0.69,0.02,1618
2702,8.6,1.36,0.97,-0.57,1.31,0.36,-44.38,2.19,14.0,0.73,0.06,-0.68,0.02,1619
2703,8.2,0.51,1.33,-0.48,1.35,0.33,-44.38,2.19,14.0,0.73,0.06,-0.68,0.02,1620
2704,8.3,0.38,1.21,-0.4,1.38,0.31,-44.38,2.19,14.0,0.74,0.06,-0.68,0.02,1621
2705,8.48,0.45,1.14,-0.35,1.39,0.32,-46.19,2.87,12.06,0.74,0.05,-0.67,0.02,1622
2706,8.48,0.45,1.14,-0.29,1.44,0.34,-46.19,2.87,12.06,0.74,0.05,-0.67,0.02,1623
2707,9.09,1.71,1.86,-0.22,1.5,0.39,-46.19,2.87,12.06,0.75,0.05,-0.65,0.02,1624
2708,9.29,1.95,1.56,-0.12,1.49,0.35,-46.19,2.87,12.06,0.75,0.05,-0.65,0.02,1625
2709,9.29,1.95,1.56,0.03,1.47,0.29,-46.19,2.87,12.06,0.76,0.05,-0.65,0.02,1626
2710,8.96,0.34,0.2,0.15,1.46,0.24,-46.19,3.19,10.19,0.76,0.05,-0.64,0.02,1627
2711,8.96,0.34,0.2,0.15,1.46,0.24,-46.19,3.19,10.19,0.77,0.05,-0.64,0.03,1628
2712,9.04,-0.74,-0.58,-0.04,1.43,0.14,-46.19,3.19,10.19,0.77,0.04,-0.63,0.03,1629
2713,10.12,-1.12,-0.21,-0.26,1.38,0.13,-46.19,3.19,10.19,0.78,0.04,-0.63,0.03,1630
2714,10.41,-1.07,0.39,-0.47,1.33,0.2,-46.19,3.19,10.19,0.78,0.04,-0.62,0.03,1631
2715,10.7,-0.77,0.53,-0.67,1.23,0.22,-47.69,4.0,5.87,0.78,0.04,-0.62,0.03,1632
2716,10.79,-0.33,0.52,-0.8,1.11,0.21,-47.69,4.0,5.87,0.79,0.03,-0.61,0.02,1633
2717,10.08,0.39,0.54,-0.83,1.03,0.21,-47.69,4.0,5.87,0.79,0.03,-0.61,0.02,1634
2718,10.08,0.39,0.54,-0.86,0.96,0.2,-47.69,4.0,5.87,0.79,0.03,-0.61,0.02,1635
2719,9.9,0.53,0.76,-0.93,0.92,0.2,-47.69,4.0,5.87,0.8,0.02,-0.6,0.02,1636
2720,9.9,0.53,0.76,-1.01,0.86,0.24,-47.69,3.56,3.19,0.8,0.02,-0.6,0.02,1637
2721,11.21,0.62,1.13,-1.07,0.78,0.27,-47.69,3.56,3.19,0.8,0.01,-0.6,0.02,1638
2722,11.28,0.66,0.99,-1.11,0.72,0.28,-47.69,3.56,3.19,0.8,0.01,-0.6,0.01,1639
2723,11.28,0.66,0.99,-1.11,0.72,0.28,-47.69,3.56,3.19,0.81,0.0,-0.59,0.01,1640
2724,10.56,0.96,0.1,-1.14,0.64,0.27,-47.69,3.56,3.19,0.81,-0.0,-0.59,0.01,1641
2725,10.56,0.96,0.1,-1.14,0.64,0.27,-48.0,5.06,2.0,0.81,-0.01,-0.59,0.01,1642
2726,10.49,1.09,-0.83,-1.13,0.53,0.31,-48.0,5.06,2.0,0.81,-0.01,-0.59,0.0,1643
2727,11.61,0.6,-2.1,-1.06,0.4,0.39,-48.0,5.06,2.0,0.81,-0.02,-0.58,0.0,1644
2728,11.86,0.18,-2.65,-0.99,0.3,0.5,-48.0,5.06,2.0,0.81,-0.03,-0.58,0.0,1645
2729,12.0,-0.11,-3.45,-0.93,0.21,0.55,-48.0,5.06,2.0,0.81,-0.03,-0.58,0.0,1646
2730,12.46,-0.06,-4.5,-0.93,0.02,0.58,-47.25,5.19,0.5,0.81,-0.04,-0.58,0.0,1647
2731,12.63,0.41,-6.53,-0.98,-0.22,0.64,-47.25,5.19,0.5,0.81,-0.04,-0.58,0.0,1648
2732,12.45,1.13,-6.88,-1.03,-0.55,0.67,-47.25,5.19,0.5,0.81,-0.05,-0.59,0.0,1649
2733,13.21,2.53,-7.65,-1.15,-0.91,0.69,-47.25,5.19,0.5,0.81,-0.05,-0.59,0.0,1650
2734,14.9,3.69,-9.09,-1.24,-1.35,0.66,-47.25,5.19,0.5,0.8,-0.06,-0.59,0.0,1651
2735,15.1,3.67,-9.88,-1.15,-1.87,0.61,-47.69,6.69,1.25,0.8,-0.07,-0.6,-0.0,1652
2736,13.72,3.06,-9.28,-0.99,-2.07,0.58,-47.69,6.69,1.25,0.79,-0.07,-0.61,-0.0,1653
2737,12.13,1.82,-8.64,-0.71,-2.17,0.55,-47.69,6.69,1.25,0.78,-0.08,-0.62,0.0,1654
2738,12.01,1.93,-7.03,-0.59,-2.22,0.48,-47.69,6.69,1.25,0.78,-0.08,-0.62,0.0,1655
2739,12.01,1.93,-7.03,-0.74,-2.39,0.35,-47.69,6.69,1.25,0.77,-0.08,-0.63,0.0,1656
2740,14.05,4.84,-0.1,-1.02,-2.42,0.16,-46.5,7.25,6.87,0.76,-0.09,-0.64,-0.0,1657
2741,14.05,4.84,-0.1,-1.02,-2.42,0.16,-46.5,7.25,6.87,0.75,-0.09,-0.65,-0.0,1658
2742,18.26,6.91,5.98,-0.79,-2.17,-0.32,-46.5,7.25,6.87,0.75,-0.09,-0.66,-0.01,1659
2743,18.4,5.69,6.14,-0.38,-2.21,-0.7,-46.5,7.25,6.87,0.74,-0.09,-0.67,-0.01,1660
2744,17.36,0.92,3.03,0.93,-2.53,-1.2,-46.5,7.5,12.5,0.72,-0.07,-0.7,-0.01,1661
2745,16.04,0.02,4.51,1.56,-2.81,-1.35,-46.5,7.5,12.5,0.72,-0.07,-0.7,-0.01,1662
2746,16.04,0.02,4.51,2.04,-2.87,-1.43,-46.5,7.5,12.5,0.71,-0.06,-0.71,-0.01,1663
2747,13.96,-0.49,3.75,2.18,-2.69,-1.41,-46.5,7.5,12.5,0.69,-0.04,-0.72,0.0,1664
2748,12.46,-1.33,2.54,2.08,-2.71,-1.28,-46.5,7.5,12.5,0.69,-0.04,-0.72,0.0,1665
2749,11.58,-1.38,2.61,1.85,-2.8,-1.15,-43.69,6.06,18.19,0.68,-0.03,-0.73,0.0,1666
2750,10.86,-1.42,2.67,1.65,-2.81,-1.08,-43.69,6.06,18.19,0.67,-0.02,-0.74,0.01,1667
2751,10.32,-1.76,2.36,1.5,-2.73,-1.1,-43.69,6.06,18.19,0.65,-0.0,-0.76,0.01,1668
2752,10.34,-1.71,2.54,1.3,-2.64,-1.14,-43.69,6.06,18.19,0.65,-0.0,-0.76,0.01,1669
2753,10.34,-1.7,2.67,1.2,-2.57,-1.2,-43.69,6.06,18.19,0.64,0.01,-0.77,0.01,1670
2754,10.08,-1.74,2.74,1.18,-2.51,-1.24,-41.25,4.56,23.0,0.63,0.02,-0.78,0.01,1671
2755,10.08,-1.74,2.74,1.13,-2.45,-1.21,-41.25,4.56,23.0,0.62,0.02,-0.78,0.01,1672
2756,9.45,-1.87,3.28,1.03,-2.37,-1.15,-41.25,4.56,23.0,0.6,0.04,-0.8,0.01,1673
2757,9.35,-1.91,3.47,1.02,-2.31,-1.08,-41.25,4.56,23.0,0.6,0.04,-0.8,0.01,1674
2758,8.89,-1.88,3.61,1.07,-2.28,-1.0,-39.19,4.37,29.06,0.59,0.05,-0.81,0.01,1675
2759,8.5,-1.71,3.72,1.16,-2.26,-0.92,-39.19,4.37,29.06,0.59,0.05,-0.81,0.01,1676
2760,8.08,-1.55,3.77,1.28,-2.24,-0.85,-39.19,4.37,29.06,0.57,0.07,-0.82,0.02,1677
2761,7.6,-1.49,3.76,1.44,-2.19,-0.79,-39.19,4.37,29.06,0.57,0.07,-0.82,0.02,1678
2762,6.68,-1.73,3.42,1.6,-2.11,-0.72,-39.19,4.37,29.06,0.56,0.08,-0.83,0.02,1679
2763,6.25,-2.05,3.15,1.71,-2.02,-0.64,-39.19,4.37,29.06,0.55,0.08,-0.83,0.03,1680
2764,6.0,-2.25,2.88,1.7,-1.95,-0.56,-35.0,5.87,32.69,0.54,0.09,-0.84,0.03,1681
2765,5.84,-2.68,2.37,1.6,-1.89,-0.49,-35.0,5.87,32.69,0.52,0.1,-0.84,0.04,1682
2766,5.91,-2.9,2.13,1.4,-1.83,-0.44,-35.0,5.87,32.69,0.52,0.1,-0.84,0.04,1683
2767,5.91,-2.9,2.13,1.14,-1.75,-0.41,-35.0,5.87,32.69,0.52,0.11,-0.85,0.04,1684
2768,5.95,-3.33,1.3,0.83,-1.6,-0.39,-35.0,5.87,32.69,0.51,0.11,-0.85,0.04,1685
2769,5.95,-3.33,1.3,0.83,-1.6,-0.39,-31.5,8.56,35.19,0.5,0.11,-0.85,0.04,1686
2770,5.8,-2.93,-0.39,-0.01,-1.23,-0.46,-31.5,8.56,35.19,0.5,0.12,-0.86,0.04,1687
2771,5.88,-2.64,-0.91,-0.47,-1.05,-0.52,-31.5,8.56,35.19,0.5,0.12,-0.86,0.04,1688
2772,5.98,-1.3,-0.06,-0.99,-0.94,-0.56,-31.5,8.56,35.19,0.49,0.12,-0.86,0.03,1689
2773,6.08,-0.36,0.22,-1.41,-0.8,-0.57,-31.5,8.56,35.19,0.49,0.12,-0.86,0.03,1690
2774,6.29,0.68,0.24,-1.63,-0.57,-0.6,-29.37,8.88,37.0,0.49,0.11,-0.87,0.01,1691
2775,6.53,1.47,-0.01,-1.66,-0.35,-0.66,-29.37,8.88,37.0,0.49,0.11,-0.87,0.01,1692
2776,6.53,1.47,-0.01,-1.45,-0.22,-0.71,-29.37,8.88,37.0,0.49,0.11,-0.87,-0.0,1693
2777,7.02,2.53,-2.27,-0.95,-0.15,-0.69,-29.37,8.88,37.0,0.49,0.12,-0.87,-0.01,1694
2778,7.04,2.41,-3.5,-0.28,0.0,-0.62,-29.37,8.88,37.0,0.49,0.12,-0.87,-0.01,1695
2779,7.08,2.17,-4.71,0.36,0.26,-0.53,-28.25,5.56,37.5,0.49,0.12,-0.86,-0.01,1696
2780,8.21,1.43,-7.97,0.93,0.51,-0.43,-28.25,5.56,37.5,0.49,0.12,-0.86,-0.0,1697
2781,8.84,0.89,-9.29,1.39,0.61,-0.32,-28.25,5.56,37.5,0.49,0.13,-0.86,0.01,1698
2782,9.31,0.82,-9.99,1.65,0.55,-0.17,-28.25,5.56,37.5,0.49,0.13,-0.86,0.01,1699
2783,9.73,0.97,-10.83,1.62,0.5,-0.04,-28.25,5.56,37.5,0.49,0.14,-0.86,0.01,1700
2784,9.91,0.76,-11.36,1.43,0.47,-0.02,-28.87,4.37,36.75,0.49,0.14,-0.86,0.02,1701
2785,9.91,0.76,-11.36,1.15,0.41,-0.08,-28.87,4.37,36.75,0.5,0.14,-0.86,0.03,1702
2786,9.21,-0.3,-9.95,0.88,0.36,-0.1,-28.87,4.37,36.75,0.5,0.15,-0.85,0.03,1703
2787,7.99,-1.48,-7.1,0.75,0.33,-0.01,-28.87,4.37,36.75,0.5,0.15,-0.85,0.03,1704
2788,4.0,-3.13,-0.31,-0.55,1.78,0.59,-31.0,6.87,34.38,0.52,0.14,-0.84,0.04,1705
2789,6.64,-2.05,-1.5,-0.55,1.78,0.59,-31.0,6.87,34.38,0.52,0.14,-0.84,0.04,1706
2790,12.27,0.36,-4.29,-0.59,2.11,0.68,-31.0,6.87,34.38,0.53,0.14,-0.84,0.04,1707
2791,28.92,12.45,-18.9,-0.86,1.3,0.5,-31.25,5.75,34.75,0.53,0.13,-0.84,0.04,1708
2792,28.99,14.57,-9.0,-0.32,1.19,-0.34,-31.25,5.75,34.75,0.54,0.13,-0.83,0.04,1709
2793,18.5,8.69,-1.11,1.7,1.62,-1.47,-31.25,5.75,34.75,0.55,0.16,-0.82,0.05,1710
2794,8.69,-5.53,-2.88,3.57,2.15,-1.82,-31.25,5.75,34.75,0.55,0.16,-0.82,0.05,1711
2795,7.15,-12.02,1.67,2.54,2.36,-1.19,-31.25,5.75,34.75,0.56,0.17,-0.81,0.06,1712
2796,5.93,-14.78,3.32,0.55,2.3,-0.43,-34.06,5.37,30.37,0.57,0.17,-0.8,0.06,1713
2797,5.93,-14.78,3.32,-1.46,1.83,0.02,-34.06,5.37,30.37,0.57,0.17,-0.8,0.06,1714
2798,0.7,-5.44,5.89,-2.3,1.21,0.31,-34.06,5.37,30.37,0.58,0.15,-0.8,0.04,1715
2799,3.05,0.79,5.67,-2.42,0.77,0.68,-34.06,5.37,30.37,0.58,0.15,-0.8,0.04,1716
2800,15.38,11.07,7.27,-1.85,1.02,-0.11,-38.06,3.37,27.69,0.6,0.13,-0.79,0.02,1717
2801,16.27,10.95,7.2,-1.85,1.02,-0.11,-38.06,3.37,27.69,0.6,0.13,-0.79,0.02,1718
2802,16.27,10.95,7.2,-0.99,1.4,-0.56,-38.06,3.37,27.69,0.6,0.13,-0.79,0.02,1719
2803,10.61,6.61,4.41,0.6,1.67,0.07,-38.06,3.37,27.69,0.62,0.13,-0.78,0.03,1720
2804,7.42,3.13,1.24,1.02,1.79,0.32,-38.06,3.37,27.69,0.62,0.13,-0.78,0.03,1721
2805,7.91,1.78,0.32,1.27,1.9,0.29,-39.0,0.75,26.06,0.62,0.13,-0.77,0.04,1722
2806,8.95,0.39,-0.09,1.33,2.01,0.23,-39.0,0.75,26.06,0.63,0.14,-0.76,0.04,1723
2807,10.54,-1.64,-0.71,1.19,2.07,0.29,-39.0,0.75,26.06,0.64,0.14,-0.75,0.06,1724
2808,10.63,-2.2,-1.06,0.87,2.05,0.37,-39.0,0.75,26.06,0.64,0.14,-0.75,0.06,1725
2809,10.3,-2.53,-1.5,0.43,1.98,0.36,-39.0,0.75,26.06,0.65,0.14,-0.75,0.06,1726
2810,9.65,-2.61,-1.95,-0.05,1.89,0.29,-41.25,1.56,23.25,0.66,0.14,-0.74,0.06,1727
2811,9.65,-2.61,-1.95,-0.5,1.82,0.22,-41.25,1.56,23.25,0.66,0.13,-0.73,0.06,1728
2812,8.84,-1.19,-2.12,-0.85,1.75,0.16,-41.25,1.56,23.25,0.68,0.13,-0.72,0.06,1729
2813,8.97,-0.57,-1.98,-1.11,1.7,0.09,-41.25,1.56,23.25,0.68,0.13,-0.72,0.06,1730
2814,8.97,-0.57,-1.98,-1.26,1.64,0.05,-41.25,1.56,23.25,0.68,0.12,-0.72,0.05,1731
2815,9.6,0.81,-1.94,-1.31,1.57,0.05,-42.69,3.19,18.5,0.69,0.12,-0.71,0.05,1732
2816,9.6,0.81,-1.94,-1.31,1.57,0.05,-42.69,3.19,18.5,0.69,0.11,-0.71,0.05,1733
2817,9.43,1.69,-1.37,-1.27,1.45,0.22,-42.69,3.19,18.5,0.7,0.11,-0.7,0.04,1734
2818,9.08,2.65,-1.05,-1.18,1.41,0.32,-42.69,3.19,18.5,0.71,0.1,-0.7,0.04,1735
2819,9.05,3.06,-1.1,-1.03,1.42,0.37,-42.69,3.19,18.5,0.71,0.09,-0.7,0.04,1736
2820,9.15,3.14,-1.17,-0.83,1.48,0.34,-44.25,1.06,16.5,0.72,0.09,-0.69,0.04,1737
2821,9.36,2.88,-1.26,-0.68,1.53,0.27,-44.25,1.06,16.5,0.73,0.08,-0.68,0.04,1738
2822,9.79,1.89,-0.91,-0.55,1.54,0.24,-44.25,1.06,16.5,0.73,0.08,-0.68,0.04,1739
2823,9.79,1.89,-0.91,-0.49,1.5,0.24,-44.25,1.06,16.5,0.73,0.08,-0.68,0.04,1740
2824,9.68,0.7,0.01,-0.48,1.44,0.27,-44.25,1.06,16.5,0.74,0.08,-0.67,0.04,1741
2825,9.68,0.7,0.01,-0.48,1.44,0.27,-46.06,1.75,14.19,0.74,0.08,-0.67,0.04,1742
2826,8.81,-0.11,0.59,-0.51,1.41,0.32,-46.06,1.75,14.19,0.75,0.07,-0.66,0.04,1743
2827,8.81,-0.05,0.81,-0.51,1.44,0.32,-46.06,1.75,14.19,0.75,0.07,-0.66,0.04,1744
2828,9.1,0.15,1.13,-0.51,1.49,0.36,-46.06,1.75,14.19,0.76,0.06,-0.65,0.04,1745
2829,9.82,0.5,1.34,-0.56,1.51,0.38,-46.06,1.75,14.19,0.76,0.06,-0.65,0.04,1746
2830,9.96,0.57,1.26,-0.63,1.48,0.38,-48.19,2.19,10.25,0.77,0.05,-0.63,0.04,1747
2831,9.96,0.54,0.98,-0.65,1.46,0.36,-48.19,2.19,10.25,0.77,0.05,-0.63,0.04,1748
2832,9.96,0.54,0.98,-0.69,1.48,0.33,-48.19,2.19,10.25,0.77,0.05,-0.63,0.04,1749
2833,10.1,0.12,0.12,-0.79,1.47,0.31,-48.19,2.19,10.25,0.78,0.04,-0.62,0.04,1750
2834,10.32,0.05,-0.07,-0.86,1.41,0.29,-48.19,2.19,10.25,0.78,0.04,-0.62,0.04,1751
2835,10.59,0.0,-0.16,-0.91,1.3,0.28,-47.75,2.69,8.75,0.79,0.04,-0.61,0.03,1752
2836,11.75,0.78,-0.38,-0.96,1.16,0.31,-47.75,2.69,8.75,0.79,0.03,-0.61,0.03,1753
2837,11.97,1.28,-0.39,-1.03,1.07,0.33,-47.75,2.69,8.75,0.8,0.02,-0.6,0.03,1754
2838,11.84,1.66,-0.53,-1.05,1.02,0.36,-47.75,2.69,8.75,0.8,0.02,-0.6,0.03,1755
2839,11.07,1.56,-0.91,-1.07,0.94,0.37,-47.75,2.69,8.75,0.8,0.02,-0.6,0.03,1756
2840,10.59,1.25,-1.37,-1.14,0.85,0.4,-48.06,3.37,5.56,0.8,0.01,-0.6,0.03,1757
2841,10.28,1.21,-1.41,-1.2,0.74,0.45,-48.06,3.37,5.56,0.8,0.01,-0.59,0.02,1758
2842,10.27,0.97,-1.81,-1.19,0.64,0.49,-48.06,3.37,5.56,0.81,-0.01,-0.59,0.02,1759
2843,10.84,-0.19,-2.86,-1.17,0.46,0.51,-48.06,3.37,5.56,0.81,-0.01,-0.59,0.02,1760
2844,11.0,-0.61,-3.22,-1.15,0.29,0.52,-48.0,3.75,4.0,0.81,-0.02,-0.59,0.02,1761
2845,11.63,-0.67,-3.58,-1.2,0.12,0.53,-48.0,3.75,4.0,0.81,-0.02,-0.59,0.02,1762
2846,12.62,-0.59,-4.56,-1.41,-0.52,0.65,-48.0,3.75,4.0,0.81,-0.03,-0.59,0.02,1763
2847,12.74,-0.29,-5.34,-1.41,-0.52,0.65,-48.0,3.75,4.0,0.81,-0.03,-0.59,0.02,1764
2848,12.67,-0.24,-6.55,-1.54,-0.85,0.66,-48.0,3.75,4.0,0.8,-0.04,-0.59,0.02,1765
2849,12.19,-0.54,-8.06,-1.63,-1.16,0.62,-48.0,3.75,4.0,0.8,-0.05,-0.6,0.01,1766
2850,12.14,0.48,-10.41,-1.79,-1.49,0.64,-48.0,5.37,2.5,0.79,-0.06,-0.6,0.01,1767
2851,13.08,1.66,-10.61,-1.99,-1.9,0.7,-48.0,5.37,2.5,0.78,-0.08,-0.62,0.01,1768
2852,14.07,2.83,-9.34,-2.15,-2.08,0.76,-48.0,5.37,2.5,0.78,-0.08,-0.62,0.01,1769
2853,14.98,3.9,-7.37,-2.12,-2.19,0.75,-48.0,5.37,2.5,0.77,-0.09,-0.63,0.0,1770
2854,14.39,4.63,-6.04,-1.9,-2.38,0.68,-48.0,5.37,2.5,0.77,-0.1,-0.64,0.0,1771
2855,14.39,4.63,-6.04,-1.73,-2.43,0.47,-48.25,6.75,6.5,0.76,-0.1,-0.64,-0.0,1772
2856,13.55,8.28,0.63,-1.64,-2.19,0.11,-48.25,6.75,6.5,0.74,-0.11,-0.66,-0.01,1773
2857,16.51,10.03,3.13,-1.15,-2.08,-0.38,-48.25,6.75,6.5,0.74,-0.11,-0.66,-0.01,1774
2858,17.68,9.04,3.89,-0.46,-2.09,-0.88,-48.25,6.75,6.5,0.73,-0.11,-0.68,-0.02,1775
2859,18.06,6.56,5.61,0.28,-2.08,-1.21,-48.25,6.75,6.5,0.73,-0.11,-0.68,-0.02,1776
2860,18.43,1.26,5.45,1.05,-2.06,-1.34,-46.88,7.5,13.25,0.72,-0.09,-0.69,-0.01,1777
2861,18.76,-0.21,4.06,1.73,-2.3,-1.39,-46.88,7.5,13.25,0.72,-0.09,-0.69,-0.01,1778
2862,18.12,-1.03,4.41,2.27,-2.72,-1.41,-46.88,7.5,13.25,0.71,-0.08,-0.7,-0.01,1779
2863,16.57,-1.29,4.87,2.55,-2.83,-1.43,-46.88,7.5,13.25,0.69,-0.05,-0.72,0.0,1780
2864,14.22,-2.28,3.16,2.59,-2.77,-1.38,-46.88,7.5,13.25,0.69,-0.05,-0.72,0.0,1781
2865,13.3,-2.85,2.49,2.39,-2.76,-1.27,-46.5,5.75,18.5,0.67,-0.03,-0.74,0.01,1782
2866,12.31,-3.06,2.79,2.01,-2.77,-1.15,-46.5,5.75,18.5,0.67,-0.03,-0.74,0.01,1783
2867,11.22,-3.5,2.75,1.28,-2.67,-1.05,-46.5,5.75,18.5,0.65,-0.01,-0.76,0.01,1784
2868,9.55,-3.82,2.49,1.28,-2.67,-1.05,-46.5,5.75,18.5,0.65,-0.01,-0.76,0.01,1785
2869,9.35,-3.45,2.52,0.97,-2.61,-1.07,-46.5,5.75,18.5,0.64,-0.0,-0.77,0.01,1786
2870,9.15,-3.0,2.62,0.81,-2.53,-1.16,-43.56,6.0,25.56,0.63,0.0,-0.77,0.01,1787
2871,8.78,-2.18,2.98,0.68,-2.43,-1.22,-43.56,6.0,25.56,0.62,0.01,-0.78,0.01,1788
2872,8.63,-2.09,3.15,0.59,-2.34,-1.24,-43.56,6.0,25.56,0.61,0.02,-0.8,0.01,1789
2873,8.56,-2.03,3.17,0.54,-2.27,-1.21,-43.56,6.0,25.56,0.61,0.02,-0.8,0.01,1790
2874,8.56,-2.03,3.17,0.52,-2.23,-1.16,-43.56,6.0,25.56,0.6,0.03,-0.8,0.01,1791
2875,8.75,-2.03,3.62,0.54,-2.17,-1.08,-40.19,4.69,29.56,0.59,0.04,-0.81,0.01,1792
2876,8.75,-2.03,3.62,0.63,-2.15,-0.99,-40.19,4.69,29.56,0.58,0.04,-0.81,0.0,1793
2877,8.59,-1.64,3.91,0.77,-2.15,-0.91,-40.19,4.69,29.56,0.57,0.05,-0.82,0.0,1794
2878,7.77,-1.46,3.92,0.96,-2.14,-0.87,-40.19,4.69,29.56,0.56,0.05,-0.82,0.01,1795
2879,7.32,-1.54,3.76,1.17,-2.11,-0.82,-40.19,4.69,29.56,0.55,0.07,-0.84,0.01,1796
2880,6.84,-1.66,3.65,1.33,-2.07,-0.75,-36.25,4.25,33.56,0.55,0.07,-0.84,0.01,1797
2881,6.46,-1.7,3.48,1.4,-2.01,-0.69,-36.25,4.25,33.56,0.53,0.08,-0.85,0.02,1798
2882,6.15,-1.69,2.88,1.33,-1.96,-0.65,-36.25,4.25,33.56,0.53,0.08,-0.85,0.02,1799
2883,6.08,-1.69,2.72,1.11,-1.92,-0.62,-36.25,4.25,33.56,0.52,0.09,-0.85,0.02,1800
2884,6.06,-1.67,2.63,0.8,-1.83,-0.62,-36.25,4.25,33.56,0.51,0.09,-0.85,0.02,1801
2885,6.07,-1.82,1.99,0.45,-1.63,-0.64,-31.87,4.25,36.38,0.51,0.09,-0.86,0.02,1802
2886,6.01,-1.78,1.69,0.05,-1.37,-0.69,-31.87,4.25,36.38,0.5,0.1,-0.86,0.01,1803
2887,5.8,-1.6,1.45,-0.36,-1.06,-0.77,-31.87,4.25,36.38,0.5,0.1,-0.86,0.01,1804
2888,5.74,-1.34,0.94,-1.08,-0.54,-0.93,-31.87,4.25,36.38,0.49,0.1,-0.86,0.0,1805
2889,6.15,-0.38,0.01,-1.08,-0.54,-0.93,-31.87,4.25,36.38,0.49,0.1,-0.86,0.0,1806
2890,6.59,0.11,-0.49,-1.32,-0.48,-0.96,-30.19,5.0,39.25,0.49,0.1,-0.87,-0.02,1807
2891,6.93,0.79,-0.74,-1.41,-0.47,-0.96,-30.19,5.0,39.25,0.49,0.1,-0.87,-0.02,1808
2892,6.71,2.49,-0.94,-1.36,-0.39,-0.94,-30.19,5.0,39.25,0.49,0.11,-0.87,-0.02,1809
2893,6.68,3.31,-2.13,-1.13,-0.12,-0.97,-30.19,5.0,39.25,0.49,0.11,-0.87,-0.04,1810
2894,6.35,3.91,-2.94,-0.72,0.1,-1.01,-30.19,5.0,39.25,0.49,0.11,-0.87,-0.04,1811
2895,6.05,4.31,-3.95,-0.05,0.33,-1.02,-28.69,1.69,40.19,0.49,0.12,-0.86,-0.04,1812
2896,6.29,4.73,-7.13,0.78,0.59,-0.98,-28.69,1.69,40.19,0.49,0.12,-0.86,-0.04,1813
2897,6.29,4.73,-7.13,1.53,0.75,-0.92,-28.69,1.69,40.19,0.49,0.13,-0.86,-0.03,1814
2898,7.74,3.24,-10.54,2.13,0.7,-0.76,-28.69,1.69,40.19,0.49,0.14,-0.86,-0.02,1815
2899,9.49,1.19,-14.35,2.58,0.41,-0.46,-28.69,1.69,40.19,0.49,0.14,-0.86,-0.02,1816
2900,10.24,0.17,-13.79,3.23,-0.22,0.13,-27.25,-1.19,39.25,0.39,-0.43,-0.76,-0.29,1817
2901,10.38,-0.58,-12.67,3.15,-0.33,0.14,-27.25,-1.19,39.25,0.39,-0.43,-0.76,-0.29,1818
2902,10.38,-0.58,-12.67,2.85,-0.31,0.1,-27.25,-1.19,39.25,0.39,-0.42,-0.77,-0.28,1819
2903,9.15,-4.28,-7.94,2.35,-0.19,0.16,-27.25,-1.19,39.25,0.4,-0.42,-0.77,-0.27,1820
2904,9.15,-4.28,-7.94,2.35,-0.19,0.16,-28.69,3.0,39.75,0.4,-0.42,-0.77,-0.27,1821
2905,7.66,-5.33,-5.55,0.5,0.03,0.22,-28.69,3.0,39.75,0.4,-0.41,-0.77,-0.26,1822
2906,5.82,-4.71,-3.6,-0.68,0.18,0.17,-28.69,3.0,39.75,0.4,-0.42,-0.77,-0.27,1823
2907,4.11,-4.31,-0.43,-1.62,0.39,0.12,-28.69,3.0,39.75,0.4,-0.42,-0.76,-0.28,1824
2908,0.7,-3.84,5.68,-1.74,1.53,0.3,-28.69,3.0,39.75,0.4,-0.42,-0.76,-0.28,1825
2909,9.29,4.86,-7.12,-1.59,3.26,0.42,-27.69,6.06,38.19,0.41,-0.42,-0.75,-0.29,1826
2910,14.63,9.53,-11.02,-1.73,1.52,-0.18,-27.69,6.06,38.19,0.41,-0.42,-0.75,-0.3,1827
2911,23.46,15.18,-15.81,-1.06,0.62,-0.92,-27.69,6.06,38.19,0.42,-0.41,-0.75,-0.31,1828
2912,28.35,17.19,-9.96,1.19,1.61,-1.7,-27.69,6.06,38.19,0.42,-0.41,-0.75,-0.31,1829
2913,14.55,-0.38,-2.42,4.19,2.38,-1.53,-27.69,6.06,38.19,0.43,-0.39,-0.75,-0.31,1830
2914,11.83,-7.53,-2.97,4.36,2.33,-0.19,-30.19,3.87,36.25,0.45,-0.38,-0.75,-0.3,1831
2915,10.3,-13.18,0.83,2.46,2.27,0.46,-30.19,3.87,36.25,0.46,-0.37,-0.75,-0.29,1832
2916,4.58,-17.18,4.81,0.2,1.99,0.05,-30.19,3.87,36.25,0.47,-0.37,-0.74,-0.3,1833
2917,1.18,-13.09,6.7,-1.71,1.37,-0.33,-30.19,3.87,36.25,0.47,-0.37,-0.74,-0.3,1834
2918,1.18,-13.09,6.7,-2.6,0.74,-0.06,-30.19,3.87,36.25,0.47,-0.37,-0.74,-0.31,1835
2919,1.25,0.09,6.05,-2.67,0.42,0.49,-33.06,7.0,33.5,0.46,-0.38,-0.73,-0.32,1836
2920,1.25,0.09,6.05,-2.67,0.42,0.49,-33.06,7.0,33.5,0.46,-0.39,-0.73,-0.33,1837
2921,14.93,12.51,6.05,-2.76,0.69,0.29,-33.06,7.0,33.5,0.46,-0.39,-0.72,-0.34,1838
2922,17.45,13.9,6.49,-2.2,0.96,-0.32,-33.06,7.0,33.5,0.46,-0.4,-0.71,-0.35,1839
2923,12.68,9.73,4.05,-0.94,1.32,-0.82,-33.06,7.0,33.5,0.46,-0.39,-0.71,-0.36,1840
2924,9.03,6.59,2.27,0.29,1.56,-0.6,-36.0,3.87,30.69,0.47,-0.39,-0.71,-0.36,1841
2925,7.32,4.24,1.04,1.06,1.7,0.04,-36.0,3.87,30.69,0.48,-0.38,-0.7,-0.36,1842
2926,7.56,2.42,-0.01,1.49,1.81,0.41,-36.0,3.87,30.69,0.48,-0.38,-0.7,-0.36,1843
2927,7.56,2.42,-0.01,1.63,1.89,0.43,-36.0,3.87,30.69,0.49,-0.37,-0.7,-0.35,1844
2928,10.67,-1.23,-1.2,1.54,1.94,0.34,-36.0,3.87,30.69,0.5,-0.37,-0.7,-0.35,1845
2929,10.67,-1.23,-1.2,1.54,1.94,0.34,-37.88,2.19,28.69,0.51,-0.36,-0.7,-0.35,1846
2930,9.74,-2.34,-1.68,0.83,1.96,0.33,-37.88,2.19,28.69,0.52,-0.36,-0.69,-0.35,1847
2931,9.14,-2.28,-1.91,0.33,1.89,0.31,-37.88,2.19,28.69,0.53,-0.35,-0.69,-0.35,1848
2932,8.77,-2.14,-1.85,-0.15,1.82,0.23,-37.88,2.19,28.69,0.54,-0.35,-0.68,-0.36,1849
2933,8.81,-1.78,-1.63,-0.59,1.78,0.14,-37.88,2.19,28.69,0.54,-0.35,-0.68,-0.36,1850
2934,9.4,-1.0,-1.36,-0.95,1.76,0.06,-40.06,4.5,25.06,0.55,-0.35,-0.66,-0.37,1851
2935,9.64,-0.43,-1.2,-1.25,1.72,0.01,-40.06,4.5,25.06,0.55,-0.35,-0.66,-0.37,1852
2936,9.75,0.11,-1.13,-1.46,1.68,0.02,-40.06,4.5,25.06,0.55,-0.35,-0.65,-0.39,1853
2937,9.44,1.47,-0.52,-1.57,1.63,0.08,-40.06,4.5,25.06,0.55,-0.35,-0.65,-0.39,1854
2938,9.27,2.15,-0.3,-1.53,1.61,0.19,-40.06,4.5,25.06,0.56,-0.35,-0.64,-0.39,1855
2939,9.17,2.73,-0.13,-1.38,1.58,0.31,-42.25,4.19,21.87,0.56,-0.35,-0.63,-0.4,1856
2940,9.17,2.73,-0.13,-1.38,1.58,0.31,-42.25,4.19,21.87,0.56,-0.36,-0.63,-0.4,1857
2941,9.24,2.62,-0.22,-0.93,1.59,0.48,-42.25,4.19,21.87,0.57,-0.36,-0.61,-0.41,1858
2942,9.28,2.11,-0.39,-0.74,1.65,0.47,-42.25,4.19,21.87,0.57,-0.36,-0.61,-0.41,1859
2943,8.87,0.51,-0.94,-0.53,1.73,0.33,-43.38,3.19,17.06,0.59,-0.35,-0.59,-0.42,1860
2944,8.77,0.42,-0.91,-0.49,1.72,0.32,-43.38,3.19,17.06,0.59,-0.35,-0.59,-0.42,1861
2945,8.83,0.4,-0.94,-0.51,1.68,0.35,-43.38,3.19,17.06,0.6,-0.35,-0.58,-0.43,1862
2946,9.03,0.36,-0.82,-0.51,1.68,0.35,-43.38,3.19,17.06,0.6,-0.35,-0.58,-0.43,1863
2947,9.45,0.07,-1.11,-0.55,1.71,0.38,-43.38,3.19,17.06,0.6,-0.35,-0.57,-0.43,1864
2948,9.49,0.11,-1.31,-0.58,1.68,0.38,-46.06,3.19,14.5,0.6,-0.35,-0.57,-0.44,1865
2949,9.41,0.34,-1.39,-0.62,1.59,0.38,-46.06,3.19,14.5,0.61,-0.35,-0.56,-0.44,1866
2950,9.41,0.71,-1.45,-0.62,1.53,0.38,-46.06,3.19,14.5,0.62,-0.35,-0.55,-0.45,1867
2951,9.72,0.78,-1.67,-0.67,1.51,0.36,-46.06,3.19,14.5,0.62,-0.35,-0.55,-0.45,1868
2952,9.72,0.78,-1.67,-0.78,1.47,0.32,-46.06,3.19,14.5,0.62,-0.35,-0.54,-0.45,1869
2953,9.92,0.33,-1.58,-0.92,1.45,0.32,-46.06,3.87,10.88,0.62,-0.35,-0.53,-0.45,1870
2954,9.92,0.33,-1.58,-1.07,1.41,0.33,-46.06,3.87,10.88,0.63,-0.35,-0.53,-0.46,1871
2955,10.57,1.0,-1.27,-1.16,1.31,0.28,-46.06,3.87,10.88,0.63,-0.35,-0.52,-0.46,1872
2956,10.88,1.38,-1.21,-1.21,1.22,0.25,-46.06,3.87,10.88,0.63,-0.35,-0.51,-0.47,1873
2957,11.31,1.78,-1.26,-1.27,1.11,0.28,-46.06,3.87,10.88,0.63,-0.36,-0.5,-0.47,1874
2958,10.87,1.38,-1.7,-1.33,0.99,0.33,-45.75,4.56,7.69,0.63,-0.36,-0.5,-0.47,1875
2959,10.31,0.56,-1.92,-1.33,0.9,0.34,-45.75,4.56,7.69,0.63,-0.36,-0.49,-0.48,1876
2960,9.89,-0.14,-2.07,-1.35,0.86,0.32,-45.75,4.56,7.69,0.63,-0.36,-0.49,-0.48,1877
2961,10.1,0.39,-2.0,-1.47,0.82,0.34,-45.75,4.56,7.69,0.63,-0.37,-0.48,-0.49,1878
2962,10.38,0.8,-2.33,-1.6,0.67,0.41,-45.75,4.56,7.69,0.63,-0.37,-0.47,-0.49,1879
2963,10.38,0.8,-2.33,-1.56,0.41,0.48,-47.19,5.37,4.87,0.63,-0.37,-0.47,-0.49,1880
2964,10.68,0.41,-3.16,-1.33,0.12,0.54,-47.19,5.37,4.87,0.63,-0.38,-0.46,-0.49,1881
2965,11.01,-0.38,-4.12,-1.16,-0.04,0.62,-47.19,5.37,4.87,0.63,-0.38,-0.46,-0.49,1882
2966,11.18,-0.89,-4.88,-1.1,-0.14,0.6,-47.19,5.37,4.87,0.63,-0.39,-0.45,-0.49,1883
2967,11.19,-1.59,-5.49,-1.13,-0.3,0.58,-47.19,5.37,4.87,0.63,-0.39,-0.45,-0.49,1884
2968,11.98,-1.18,-7.08,-1.25,-0.46,0.62,-46.5,5.69,4.06,0.62,-0.41,-0.45,-0.49,1885
2969,13.79,0.52,-8.99,-1.58,-0.71,0.69,-46.5,5.69,4.06,0.62,-0.41,-0.45,-0.49,1886
2970,16.3,2.28,-10.22,-2.18,-1.59,0.78,-46.5,5.69,4.06,0.61,-0.43,-0.44,-0.49,1887
2971,18.26,3.6,-9.85,-2.18,-1.59,0.78,-46.5,5.69,4.06,0.61,-0.44,-0.44,-0.49,1888
2972,18.31,4.98,-6.94,-2.12,-1.92,0.83,-46.5,5.69,4.06,0.61,-0.44,-0.44,-0.49,1889
2973,15.21,4.54,-5.26,-1.8,-2.15,0.76,-46.56,6.69,5.19,0.6,-0.46,-0.44,-0.49,1890
2974,13.05,4.75,-3.74,-1.45,-2.32,0.48,-46.56,6.69,5.19,0.59,-0.47,-0.45,-0.48,1891
2975,13.65,7.06,2.73,-1.33,-2.4,0.21,-46.56,6.69,5.19,0.58,-0.48,-0.45,-0.48,1892
2976,16.13,7.92,4.73,-1.23,-2.16,0.0,-46.56,6.69,5.19,0.58,-0.48,-0.45,-0.48,1893
2977,17.8,7.34,5.41,-0.87,-2.09,-0.33,-46.56,6.69,5.19,0.57,-0.49,-0.46,-0.48,1894
2978,18.49,5.23,6.43,-0.14,-2.23,-0.76,-45.88,7.37,8.38,0.56,-0.49,-0.46,-0.47,1895
2979,18.49,5.23,6.43,0.7,-2.16,-1.06,-45.88,7.37,8.38,0.56,-0.5,-0.47,-0.47,1896
2980,17.85,0.56,4.4,1.21,-2.21,-1.15,-45.88,7.37,8.38,0.55,-0.49,-0.5,-0.46,1897
2981,16.03,0.14,5.04,1.58,-2.48,-1.1,-45.88,7.37,8.38,0.55,-0.49,-0.5,-0.46,1898
2982,13.8,-0.33,4.83,1.78,-2.51,-1.0,-45.88,7.37,8.38,0.54,-0.49,-0.52,-0.44,1899
2983,13.1,-1.18,4.09,1.75,-2.26,-0.95,-44.69,6.37,14.75,0.54,-0.49,-0.52,-0.44,1900
2984,12.3,-1.7,3.54,1.67,-2.24,-0.97,-44.69,6.37,14.75,0.53,-0.49,-0.55,-0.43,1901
2985,11.2,-2.01,3.37,1.56,-2.29,-0.99,-44.69,6.37,14.75,0.53,-0.49,-0.55,-0.43,1902
2986,8.63,-2.24,2.75,1.4,-2.3,-1.03,-44.69,6.37,14.75,0.52,-0.48,-0.57,-0.41,1903
2987,8.63,-2.24,2.75,1.4,-2.3,-1.03,-44.69,6.37,14.75,0.52,-0.48,-0.57,-0.41,1904
2988,8.36,-1.68,2.53,1.06,-2.26,-1.11,-42.75,5.0,20.25,0.51,-0.48,-0.59,-0.4,1905
2989,8.36,-1.68,2.53,1.06,-2.26,-1.11,-42.75,5.0,20.25,0.5,-0.48,-0.6,-0.4,1906
2990,8.31,-1.61,2.52,0.99,-2.21,-1.16,-42.75,5.0,20.25,0.5,-0.48,-0.6,-0.4,1907
2991,8.36,-1.82,2.37,0.99,-2.18,-1.18,-42.75,5.0,20.25,0.49,-0.47,-0.62,-0.39,1908
2992,8.41,-2.02,2.35,1.0,-2.16,-1.16,-42.75,5.0,20.25,0.49,-0.47,-0.62,-0.39,1909
2993,8.53,-1.85,2.75,0.94,-2.18,-1.1,-40.38,4.25,23.06,0.48,-0.47,-0.64,-0.38,1910
2994,8.52,-1.7,2.87,0.93,-2.18,-1.02,-40.38,4.25,23.06,0.48,-0.47,-0.64,-0.38,1911
2995,8.5,-1.46,2.93,1.08,-2.17,-0.91,-40.38,4.25,23.06,0.47,-0.47,-0.66,-0.36,1912
2996,8.16,-0.91,3.12,1.08,-2.17,-0.91,-40.38,4.25,23.06,0.47,-0.47,-0.66,-0.36,1913
2997,7.88,-0.78,3.08,1.28,-2.16,-0.86,-40.38,4.25,23.06,0.46,-0.47,-0.67,-0.36,1914
2998,7.65,-0.68,2.92,1.5,-2.14,-0.83,-37.38,3.19,25.88,0.46,-0.46,-0.67,-0.35,1915
2999,7.42,-0.68,2.69,1.65,-2.11,-0.81,-37.38,3.19,25.88,0.45,-0.46,-0.68,-0.34,1916
3000,6.57,-0.9,2.28,1.65,-2.05,-0.78,-37.38,3.19,25.88,0.44,-0.45,-0.71,-0.32,1917
3001,6.48,-1.19,1.91,1.56,-1.96,-0.75,-37.38,3.19,25.88,0.44,-0.45,-0.71,-0.32,1918
3002,6.44,-1.58,1.33,1.18,-1.71,-0.68,-34.75,3.5,29.87,0.43,-0.45,-0.72,-0.31,1919
3003,6.97,-2.23,-0.22,1.18,-1.71,-0.68,-34.75,3.5,29.87,0.43,-0.45,-0.72,-0.3,1920
3004,6.92,-2.57,0.2,0.85,-1.78,-0.66,-34.75,3.5,29.87,0.42,-0.45,-0.73,-0.3,1921
3005,6.6,-2.82,0.67,0.12,-1.71,-0.61,-34.75,3.5,29.87,0.42,-0.45,-0.73,-0.3,1922
3006,6.6,-2.82,0.67,-0.18,-1.46,-0.61,-34.75,3.5,29.87,0.41,-0.45,-0.74,-0.29,1923
3007,5.57,-2.53,-0.18,-0.48,-1.25,-0.62,-32.56,4.69,33.19,0.4,-0.45,-0.74,-0.29,1924
3008,5.57,-2.53,-0.18,-0.71,-0.89,-0.57,-32.56,4.69,33.19,0.4,-0.45,-0.74,-0.3,1925
3009,5.03,-1.37,-1.1,-0.87,-0.56,-0.53,-32.56,4.69,33.19,0.39,-0.45,-0.74,-0.3,1926
3010,4.93,0.17,-2.05,-0.98,-0.26,-0.51,-32.56,4.69,33.19,0.39,-0.45,-0.74,-0.3,1927
3011,5.4,1.21,-2.92,-0.94,0.06,-0.52,-32.56,4.69,33.19,0.39,-0.45,-0.74,-0.31,1928
3012,5.89,2.02,-3.7,-0.74,0.29,-0.58,-30.37,3.19,34.25,0.39,-0.45,-0.74,-0.31,1929
3013,7.09,2.66,-5.07,-0.44,0.5,-0.63,-30.37,3.19,34.25,0.39,-0.44,-0.74,-0.32,1930
3014,7.92,2.53,-6.56,0.04,0.63,-0.63,-30.37,3.19,34.25,0.39,-0.44,-0.74,-0.32,1931
3015,8.68,2.25,-8.3,0.67,0.63,-0.57,-30.37,3.19,34.25,0.39,-0.44,-0.75,-0.32,1932
3016,9.33,2.03,-10.39,1.19,0.51,-0.5,-30.37,3.19,34.25,0.39,-0.43,-0.75,-0.32,1933
3017,9.33,2.03,-10.39,1.53,0.42,-0.43,-30.06,1.69,35.88,0.4,-0.43,-0.75,-0.31,1934
3018,10.06,1.45,-12.7,1.55,0.32,-0.36,-30.06,1.69,35.88,0.4,-0.42,-0.75,-0.31,1935
3019,9.97,0.84,-12.48,1.37,0.19,-0.28,-30.06,1.69,35.88,0.4,-0.42,-0.75,-0.3,1936
3020,8.52,-1.02,-9.68,1.13,0.1,-0.16,-30.06,1.69,35.88,0.41,-0.41,-0.76,-0.3,1937
3021,7.58,-1.97,-7.88,0.93,0.11,-0.01,-30.06,1.69,35.88,0.41,-0.41,-0.76,-0.3,1938
3022,6.9,-2.77,-6.04,0.6,0.25,0.09,-30.37,2.5,34.69,0.41,-0.41,-0.76,-0.3,1939
3023,6.19,-3.2,-4.42,0.03,0.51,0.13,-30.37,2.5,34.69,0.41,-0.41,-0.76,-0.3,1940
3024,4.34,-3.04,-2.45,-0.74,1.54,0.23,-30.37,2.5,34.69,0.42,-0.41,-0.75,-0.3,1941
3025,3.24,-1.93,-1.34,-0.74,1.54,0.23,-30.37,2.5,34.69,0.42,-0.41,-0.75,-0.3,1942
3026,2.05,-1.26,1.53,-0.61,2.28,0.29,-30.37,2.5,34.69,0.43,-0.41,-0.74,-0.31,1943
3027,3.95,0.28,4.07,-0.41,2.9,0.37,-30.75,3.19,33.19,0.44,-0.41,-0.73,-0.32,1944
3028,3.95,0.28,4.07,-0.21,2.22,0.21,-30.75,3.19,33.19,0.45,-0.41,-0.73,-0.32,1945
3029,20.05,6.15,-9.88,0.06,0.61,-0.15,-30.75,3.19,33.19,0.45,-0.4,-0.73,-0.32,1946
3030,30.4,10.44,-13.84,1.29,1.07,-0.64,-30.75,3.19,33.19,0.45,-0.4,-0.73,-0.32,1947
3031,30.71,8.11,-6.02,3.34,1.82,-1.12,-34.38,2.87,31.19,0.48,-0.37,-0.74,-0.31,1948
3032,17.03,-1.63,-4.11,4.23,1.76,-1.0,-34.38,2.87,31.19,0.48,-0.37,-0.74,-0.31,1949
3033,11.41,-7.82,-8.85,0.43,2.04,-0.67,-34.38,2.87,31.19,0.49,-0.35,-0.73,-0.3,1950
3034,5.15,-17.02,1.31,0.43,2.04,-0.67,-34.38,2.87,31.19,0.49,-0.35,-0.73,-0.3,1951
3035,3.42,-16.5,4.67,-2.03,1.55,-0.55,-34.38,2.87,31.19,0.5,-0.35,-0.73,-0.32,1952
3036,1.28,-13.23,7.69,-3.52,0.79,-0.1,-34.38,2.87,31.19,0.49,-0.36,-0.72,-0.33,1953
3037,0.55,-7.55,8.86,-3.87,0.31,0.59,-36.56,4.69,28.38,0.49,-0.37,-0.71,-0.34,1954
3038,4.44,4.41,6.87,-3.69,0.07,0.96,-36.56,4.69,28.38,0.48,-0.39,-0.7,-0.36,1955
3039,8.2,8.84,6.86,-3.53,0.28,0.83,-36.56,4.69,28.38,0.48,-0.39,-0.7,-0.36,1956
3040,8.2,8.84,6.86,-3.14,0.71,0.31,-36.56,4.69,28.38,0.48,-0.4,-0.69,-0.37,1957
3041,15.37,14.03,8.24,-2.08,1.14,-0.38,-36.56,4.69,28.38,0.47,-0.4,-0.68,-0.38,1958
3042,15.37,14.03,8.24,-0.8,1.44,-0.61,-37.25,1.37,26.25,0.48,-0.4,-0.68,-0.39,1959
3043,8.8,3.48,2.4,0.63,1.73,0.41,-37.25,1.37,26.25,0.49,-0.39,-0.67,-0.39,1960
3044,9.01,0.54,0.33,0.98,1.86,0.54,-37.25,1.37,26.25,0.5,-0.39,-0.67,-0.39,1961
3045,9.9,-0.51,-0.05,1.08,2.0,0.47,-37.25,1.37,26.25,0.51,-0.38,-0.66,-0.39,1962
3046,10.58,-1.32,-0.37,0.95,2.07,0.45,-39.5,-1.5,23.87,0.52,-0.38,-0.66,-0.39,1963
3047,10.89,-1.96,-0.8,0.62,2.05,0.5,-39.5,-1.5,23.87,0.53,-0.37,-0.65,-0.39,1964
3048,10.39,-2.57,-1.44,0.16,1.96,0.53,-39.5,-1.5,23.87,0.53,-0.37,-0.65,-0.39,1965
3049,10.39,-2.57,-1.44,-0.39,1.86,0.5,-39.5,-1.5,23.87,0.54,-0.37,-0.64,-0.4,1966
3050,9.11,-1.61,-1.03,-0.88,1.78,0.46,-39.5,-1.5,23.87,0.54,-0.37,-0.64,-0.4,1967
3051,9.11,-1.61,-1.03,-0.88,1.78,0.46,-41.25,0.69,20.88,0.55,-0.37,-0.63,-0.41,1968
3052,9.21,0.26,-0.59,-1.47,1.69,0.32,-41.25,0.69,20.88,0.55,-0.37,-0.62,-0.42,1969
3053,9.37,0.69,-0.56,-1.56,1.68,0.24,-41.25,0.69,20.88,0.55,-0.37,-0.61,-0.42,1970
3054,9.35,1.0,-0.6,-1.57,1.66,0.22,-41.25,0.69,20.88,0.56,-0.38,-0.6,-0.44,1971
3055,9.0,1.35,-0.7,-1.56,1.62,0.24,-41.25,0.69,20.88,0.56,-0.38,-0.6,-0.44,1972
3056,8.97,1.51,-0.74,-1.52,1.6,0.28,-43.5,1.06,17.69,0.56,-0.38,-0.59,-0.44,1973
3057,9.03,1.77,-0.84,-1.45,1.6,0.31,-43.5,1.06,17.69,0.56,-0.38,-0.58,-0.45,1974
3058,9.34,2.36,-1.03,-1.35,1.6,0.32,-43.5,1.06,17.69,0.57,-0.38,-0.56,-0.46,1975
3059,9.42,2.48,-1.13,-1.2,1.64,0.29,-43.5,1.06,17.69,0.57,-0.38,-0.56,-0.46,1976
3060,9.38,2.47,-1.16,-1.02,1.63,0.24,-43.5,1.06,17.69,0.57,-0.38,-0.56,-0.47,1977
3061,9.19,2.39,-1.04,-0.82,1.53,0.25,-44.88,0.69,13.25,0.57,-0.38,-0.55,-0.47,1978
3062,9.19,2.39,-1.04,-0.82,1.53,0.25,-44.88,0.69,13.25,0.58,-0.38,-0.54,-0.47,1979
3063,8.64,2.31,-0.1,-0.63,1.34,0.41,-44.88,0.69,13.25,0.58,-0.38,-0.53,-0.48,1980
3064,8.67,1.82,0.14,-0.58,1.32,0.43,-44.88,0.69,13.25,0.58,-0.38,-0.53,-0.48,1981
3065,8.67,1.82,0.14,-0.53,1.43,0.42,-44.88,0.69,13.25,0.59,-0.38,-0.53,-0.48,1982
3066,9.43,0.39,0.69,-0.53,1.53,0.4,-45.69,1.06,7.69,0.59,-0.38,-0.52,-0.48,1983
3067,9.43,0.39,0.69,-0.53,1.53,0.4,-45.69,1.06,7.69,0.6,-0.38,-0.51,-0.49,1984
3068,9.53,0.52,0.57,-0.62,1.47,0.46,-45.69,1.06,7.69,0.6,-0.38,-0.51,-0.49,1985
3069,9.05,0.99,0.34,-0.59,1.42,0.46,-45.69,1.06,7.69,0.6,-0.38,-0.5,-0.49,1986
3070,9.06,1.13,0.09,-0.61,1.38,0.42,-45.69,1.06,7.69,0.61,-0.37,-0.5,-0.5,1987
3071,9.23,0.87,-0.27,-0.64,1.36,0.38,-46.19,0.25,5.25,0.61,-0.37,-0.49,-0.5,1988
3072,10.15,0.22,-1.21,-0.68,1.33,0.31,-46.19,0.25,5.25,0.61,-0.37,-0.48,-0.5,1989
3073,10.32,-0.11,-1.37,-0.77,1.25,0.28,-46.19,0.25,5.25,0.61,-0.37,-0.48,-0.5,1990
3074,10.32,-0.11,-1.37,-0.92,1.1,0.26,-46.19,0.25,5.25,0.62,-0.37,-0.47,-0.51,1991
3075,10.76,-0.19,-1.58,-1.07,0.93,0.29,-46.19,0.25,5.25,0.62,-0.38,-0.46,-0.51,1992
3076,10.76,-0.19,-1.58,-1.07,0.93,0.29,-46.75,1.25,3.0,0.62,-0.38,-0.46,-0.51,1993
3077,10.4,0.9,-0.79,-1.24,0.65,0.36,-46.75,1.25,3.0,0.62,-0.38,-0.45,-0.52,1994
3078,10.25,0.88,-0.89,-1.26,0.56,0.38,-46.75,1.25,3.0,0.62,-0.39,-0.45,-0.52,1995
3079,10.21,0.46,-0.89,-1.31,0.51,0.46,-46.75,1.25,3.0,0.62,-0.39,-0.44,-0.52,1996
3080,10.5,0.06,-1.02,-1.33,0.46,0.53,-46.75,1.25,3.0,0.62,-0.39,-0.44,-0.52,1997
3081,10.5,-0.34,-1.15,-1.31,0.38,0.59,-46.75,2.37,0.56,0.62,-0.4,-0.43,-0.53,1998
3082,10.28,-0.7,-1.32,-1.24,0.27,0.58,-46.75,2.37,0.56,0.62,-0.4,-0.43,-0.53,1999
3083,11.02,-0.63,-2.41,-1.18,0.19,0.63,-46.75,2.37,0.56,0.62,-0.41,-0.42,-0.53,2000
3084,11.27,-0.91,-3.71,-1.19,0.07,0.66,-46.75,2.37,0.56,0.62,-0.41,-0.42,-0.53,2001
3085,11.58,-1.52,-4.97,-1.27,-0.11,0.66,-46.75,2.37,0.56,0.61,-0.42,-0.41,-0.53,2002
3086,12.44,-2.83,-7.35,-1.53,-0.51,0.85,-47.25,3.5,0.56,0.61,-0.44,-0.4,-0.53,2003
3087,12.68,-2.0,-8.39,-1.85,-0.82,0.93,-47.25,3.5,0.56,0.61,-0.44,-0.4,-0.53,2004
3088,13.21,-0.19,-8.3,-2.62,-1.57,1.0,-47.25,3.5,0.56,0.6,-0.46,-0.39,-0.53,2005
3089,17.36,4.67,-7.92,-2.62,-1.57,1.0,-47.25,3.5,0.56,0.6,-0.46,-0.39,-0.53,2006
3090,17.9,5.88,-6.17,-2.6,-1.95,0.93,-47.56,5.56,0.56,0.58,-0.49,-0.39,-0.52,2007
3091,17.42,7.14,-3.96,-2.32,-2.13,0.72,-47.56,5.56,0.56,0.58,-0.49,-0.39,-0.52,2008
3092,12.05,9.86,1.72,-1.51,-2.31,0.12,-47.56,5.56,0.56,0.57,-0.51,-0.39,-0.51,2009
3093,12.05,9.86,1.72,-1.51,-2.31,0.12,-47.56,5.56,0.56,0.56,-0.52,-0.39,-0.51,2010
3094,13.68,11.24,3.66,-1.09,-2.21,-0.08,-47.56,5.56,0.56,0.56,-0.52,-0.39,-0.51,2011
3095,17.13,11.27,2.89,-0.38,-2.12,-0.34,-47.19,7.0,5.75,0.55,-0.53,-0.4,-0.51,2012
3096,19.79,4.78,5.98,0.67,-2.3,-0.69,-47.19,7.0,5.75,0.55,-0.53,-0.41,-0.5,2013
3097,19.75,1.11,5.64,1.5,-2.22,-0.97,-47.19,7.0,5.75,0.54,-0.53,-0.43,-0.49,2014
3098,19.0,-1.71,4.55,2.1,-2.23,-1.17,-47.19,7.0,5.75,0.54,-0.53,-0.43,-0.49,2015
3099,18.27,-2.9,2.82,2.46,-2.4,-1.14,-47.19,7.0,5.75,0.54,-0.52,-0.45,-0.48,2016
3100,13.81,-2.02,3.57,2.09,-2.18,-0.99,-46.75,6.69,10.56,0.54,-0.52,-0.48,-0.46,2017
3101,12.68,-2.37,3.11,1.83,-2.19,-0.96,-46.75,6.69,10.56,0.54,-0.52,-0.49,-0.46,2018
3102,10.75,-2.96,2.45,1.68,-2.32,-0.98,-46.75,6.69,10.56,0.53,-0.51,-0.51,-0.44,2019
3103,9.99,-3.14,2.52,1.5,-2.39,-1.04,-46.75,6.69,10.56,0.53,-0.51,-0.51,-0.44,2020
3104,9.53,-3.02,2.55,1.3,-2.39,-1.11,-46.5,5.75,16.56,0.52,-0.51,-0.54,-0.43,2021
3105,9.48,-2.84,2.44,1.09,-2.39,-1.19,-46.5,5.75,16.56,0.52,-0.51,-0.54,-0.43,2022
3106,9.48,-2.84,2.44,0.86,-2.41,-1.27,-46.5,5.75,16.56,0.51,-0.51,-0.55,-0.43,2023
3107,9.46,-2.03,2.35,0.66,-2.43,-1.33,-46.5,5.75,16.56,0.49,-0.51,-0.57,-0.42,2024
3108,9.37,-1.69,2.58,0.41,-2.43,-1.36,-46.5,5.75,16.56,0.49,-0.51,-0.57,-0.42,2025
3109,9.32,-1.1,3.1,0.2,-2.42,-1.39,-44.25,4.87,20.06,0.49,-0.51,-0.58,-0.41,2026
3110,9.38,-0.93,3.35,0.09,-2.39,-1.41,-44.25,4.87,20.06,0.48,-0.51,-0.59,-0.41,2027
3111,9.51,-0.56,3.77,0.01,-2.39,-1.43,-44.25,4.87,20.06,0.46,-0.51,-0.6,-0.41,2028
3112,9.54,-0.04,4.06,0.1,-2.38,-1.45,-44.25,4.87,20.06,0.46,-0.51,-0.6,-0.41,2029
3113,8.94,0.55,4.38,0.44,-2.36,-1.47,-44.25,4.87,20.06,0.45,-0.51,-0.61,-0.4,2030
3114,8.46,0.54,4.42,0.89,-2.31,-1.47,-42.5,2.87,25.0,0.44,-0.51,-0.62,-0.4,2031
3115,7.84,0.3,4.48,1.34,-2.25,-1.42,-42.5,2.87,25.0,0.43,-0.51,-0.63,-0.39,2032
3116,6.75,-0.7,4.08,1.76,-2.17,-1.35,-42.5,2.87,25.0,0.43,-0.5,-0.66,-0.37,2033
3117,6.36,-1.13,3.71,2.02,-2.12,-1.25,-42.5,2.87,25.0,0.43,-0.5,-0.66,-0.37,2034
3118,6.36,-1.13,3.71,2.08,-2.11,-1.11,-42.5,2.87,25.0,0.42,-0.49,-0.67,-0.36,2035
3119,6.23,-1.67,3.03,1.97,-2.07,-0.99,-38.75,1.37,30.37,0.42,-0.49,-0.68,-0.35,2036
3120,6.23,-1.67,3.03,1.97,-2.07,-0.99,-38.75,1.37,30.37,0.41,-0.49,-0.69,-0.35,2037
3121,6.59,-2.27,1.74,1.36,-1.77,-0.92,-38.75,1.37,30.37,0.41,-0.48,-0.69,-0.34,2038
3122,6.52,-2.29,1.41,0.99,-1.52,-0.94,-38.75,1.37,30.37,0.41,-0.48,-0.7,-0.33,2039
3123,6.41,-2.29,1.21,0.68,-1.27,-0.97,-38.75,1.37,30.37,0.4,-0.48,-0.71,-0.33,2040
3124,6.34,-2.49,0.88,0.4,-1.02,-0.97,-35.56,2.56,34.0,0.4,-0.48,-0.71,-0.33,2041
3125,6.45,-2.85,0.64,0.14,-0.84,-0.91,-35.56,2.56,34.0,0.39,-0.47,-0.72,-0.33,2042
3126,6.7,-3.16,0.09,-0.14,-0.72,-0.79,-35.56,2.56,34.0,0.39,-0.47,-0.72,-0.33,2043
3127,6.82,-3.0,-0.7,-0.39,-0.69,-0.66,-35.56,2.56,34.0,0.39,-0.47,-0.72,-0.33,2044
3128,6.93,-2.4,-1.2,-0.49,-0.68,-0.55,-35.56,2.56,34.0,0.38,-0.47,-0.72,-0.33,2045
3129,6.93,-2.4,-1.2,-0.43,-0.66,-0.5,-33.75,1.75,35.19,0.38,-0.47,-0.72,-0.33,2046
3130,7.04,-0.92,-3.02,-0.31,-0.6,-0.5,-33.75,1.75,35.19,0.37,-0.47,-0.73,-0.33,2047
3131,6.73,1.13,-4.33,-0.19,-0.44,-0.56,-33.75,1.75,35.19,0.37,-0.47,-0.73,-0.33,2048
3132,6.74,2.54,-5.38,-0.09,-0.13,-0.63,-33.75,1.75,35.19,0.37,-0.47,-0.73,-0.34,2049
3133,6.97,4.17,-6.1,-0.01,0.2,-0.79,-33.75,1.75,35.19,0.37,-0.47,-0.73,-0.34,2050
3134,7.55,6.16,-7.03,0.1,0.5,-1.01,-32.69,0.37,36.75,0.37,-0.46,-0.73,-0.34,2051
3135,7.84,5.9,-7.74,0.3,0.73,-1.2,-32.69,0.37,36.75,0.37,-0.46,-0.73,-0.34,2052
3136,8.05,4.95,-9.24,0.52,0.81,-1.22,-32.69,0.37,36.75,0.37,-0.44,-0.74,-0.34,2053
3137,7.99,3.67,-11.59,0.81,0.66,-0.98,-32.69,0.37,36.75,0.37,-0.44,-0.74,-0.34,2054
3138,7.76,1.64,-12.43,1.29,0.35,-0.55,-32.69,0.37,36.75,0.38,-0.44,-0.74,-0.34,2055
3139,7.96,0.57,-11.49,1.85,0.08,-0.15,-34.19,-0.69,35.56,0.38,-0.43,-0.75,-0.33,2056
3140,7.96,0.57,-11.49,2.15,-0.04,0.01,-34.19,-0.69,35.56,0.39,-0.43,-0.75,-0.32,2057
3141,7.77,-2.82,-6.07,2.07,-0.0,-0.0,-34.19,-0.69,35.56,0.39,-0.42,-0.75,-0.31,2058
3142,7.28,-3.59,-4.25,1.64,0.14,-0.0,-34.19,-0.69,35.56,0.39,-0.42,-0.75,-0.31,2059
3143,5.69,-3.29,-1.1,-0.29,0.76,0.22,-34.19,0.88,35.56,0.4,-0.42,-0.75,-0.31,2060
3144,5.69,-3.29,-1.1,-0.29,0.76,0.22,-34.19,0.88,35.56,0.41,-0.42,-0.75,-0.31,2061
3145,4.28,-2.94,1.68,-0.53,0.87,0.4,-34.19,0.88,35.56,0.41,-0.42,-0.75,-0.31,2062
3146,3.68,-1.78,1.6,-0.35,2.74,0.82,-34.19,0.88,35.56,0.42,-0.42,-0.74,-0.32,2063
3147,15.17,3.38,-8.33,-0.35,2.74,0.82,-34.19,0.88,35.56,0.42,-0.42,-0.74,-0.32,2064
3148,26.13,10.03,-20.43,-0.07,0.54,-0.14,-35.19,3.37,34.0,0.43,-0.41,-0.73,-0.32,2065
3149,33.99,15.58,-20.1,-0.07,0.54,-0.14,-35.19,3.37,34.0,0.43,-0.41,-0.73,-0.32,2066
3150,31.08,14.99,-4.22,4.17,2.33,-1.65,-35.19,3.37,34.0,0.45,-0.38,-0.74,-0.32,2067
3151,12.73,-1.22,-6.43,4.17,2.33,-1.65,-35.19,3.37,34.0,0.46,-0.37,-0.74,-0.31,2068
3152,8.38,-8.55,-0.42,3.22,1.82,-0.95,-35.19,3.37,34.0,0.46,-0.37,-0.74,-0.31,2069
3153,6.16,-14.13,4.24,1.13,2.08,-0.35,-36.69,4.19,31.19,0.47,-0.36,-0.74,-0.31,2070
3154,0.56,-15.52,8.28,-1.3,1.71,-0.23,-36.69,4.19,31.19,0.48,-0.36,-0.74,-0.32,2071
3155,-1.25,-11.93,8.01,-2.58,1.12,-0.08,-36.69,4.19,31.19,0.47,-0.37,-0.72,-0.34,2072
3156,-1.06,-5.95,6.98,-2.54,0.68,0.37,-36.69,4.19,31.19,0.47,-0.37,-0.72,-0.34,2073
3157,-1.06,-5.95,6.98,-2.18,0.3,0.81,-36.69,4.19,31.19,0.47,-0.38,-0.72,-0.35,2074
3158,11.83,7.8,5.98,-2.14,0.41,0.89,-40.25,4.19,26.87,0.47,-0.38,-0.71,-0.35,2075
3159,11.83,7.8,5.98,-2.14,0.41,0.89,-40.25,4.19,26.87,0.47,-0.39,-0.71,-0.36,2076
3160,19.96,11.33,7.09,-2.14,1.09,-0.11,-40.25,4.19,26.87,0.47,-0.39,-0.7,-0.38,2077
3161,18.87,9.79,5.73,-1.14,1.39,-0.73,-40.25,4.19,26.87,0.47,-0.39,-0.7,-0.38,2078
3162,10.27,5.11,1.97,-0.25,1.49,-0.63,-40.25,4.19,26.87,0.48,-0.38,-0.69,-0.38,2079
3163,7.67,3.53,0.69,0.33,1.57,0.01,-42.19,3.25,28.06,0.48,-0.38,-0.69,-0.38,2080
3164,7.12,2.07,-0.11,0.71,1.7,0.42,-42.19,3.25,28.06,0.5,-0.37,-0.68,-0.38,2081
3165,8.56,-0.14,-0.24,0.84,1.81,0.53,-42.19,3.25,28.06,0.5,-0.37,-0.68,-0.38,2082
3166,9.42,-0.56,-0.27,0.73,1.89,0.54,-42.19,3.25,28.06,0.51,-0.37,-0.68,-0.38,2083
3167,9.92,-0.71,-0.46,0.45,1.89,0.53,-42.19,3.25,28.06,0.52,-0.37,-0.67,-0.38,2084
3168,10.0,-0.7,-0.56,0.1,1.83,0.52,-44.25,2.56,24.06,0.52,-0.36,-0.67,-0.38,2085
3169,9.64,-0.18,-0.51,-0.24,1.77,0.49,-44.25,2.56,24.06,0.54,-0.36,-0.66,-0.39,2086
3170,9.31,-0.03,-0.56,-0.52,1.73,0.45,-44.25,2.56,24.06,0.54,-0.36,-0.66,-0.39,2087
3171,8.98,0.05,-0.5,-0.77,1.7,0.4,-44.25,2.56,24.06,0.55,-0.36,-0.65,-0.39,2088
3172,8.9,-0.07,-0.45,-0.99,1.7,0.35,-44.25,2.56,24.06,0.55,-0.36,-0.65,-0.39,2089
3173,9.12,-0.24,-0.58,-1.16,1.71,0.29,-45.38,4.0,20.06,0.55,-0.36,-0.63,-0.4,2090
3174,9.25,-0.27,-0.71,-1.34,1.72,0.23,-45.38,4.0,20.06,0.55,-0.36,-0.63,-0.4,2091
3175,9.3,-0.15,-0.87,-1.69,1.64,0.26,-45.38,4.0,20.06,0.56,-0.36,-0.62,-0.42,2092
3176,9.36,0.77,-0.78,-1.69,1.64,0.26,-45.38,4.0,20.06,0.56,-0.36,-0.62,-0.42,2093
3177,9.44,1.45,-0.72,-1.78,1.57,0.32,-45.38,4.0,20.06,0.56,-0.36,-0.61,-0.43,2094
3178,9.46,2.18,-0.61,-1.75,1.53,0.36,-47.56,4.0,16.56,0.57,-0.36,-0.6,-0.43,2095
3179,9.57,3.72,-0.59,-1.57,1.5,0.38,-47.56,4.0,16.56,0.57,-0.37,-0.59,-0.44,2096
3180,9.38,4.17,-0.8,-1.27,1.5,0.36,-47.56,4.0,16.56,0.57,-0.37,-0.58,-0.45,2097
3181,9.03,4.37,-0.81,-0.9,1.54,0.33,-47.56,4.0,16.56,0.57,-0.37,-0.58,-0.45,2098
3182,9.03,4.37,-0.81,-0.53,1.68,0.36,-47.56,4.0,16.56,0.58,-0.37,-0.57,-0.45,2099
3183,8.64,3.51,-0.24,-0.3,1.78,0.42,-48.25,4.0,12.69,0.59,-0.36,-0.57,-0.45,2100
3184,8.64,3.51,-0.24,-0.3,1.78,0.42,-48.25,4.0,12.69,0.59,-0.36,-0.56,-0.45,2101
3185,8.93,2.12,-0.25,-0.17,1.68,0.44,-48.25,4.0,12.69,0.6,-0.36,-0.56,-0.45,2102
3186,9.87,-1.06,-0.1,-0.02,1.6,0.32,-49.38,4.37,9.88,0.62,-0.35,-0.54,-0.46,2103
3187,10.19,-1.24,0.1,-0.18,1.56,0.41,-49.38,4.37,9.88,0.62,-0.35,-0.54,-0.46,2104
3188,10.19,-1.24,0.1,-0.3,1.5,0.49,-49.38,4.37,9.88,0.62,-0.35,-0.53,-0.46,2105
3189,10.32,-0.43,-0.19,-0.4,1.45,0.53,-49.38,4.37,9.88,0.63,-0.34,-0.52,-0.46,2106
3190,10.31,-0.41,-0.49,-0.51,1.41,0.48,-49.38,4.37,9.88,0.63,-0.34,-0.52,-0.46,2107
3191,10.4,-0.61,-0.99,-0.65,1.38,0.4,-48.25,5.19,3.87,0.64,-0.34,-0.51,-0.46,2108
3192,10.51,-0.56,-1.1,-0.79,1.35,0.33,-48.25,5.19,3.87,0.64,-0.34,-0.51,-0.47,2109
3193,10.55,-0.2,-1.05,-0.9,1.28,0.3,-48.25,5.19,3.87,0.64,-0.34,-0.49,-0.47,2110
3194,10.6,0.42,-0.79,-1.01,1.16,0.27,-48.25,5.19,3.87,0.64,-0.34,-0.49,-0.47,2111
3195,10.59,1.81,0.18,-1.09,0.99,0.3,-48.25,5.19,3.87,0.65,-0.35,-0.49,-0.48,2112
3196,10.57,2.25,0.42,-1.1,0.79,0.33,-49.88,6.56,1.87,0.65,-0.35,-0.48,-0.48,2113
3197,10.57,2.25,0.42,-1.08,0.63,0.35,-49.88,6.56,1.87,0.65,-0.35,-0.48,-0.48,2114
3198,10.35,1.72,0.18,-1.05,0.54,0.38,-49.88,6.56,1.87,0.65,-0.35,-0.47,-0.48,2115
3199,10.34,0.95,-0.23,-1.04,0.47,0.38,-49.88,6.56,1.87,0.65,-0.35,-0.47,-0.48,2116
3200,10.59,-0.27,-1.3,-1.18,0.25,0.46,-49.88,7.69,0.69,0.65,-0.36,-0.46,-0.49,2117
3201,10.86,-0.78,-1.96,-1.17,0.1,0.43,-49.88,7.69,0.69,0.65,-0.37,-0.45,-0.49,2118
3202,10.96,-1.09,-2.53,-1.11,-0.07,0.45,-49.88,7.69,0.69,0.65,-0.38,-0.45,-0.49,2119
3203,11.27,-1.0,-3.84,-1.1,-0.16,0.54,-49.88,7.69,0.69,0.65,-0.38,-0.45,-0.49,2120
3204,11.49,-0.88,-4.9,-1.18,-0.26,0.58,-49.5,8.38,-0.37,0.65,-0.38,-0.45,-0.49,2121
3205,11.63,-0.8,-6.4,-1.24,-0.45,0.62,-49.5,8.38,-0.37,0.65,-0.39,-0.44,-0.49,2122
3206,11.87,-0.71,-8.47,-1.31,-0.71,0.66,-49.5,8.38,-0.37,0.64,-0.4,-0.44,-0.48,2123
3207,11.54,-0.23,-10.16,-1.59,-1.53,0.82,-49.5,8.38,-0.37,0.64,-0.4,-0.44,-0.48,2124
3208,12.5,0.84,-10.76,-1.77,-1.7,0.9,-49.5,8.38,-0.37,0.63,-0.42,-0.44,-0.48,2125
3209,14.08,1.79,-10.03,-1.92,-1.72,0.85,-50.56,10.56,0.69,0.63,-0.43,-0.44,-0.48,2126
3210,14.08,1.79,-10.03,-1.92,-1.82,0.73,-50.56,10.56,0.69,0.62,-0.44,-0.44,-0.47,2127
3211,14.42,3.03,-5.89,-1.86,-1.94,0.59,-50.56,10.56,0.69,0.61,-0.46,-0.44,-0.47,2128
3212,12.93,4.55,-4.13,-1.94,-2.22,0.42,-50.56,10.56,0.69,0.61,-0.46,-0.44,-0.47,2129
3213,12.4,6.78,-1.39,-1.96,-2.32,0.24,-50.56,10.56,0.69,0.59,-0.48,-0.45,-0.47,2130
3214,15.65,11.14,4.98,-1.68,-2.15,0.01,-50.19,12.0,7.06,0.59,-0.48,-0.45,-0.47,2131
3215,18.31,10.91,5.66,-0.83,-2.1,-0.39,-50.19,12.0,7.06,0.58,-0.49,-0.46,-0.46,2132
3216,19.87,8.83,5.63,0.16,-2.25,-0.92,-50.19,12.0,7.06,0.58,-0.49,-0.46,-0.46,2133
3217,20.02,5.61,5.94,1.13,-2.31,-1.27,-50.19,12.0,7.06,0.57,-0.49,-0.47,-0.46,2134
3218,17.8,0.46,4.76,1.82,-2.27,-1.37,-50.19,12.0,7.06,0.57,-0.49,-0.49,-0.45,2135
3219,17.41,-0.09,4.0,2.26,-2.39,-1.33,-49.06,11.06,11.88,0.57,-0.48,-0.5,-0.44,2136
3220,16.31,-0.39,5.2,2.43,-2.41,-1.21,-49.06,11.06,11.88,0.56,-0.47,-0.53,-0.43,2137
3221,14.42,-1.23,4.42,2.3,-2.22,-1.1,-49.06,11.06,11.88,0.56,-0.47,-0.53,-0.43,2138
3222,14.42,-1.23,4.42,2.13,-2.2,-1.01,-49.06,11.06,11.88,0.56,-0.47,-0.54,-0.42,2139
3223,12.17,-2.85,3.1,1.92,-2.27,-0.97,-49.06,11.06,11.88,0.55,-0.47,-0.55,-0.41,2140
3224,12.17,-2.85,3.1,1.92,-2.27,-0.97,-47.69,9.25,17.06,0.55,-0.46,-0.56,-0.41,2141
3225,9.59,-3.55,3.05,1.52,-2.33,-0.97,-47.69,9.25,17.06,0.54,-0.46,-0.58,-0.4,2142
3226,9.18,-3.08,3.03,1.31,-2.29,-1.03,-47.69,9.25,17.06,0.54,-0.46,-0.59,-0.39,2143
3227,8.97,-2.67,2.97,1.19,-2.25,-1.13,-47.69,9.25,17.06,0.53,-0.46,-0.61,-0.38,2144
3228,8.63,-2.2,2.69,1.08,-2.22,-1.19,-47.69,9.25,17.06,0.53,-0.46,-0.61,-0.38,2145
3229,8.53,-2.14,2.77,0.93,-2.18,-1.2,-46.56,8.06,24.19,0.51,-0.45,-0.63,-0.37,2146
3230,8.33,-2.1,2.94,0.8,-2.13,-1.17,-46.56,8.06,24.19,0.51,-0.45,-0.63,-0.37,2147
3231,8.33,-2.1,2.94,0.75,-2.09,-1.13,-46.56,8.06,24.19,0.51,-0.45,-0.64,-0.37,2148
3232,8.76,-1.83,3.37,0.76,-2.05,-1.08,-46.56,8.06,24.19,0.49,-0.45,-0.65,-0.36,2149
3233,8.89,-1.61,3.49,0.86,-2.02,-1.04,-46.56,8.06,24.19,0.49,-0.45,-0.65,-0.36,2150
3234,8.82,-1.31,3.67,1.05,-2.01,-1.0,-44.19,6.0,28.5,0.49,-0.44,-0.66,-0.36,2151
3235,8.25,-1.05,4.1,1.31,-1.97,-0.96,-44.19,6.0,28.5,0.48,-0.44,-0.67,-0.35,2152
3236,7.9,-1.12,4.18,1.6,-1.93,-0.9,-44.19,6.0,28.5,0.47,-0.43,-0.69,-0.33,2153
3237,7.53,-1.4,4.23,1.86,-1.89,-0.81,-44.19,6.0,28.5,0.47,-0.43,-0.69,-0.33,2154
3238,7.16,-1.78,4.07,2.02,-1.88,-0.72,-44.19,6.0,28.5,0.47,-0.43,-0.7,-0.32,2155
3239,6.46,-2.68,3.1,2.04,-1.88,-0.64,-40.25,6.37,31.25,0.47,-0.43,-0.71,-0.32,2156
3240,6.46,-2.68,3.1,1.88,-1.88,-0.55,-40.25,6.37,31.25,0.46,-0.42,-0.71,-0.31,2157
3241,6.2,-3.45,2.2,1.45,-1.82,-0.49,-40.25,6.37,31.25,0.46,-0.42,-0.73,-0.29,2158
3242,6.19,-3.3,1.5,0.9,-1.67,-0.48,-40.25,6.37,31.25,0.46,-0.42,-0.73,-0.29,2159
3243,6.22,-2.91,1.18,-0.17,-1.25,-0.62,-37.38,6.75,35.25,0.44,-0.42,-0.74,-0.29,2160
3244,6.23,-2.71,1.17,-0.61,-0.98,-0.69,-37.38,6.75,35.25,0.44,-0.42,-0.74,-0.29,2161
3245,6.23,-2.71,1.17,-0.99,-0.75,-0.73,-37.38,6.75,35.25,0.43,-0.42,-0.74,-0.29,2162
3246,6.85,-2.07,0.34,-1.32,-0.62,-0.71,-37.38,6.75,35.25,0.42,-0.42,-0.74,-0.31,2163
3247,7.41,-1.85,-0.83,-1.63,-0.59,-0.67,-37.38,6.75,35.25,0.42,-0.42,-0.74,-0.31,2164
3248,7.5,-0.51,-1.36,-1.8,-0.62,-0.64,-35.19,6.69,37.25,0.41,-0.43,-0.74,-0.32,2165
3249,7.32,0.55,-1.27,-1.7,-0.5,-0.64,-35.19,6.69,37.25,0.41,-0.43,-0.74,-0.32,2166
3250,7.09,1.48,-1.54,-1.36,-0.24,-0.67,-35.19,6.69,37.25,0.4,-0.43,-0.74,-0.33,2167
3251,7.02,2.17,-1.77,-0.81,0.03,-0.68,-35.19,6.69,37.25,0.4,-0.43,-0.74,-0.33,2168
3252,7.36,3.3,-4.21,-0.15,0.25,-0.72,-35.19,6.69,37.25,0.4,-0.42,-0.74,-0.33,2169
3253,7.46,4.18,-5.91,0.46,0.38,-0.78,-33.88,3.37,38.19,0.4,-0.42,-0.74,-0.33,2170
3254,7.68,5.34,-7.59,0.92,0.55,-0.89,-33.88,3.37,38.19,0.4,-0.41,-0.75,-0.33,2171
3255,7.96,6.25,-8.11,1.25,0.77,-1.01,-33.88,3.37,38.19,0.41,-0.4,-0.75,-0.33,2172
3256,8.85,5.86,-7.97,1.46,0.97,-1.04,-33.88,3.37,38.19,0.41,-0.4,-0.75,-0.33,2173
3257,8.85,5.86,-7.97,1.54,0.91,-0.9,-33.88,3.37,38.19,0.42,-0.39,-0.75,-0.33,2174
3258,9.09,2.65,-10.48,1.69,0.61,-0.51,-34.25,2.25,39.0,0.42,-0.38,-0.76,-0.32,2175
3259,9.09,2.65,-10.48,1.69,0.61,-0.51,-34.25,2.25,39.0,0.43,-0.38,-0.76,-0.32,2176
3260,8.58,-0.67,-8.94,2.19,0.11,0.29,-34.25,2.25,39.0,0.43,-0.38,-0.76,-0.31,2177
3261,8.25,-1.35,-7.36,2.07,0.09,0.35,-34.25,2.25,39.0,0.44,-0.37,-0.76,-0.3,2178
3262,7.64,-2.47,-4.64,1.63,0.35,0.26,-34.25,2.25,39.0,0.44,-0.37,-0.76,-0.29,2179
3263,7.25,-4.21,-4.84,0.91,0.59,0.19,-35.25,2.19,37.75,0.44,-0.37,-0.76,-0.29,2180
3264,6.87,-5.34,-4.16,0.4,0.75,0.32,-35.25,2.19,37.75,0.45,-0.37,-0.76,-0.29,2181
3265,7.66,-5.28,-4.98,0.31,1.22,0.71,-35.25,2.19,37.75,0.45,-0.37,-0.76,-0.29,2182
3266,21.48,1.41,-13.99,0.25,1.33,0.98,-35.25,2.19,37.75,0.46,-0.37,-0.75,-0.29,2183
3267,28.91,5.42,-16.88,0.73,1.42,0.74,-35.25,2.19,37.75,0.47,-0.37,-0.75,-0.29,2184
3268,28.91,5.42,-16.88,2.24,1.96,-0.25,-36.06,5.75,35.38,0.48,-0.36,-0.75,-0.28,2185
3269,18.41,-1.62,0.33,3.05,1.98,-0.84,-36.06,5.75,35.38,0.49,-0.35,-0.75,-0.28,2186
3270,8.92,-6.46,-0.52,1.32,1.21,-0.84,-36.06,5.75,35.38,0.5,-0.34,-0.75,-0.28,2187
3271,6.18,-9.3,4.97,-1.01,1.41,-0.77,-36.06,5.75,35.38,0.5,-0.34,-0.74,-0.3,2188
3272,4.07,-8.96,5.24,-3.15,1.19,-0.66,-36.06,5.75,35.38,0.5,-0.34,-0.74,-0.3,2189
3273,-0.84,-5.46,8.81,-3.87,0.76,-0.27,-39.38,8.0,33.0,0.49,-0.35,-0.73,-0.33,2190
3274,-0.21,-1.4,7.78,-3.57,0.62,0.28,-39.38,8.0,33.0,0.49,-0.35,-0.73,-0.33,2191
3275,2.42,2.61,6.75,-2.78,0.59,0.59,-39.38,8.0,33.0,0.48,-0.37,-0.71,-0.35,2192
3276,6.82,6.08,6.3,-2.78,0.59,0.59,-39.38,8.0,33.0,0.48,-0.37,-0.71,-0.35,2193
3277,16.49,11.51,7.12,-2.58,0.8,0.15,-39.38,8.0,33.0,0.48,-0.38,-0.71,-0.36,2194
3278,18.26,11.74,7.15,-1.63,1.16,-0.48,-40.5,3.56,30.19,0.48,-0.38,-0.7,-0.37,2195
3279,16.47,9.57,5.75,-0.28,1.45,-0.56,-40.5,3.56,30.19,0.49,-0.37,-0.7,-0.37,2196
3280,9.39,4.08,2.16,0.72,1.55,0.14,-40.5,3.56,30.19,0.5,-0.37,-0.69,-0.37,2197
3281,8.1,2.27,1.3,1.31,1.67,0.75,-40.5,3.56,30.19,0.5,-0.37,-0.69,-0.37,2198
3282,8.1,2.27,1.3,1.66,1.83,0.75,-40.5,3.56,30.19,0.51,-0.36,-0.69,-0.36,2199
3283,8.89,-0.68,-0.41,1.77,1.93,0.48,-42.75,-0.37,28.56,0.52,-0.35,-0.69,-0.36,2200
3284,8.89,-0.68,-0.41,1.77,1.93,0.48,-42.75,-0.37,28.56,0.53,-0.35,-0.68,-0.36,2201
3285,9.76,-2.52,-0.95,1.21,1.89,0.33,-42.75,-0.37,28.56,0.54,-0.34,-0.68,-0.36,2202
3286,9.89,-1.06,-1.28,0.22,1.66,0.44,-42.75,-0.37,28.56,0.56,-0.34,-0.67,-0.36,2203
3287,9.89,-1.06,-1.28,0.22,1.66,0.44,-42.75,-0.37,28.56,0.56,-0.34,-0.67,-0.36,2204
3288,9.79,-0.59,-1.47,-0.57,1.48,0.29,-44.56,3.87,25.37,0.57,-0.34,-0.66,-0.36,2205
3289,9.68,-0.17,-1.72,-0.57,1.48,0.29,-44.56,3.87,25.37,0.57,-0.34,-0.66,-0.36,2206
3290,9.58,0.1,-2.16,-0.82,1.41,0.25,-44.56,3.87,25.37,0.57,-0.34,-0.66,-0.37,2207
3291,9.29,0.63,-2.77,-0.97,1.33,0.19,-44.56,3.87,25.37,0.57,-0.34,-0.64,-0.38,2208
3292,9.16,0.69,-3.07,-1.05,1.26,0.13,-44.56,3.87,25.37,0.57,-0.34,-0.64,-0.38,2209
3293,9.11,0.75,-3.2,-1.08,1.18,0.11,-46.37,5.06,20.19,0.58,-0.34,-0.63,-0.38,2210
3294,9.12,0.79,-3.26,-1.11,1.09,0.15,-46.37,5.06,20.19,0.58,-0.34,-0.63,-0.38,2211
3295,9.27,1.09,-3.38,-1.16,1.01,0.25,-46.37,5.06,20.19,0.58,-0.34,-0.62,-0.39,2212
3296,9.42,1.48,-3.07,-1.16,1.01,0.25,-46.37,5.06,20.19,0.58,-0.34,-0.62,-0.39,2213
3297,9.58,2.09,-2.73,-1.12,1.04,0.25,-46.37,5.06,20.19,0.58,-0.35,-0.62,-0.4,2214
3298,9.48,3.34,-1.11,-1.02,1.03,0.25,-47.06,3.69,18.19,0.58,-0.35,-0.61,-0.4,2215
3299,9.16,3.83,-0.21,-0.87,0.99,0.26,-47.06,3.69,18.19,0.59,-0.35,-0.61,-0.41,2216
3300,8.45,3.77,0.3,-0.37,0.91,0.22,-47.06,3.69,18.19,0.59,-0.35,-0.6,-0.41,2217
3301,8.12,2.43,0.72,-0.05,0.93,0.19,-47.06,3.69,18.19,0.59,-0.35,-0.6,-0.41,2218
3302,8.34,1.58,0.97,0.21,0.99,0.16,-47.75,3.25,17.5,0.6,-0.35,-0.59,-0.41,2219
3303,8.67,1.02,1.16,0.32,1.06,0.2,-47.75,3.25,17.5,0.6,-0.35,-0.59,-0.41,2220
3304,9.2,0.21,1.15,0.36,1.08,0.29,-47.75,3.25,17.5,0.61,-0.34,-0.58,-0.41,2221
3305,9.37,-0.09,1.1,0.38,1.09,0.37,-47.75,3.25,17.5,0.61,-0.34,-0.58,-0.41,2222
3306,9.49,-0.25,0.97,0.39,1.12,0.41,-47.75,3.25,17.5,0.61,-0.34,-0.58,-0.41,2223
3307,9.62,-0.33,0.77,0.37,1.15,0.39,-48.56,3.25,13.88,0.62,-0.34,-0.58,-0.41,2224
3308,9.62,-0.33,0.77,0.31,1.2,0.35,-48.56,3.25,13.88,0.62,-0.33,-0.57,-0.41,2225
3309,10.06,-0.31,0.18,0.22,1.23,0.31,-48.56,3.25,13.88,0.63,-0.33,-0.57,-0.41,2226
3310,10.16,-0.31,0.14,0.1,1.25,0.28,-48.56,3.25,13.88,0.63,-0.33,-0.57,-0.41,2227
3311,9.97,-0.41,-0.3,-0.06,1.24,0.26,-48.56,3.25,13.88,0.64,-0.33,-0.56,-0.42,2228
3312,9.88,-0.47,-0.58,-0.21,1.16,0.24,-49.25,4.0,11.06,0.64,-0.33,-0.56,-0.42,2229
3313,9.91,-0.47,-0.83,-0.34,1.09,0.21,-49.25,4.0,11.06,0.64,-0.33,-0.55,-0.42,2230
3314,10.02,-0.3,-0.8,-0.49,1.03,0.21,-49.25,4.0,11.06,0.64,-0.33,-0.55,-0.42,2231
3315,10.09,0.45,-0.7,-0.67,0.97,0.26,-49.25,4.0,11.06,0.65,-0.33,-0.54,-0.42,2232
3316,10.01,0.75,-0.8,-0.8,0.89,0.29,-49.25,4.0,11.06,0.65,-0.33,-0.54,-0.43,2233
3317,9.99,1.03,-1.02,-0.88,0.81,0.31,-49.56,5.19,9.06,0.65,-0.33,-0.53,-0.43,2234
3318,10.14,0.93,-1.5,-0.97,0.73,0.33,-49.56,5.19,9.06,0.65,-0.34,-0.52,-0.44,2235
3319,10.3,0.71,-1.84,-1.05,0.65,0.33,-49.56,5.19,9.06,0.65,-0.34,-0.52,-0.44,2236
3320,10.3,0.71,-1.84,-1.12,0.55,0.32,-49.56,5.19,9.06,0.65,-0.34,-0.52,-0.44,2237
3321,10.51,0.23,-2.53,-1.15,0.41,0.34,-49.56,5.19,9.06,0.65,-0.34,-0.51,-0.44,2238
3322,10.51,0.23,-2.53,-1.15,0.41,0.34,-49.56,5.5,7.87,0.65,-0.35,-0.51,-0.44,2239
3323,10.51,0.55,-3.02,-1.19,0.11,0.41,-49.56,5.5,7.87,0.65,-0.35,-0.51,-0.45,2240
3324,10.78,0.67,-3.74,-1.25,-0.09,0.42,-49.56,5.5,7.87,0.65,-0.36,-0.5,-0.45,2241
3325,10.59,0.65,-3.57,-1.26,-0.35,0.42,-49.56,5.5,7.87,0.64,-0.37,-0.5,-0.45,2242
3326,10.79,1.5,-3.14,-1.27,-0.47,0.43,-49.56,5.5,7.87,0.64,-0.37,-0.5,-0.45,2243
3327,11.76,2.9,-3.29,-1.35,-0.61,0.48,-49.56,5.19,5.75,0.64,-0.38,-0.49,-0.45,2244
3328,13.29,3.7,-3.78,-1.31,-0.86,0.52,-49.56,5.19,5.75,0.64,-0.38,-0.49,-0.45,2245
