Timestamp, AccelX, AccelY, AccelZ, GyroX, GyroY, GyroZ, MagX, MagY, MagZ, QuatW, QuatX, QuatY, QuatZ,TimeAligned
1083,10.26,0.89,-2.64,0.37,0.36,-0.02,-35.19,8.38,15.88,0.71,-0.13,-0.69,-0.05,0
1084,9.81,-0.58,-1.79,0.58,0.23,0.04,-36.19,8.19,13.5,0.71,-0.12,-0.69,-0.05,1
1085,9.64,-1.3,-1.48,0.78,0.14,0.11,-36.19,8.19,13.5,0.71,-0.12,-0.69,-0.05,2
1086,9.52,-2.03,-1.18,0.9,0.0,0.21,-36.19,8.19,13.5,0.72,-0.11,-0.69,-0.04,3
1087,9.48,-1.76,-0.61,0.9,0.0,0.21,-36.19,8.19,13.5,0.72,-0.11,-0.69,-0.04,4
1088,9.38,-1.62,-0.35,0.6,0.01,0.12,-38.25,8.69,13.56,0.72,-0.11,-0.69,-0.03,5
1089,9.35,-1.41,-0.11,0.6,0.01,0.12,-38.25,8.69,13.56,0.72,-0.11,-0.69,-0.03,6
1090,9.51,-1.38,0.01,0.44,0.01,0.07,-38.25,8.69,13.56,0.72,-0.11,-0.69,-0.03,7
1091,9.46,-1.53,0.36,0.29,0.01,0.01,-38.25,8.69,13.56,0.72,-0.11,-0.69,-0.03,8
1092,9.37,-1.59,0.53,0.16,0.03,-0.02,-38.25,8.69,13.56,0.72,-0.11,-0.69,-0.03,9
1093,9.25,-1.3,0.67,-0.07,0.1,-0.01,-35.56,9.06,12.19,0.72,-0.11,-0.69,-0.03,10
1094,9.21,-0.91,0.7,-0.07,0.1,-0.01,-35.56,9.06,12.19,0.72,-0.11,-0.69,-0.03,11
1095,9.04,-0.57,0.84,-0.33,0.16,0.01,-35.56,9.06,12.19,0.72,-0.11,-0.69,-0.03,12
1096,8.99,-0.63,0.91,-0.37,0.12,0.03,-35.56,9.06,12.19,0.72,-0.11,-0.68,-0.03,13
1097,9.03,-0.73,0.83,-0.4,0.11,0.05,-35.56,9.06,12.19,0.72,-0.11,-0.68,-0.03,14
1098,9.05,-0.79,0.81,-0.43,0.09,0.06,-35.75,9.19,11.69,0.72,-0.12,-0.68,-0.04,15
1099,9.28,-0.78,0.3,-0.5,0.07,0.07,-35.75,9.19,11.69,0.72,-0.12,-0.68,-0.04,16
1100,9.41,-0.41,0.16,-0.52,0.06,0.07,-35.75,9.19,11.69,0.72,-0.12,-0.68,-0.04,17
1101,9.41,-0.41,0.16,-0.52,0.06,0.07,-35.75,9.19,11.69,0.72,-0.12,-0.68,-0.04,18
1102,9.64,-0.39,-0.03,-0.36,0.03,0.09,-36.75,8.88,13.19,0.72,-0.13,-0.68,-0.04,19
1103,9.64,-0.39,-0.03,-0.36,0.03,0.09,-36.75,8.88,13.19,0.72,-0.13,-0.68,-0.04,20
1104,9.72,-0.43,-0.06,-0.36,-0.0,0.11,-36.75,8.88,13.19,0.72,-0.13,-0.68,-0.04,21
1105,9.59,-0.68,0.03,-0.3,0.0,0.15,-36.75,8.88,13.19,0.72,-0.13,-0.68,-0.04,22
1106,9.59,-0.68,0.03,-0.3,0.0,0.15,-36.75,8.88,13.19,0.72,-0.13,-0.68,-0.04,23
1107,9.55,-0.67,0.25,-0.22,0.0,0.15,-36.25,8.88,12.37,0.72,-0.13,-0.68,-0.05,24
1108,9.58,-0.65,0.52,-0.22,0.0,0.15,-36.25,8.88,12.37,0.72,-0.13,-0.68,-0.05,25
1109,9.39,-0.53,1.02,-0.22,0.03,0.14,-36.25,8.88,12.37,0.72,-0.13,-0.68,-0.05,26
1110,9.1,-0.55,1.32,-0.15,0.02,0.17,-36.25,8.88,12.37,0.72,-0.14,-0.68,-0.05,27
1111,8.99,-0.59,1.4,-0.15,0.02,0.17,-36.25,8.88,12.37,0.72,-0.14,-0.68,-0.05,28
1112,8.9,-0.67,1.59,-0.15,0.0,0.16,-37.19,8.88,13.56,0.72,-0.14,-0.68,-0.05,29
1113,8.98,-0.9,1.88,-0.18,0.02,0.12,-37.19,8.88,13.56,0.72,-0.14,-0.68,-0.05,30
1114,9.0,-1.16,1.94,-0.18,0.07,0.1,-37.19,8.88,13.56,0.72,-0.14,-0.68,-0.05,31
1115,8.99,-1.45,1.91,-0.15,0.08,0.12,-37.19,8.88,13.56,0.72,-0.14,-0.68,-0.05,32
1116,8.84,-2.14,1.55,-0.17,0.07,0.13,-37.19,8.88,13.56,0.72,-0.14,-0.68,-0.05,33
1117,8.81,-2.49,1.24,-0.27,0.07,0.12,-35.88,9.25,12.75,0.72,-0.14,-0.68,-0.05,34
1118,8.91,-2.61,0.86,-0.41,0.08,0.12,-35.88,9.25,12.75,0.72,-0.14,-0.68,-0.05,35
1119,8.91,-2.61,0.86,-0.51,0.1,0.11,-35.88,9.25,12.75,0.72,-0.15,-0.68,-0.05,36
1120,9.64,-2.18,0.01,-0.57,0.1,0.09,-35.88,9.25,12.75,0.72,-0.15,-0.68,-0.05,37
1121,9.78,-1.88,-0.23,-0.62,0.06,0.06,-35.88,9.25,12.75,0.72,-0.15,-0.68,-0.05,38
1122,9.84,-1.63,-0.44,-0.66,0.03,0.03,-35.56,9.38,12.75,0.72,-0.15,-0.68,-0.05,39
1123,9.86,-1.46,-0.44,-0.66,0.01,0.02,-35.56,9.38,12.75,0.72,-0.16,-0.68,-0.06,40
1124,9.86,-1.29,-0.27,-0.6,-0.01,0.02,-35.56,9.38,12.75,0.72,-0.16,-0.68,-0.06,41
1125,9.84,-1.21,-0.19,-0.5,-0.01,0.02,-35.56,9.38,12.75,0.72,-0.16,-0.68,-0.06,42
1126,9.78,-1.17,-0.1,-0.36,-0.03,0.02,-35.56,9.38,12.75,0.72,-0.16,-0.68,-0.06,43
1127,9.77,-1.24,0.02,-0.21,-0.07,0.03,-35.56,9.0,13.5,0.72,-0.16,-0.68,-0.06,44
1128,9.77,-1.24,0.02,-0.08,-0.1,0.04,-35.56,9.0,13.5,0.72,-0.16,-0.68,-0.06,45
1129,9.52,-1.55,0.24,0.05,-0.11,0.05,-35.56,9.0,13.5,0.71,-0.16,-0.68,-0.06,46
1130,9.33,-1.66,0.33,0.21,-0.09,0.06,-35.56,9.0,13.5,0.71,-0.16,-0.68,-0.06,47
1131,9.33,-1.66,0.33,0.35,-0.09,0.08,-35.56,9.0,13.5,0.71,-0.16,-0.68,-0.06,48
1132,9.06,-1.83,0.3,0.43,-0.11,0.09,-36.25,9.06,13.5,0.71,-0.16,-0.68,-0.06,49
1133,9.06,-1.83,0.3,0.43,-0.11,0.09,-36.25,9.06,13.5,0.71,-0.16,-0.68,-0.06,50
1134,9.15,-1.94,0.18,0.47,-0.12,0.1,-36.25,9.06,13.5,0.71,-0.16,-0.68,-0.05,51
1135,9.3,-1.83,-0.26,0.45,-0.14,0.09,-36.25,9.06,13.5,0.71,-0.16,-0.68,-0.05,52
1136,9.44,-1.9,-0.35,0.38,-0.15,0.06,-36.25,9.06,13.5,0.71,-0.15,-0.68,-0.05,53
1137,9.49,-2.03,-0.32,0.3,-0.13,0.01,-37.06,10.19,13.06,0.71,-0.15,-0.68,-0.05,54
1138,9.46,-2.1,-0.28,0.22,-0.09,-0.02,-37.06,10.19,13.06,0.71,-0.15,-0.68,-0.05,55
1139,9.16,-2.09,-0.45,0.13,-0.06,-0.04,-37.06,10.19,13.06,0.71,-0.15,-0.68,-0.05,56
1140,9.16,-2.09,-0.45,-0.0,-0.04,-0.06,-37.06,10.19,13.06,0.71,-0.15,-0.68,-0.05,57
1141,9.33,-1.82,-0.53,-0.13,-0.02,-0.09,-37.06,10.19,13.06,0.71,-0.15,-0.68,-0.05,58
1142,9.33,-1.82,-0.53,-0.13,-0.02,-0.09,-35.56,9.75,13.5,0.71,-0.15,-0.68,-0.05,59
1143,9.72,-1.45,-0.16,-0.16,-0.02,-0.14,-35.56,9.75,13.5,0.71,-0.15,-0.68,-0.05,60
1144,9.46,-1.4,-0.01,-0.03,-0.02,-0.12,-35.56,9.75,13.5,0.71,-0.15,-0.68,-0.05,61
1145,9.46,-1.4,-0.01,0.11,-0.03,-0.1,-35.56,9.75,13.5,0.71,-0.15,-0.68,-0.05,62
1146,9.11,-1.34,0.43,0.23,-0.04,-0.1,-35.56,9.06,13.88,0.71,-0.15,-0.68,-0.05,63
1147,9.11,-1.34,0.43,0.29,-0.06,-0.1,-35.56,9.06,13.88,0.71,-0.15,-0.68,-0.05,64
1148,9.35,-1.1,0.62,0.34,-0.07,-0.12,-35.56,9.06,13.88,0.71,-0.15,-0.68,-0.05,65
1149,9.38,-0.92,0.31,0.41,-0.09,-0.13,-35.56,9.06,13.88,0.71,-0.15,-0.68,-0.05,66
1150,9.37,-0.91,-0.06,0.45,-0.12,-0.13,-35.56,9.5,14.69,0.71,-0.14,-0.69,-0.05,67
1151,9.41,-0.8,-0.15,0.46,-0.12,-0.14,-35.56,9.5,14.69,0.71,-0.14,-0.69,-0.05,68
1152,9.55,-0.77,-0.08,0.46,-0.1,-0.17,-35.56,9.5,14.69,0.71,-0.14,-0.69,-0.05,69
1153,9.82,-0.73,-0.08,0.51,-0.07,-0.18,-35.56,9.5,14.69,0.71,-0.14,-0.69,-0.05,70
1154,9.81,-0.9,-0.24,0.55,-0.06,-0.19,-35.56,9.5,14.69,0.71,-0.14,-0.69,-0.04,71
1155,9.62,-1.17,-0.36,0.57,-0.08,-0.19,-35.56,9.5,14.69,0.71,-0.13,-0.69,-0.04,72
1156,9.28,-1.46,-0.33,0.56,-0.1,-0.19,-35.19,9.5,13.06,0.71,-0.13,-0.69,-0.04,73
1157,9.14,-1.72,-0.28,0.54,-0.09,-0.2,-35.19,9.5,13.06,0.71,-0.13,-0.69,-0.04,74
1158,9.31,-1.66,-0.18,0.5,-0.08,-0.2,-35.19,9.5,13.06,0.71,-0.13,-0.69,-0.04,75
1159,9.31,-1.66,-0.18,0.47,-0.07,-0.21,-35.19,9.5,13.06,0.71,-0.12,-0.69,-0.04,76
1160,9.39,-1.45,0.09,0.44,-0.07,-0.2,-35.19,9.5,13.06,0.71,-0.12,-0.69,-0.04,77
1161,9.39,-1.45,0.09,0.44,-0.07,-0.2,-35.88,9.88,13.88,0.71,-0.12,-0.69,-0.04,78
1162,9.26,-1.59,0.71,0.42,-0.07,-0.17,-35.88,9.88,13.88,0.71,-0.12,-0.69,-0.04,79
1163,9.3,-1.71,0.87,0.44,-0.04,-0.15,-35.88,9.88,13.88,0.71,-0.11,-0.69,-0.03,80
1164,9.21,-1.77,0.9,0.46,-0.02,-0.13,-35.88,9.88,13.88,0.71,-0.11,-0.69,-0.03,81
1165,9.04,-1.76,0.84,0.45,-0.01,-0.1,-35.88,9.88,13.88,0.71,-0.11,-0.69,-0.03,82
1166,9.11,-1.83,0.69,0.4,0.01,-0.1,-35.88,9.06,13.06,0.71,-0.11,-0.69,-0.03,83
1167,9.13,-1.94,0.56,0.33,0.02,-0.09,-35.88,9.06,13.06,0.71,-0.11,-0.69,-0.03,84
1168,9.15,-1.77,0.13,0.23,0.03,-0.07,-35.88,9.06,13.06,0.71,-0.11,-0.69,-0.03,85
1169,9.17,-1.55,0.03,0.1,0.05,-0.07,-35.88,9.06,13.06,0.71,-0.11,-0.69,-0.03,86
1170,9.26,-1.33,-0.1,-0.02,0.06,-0.07,-35.88,9.06,13.06,0.71,-0.11,-0.69,-0.03,87
1171,9.41,-1.06,-0.21,-0.13,0.06,-0.09,-35.56,10.25,13.5,0.71,-0.11,-0.69,-0.03,88
1172,9.49,-0.47,-0.12,-0.24,0.07,-0.11,-35.56,10.25,13.5,0.71,-0.11,-0.69,-0.03,89
1173,9.44,-0.24,-0.05,-0.32,0.07,-0.15,-35.56,10.25,13.5,0.71,-0.11,-0.69,-0.04,90
1174,9.46,-0.07,0.08,-0.32,0.07,-0.15,-35.56,10.25,13.5,0.71,-0.11,-0.69,-0.04,91
1175,9.52,0.13,0.23,-0.31,0.07,-0.17,-35.56,10.25,13.5,0.71,-0.11,-0.69,-0.04,92
1176,9.69,0.13,0.51,-0.29,0.07,-0.18,-36.69,9.06,12.69,0.71,-0.11,-0.69,-0.04,93
1177,9.61,0.02,0.47,-0.23,0.06,-0.17,-36.69,9.06,12.69,0.71,-0.11,-0.69,-0.04,94
1178,9.46,-0.12,0.43,-0.15,0.04,-0.13,-36.69,9.06,12.69,0.71,-0.11,-0.69,-0.04,95
1179,9.29,-0.17,0.54,-0.07,0.02,-0.1,-36.69,9.06,12.69,0.71,-0.11,-0.69,-0.04,96
1180,9.19,-0.26,0.65,0.0,0.04,-0.09,-36.69,9.06,12.69,0.71,-0.11,-0.69,-0.04,97
1181,9.28,-0.2,0.63,0.09,0.05,-0.08,-37.06,8.06,13.06,0.72,-0.11,-0.69,-0.04,98
1182,9.32,-0.2,0.61,0.15,0.03,-0.06,-37.06,8.06,13.06,0.72,-0.11,-0.69,-0.04,99
1183,9.33,-0.26,0.49,0.19,0.01,-0.06,-37.06,8.06,13.06,0.72,-0.1,-0.69,-0.04,100
1184,9.33,-0.42,0.43,0.25,0.0,-0.04,-37.06,8.06,13.06,0.72,-0.1,-0.69,-0.04,101
1185,9.35,-0.46,0.41,0.29,-0.01,-0.04,-37.06,8.06,13.06,0.72,-0.1,-0.69,-0.04,102
1186,9.61,-0.66,0.38,0.31,-0.01,-0.02,-36.69,8.88,13.88,0.72,-0.1,-0.69,-0.04,103
1187,9.61,-0.66,0.38,0.31,-0.01,-0.02,-36.69,8.88,13.88,0.72,-0.1,-0.69,-0.04,104
1188,9.7,-0.68,0.49,0.26,0.02,-0.02,-36.69,8.88,13.88,0.72,-0.1,-0.69,-0.04,105
1189,9.64,-0.69,0.52,0.21,0.03,-0.02,-36.69,8.88,13.88,0.72,-0.1,-0.69,-0.04,106
1190,9.42,-0.74,0.62,0.16,0.04,-0.03,-36.69,9.25,12.69,0.72,-0.1,-0.69,-0.04,107
1191,9.3,-0.73,0.69,0.11,0.06,-0.02,-36.69,9.25,12.69,0.72,-0.1,-0.69,-0.04,108
1192,9.19,-0.69,0.74,0.07,0.07,-0.02,-36.69,9.25,12.69,0.72,-0.1,-0.69,-0.04,109
1193,9.19,-0.7,0.78,0.04,0.08,-0.02,-36.69,9.25,12.69,0.72,-0.1,-0.69,-0.04,110
1194,9.19,-0.7,0.78,0.01,0.08,-0.02,-36.69,9.25,12.69,0.72,-0.1,-0.69,-0.04,111
1195,9.28,-0.71,0.74,-0.02,0.07,-0.01,-35.88,9.25,12.25,0.72,-0.1,-0.69,-0.04,112
1196,9.28,-0.71,0.74,-0.05,0.07,-0.0,-35.88,9.25,12.25,0.72,-0.1,-0.69,-0.04,113
1197,9.45,-0.82,0.72,-0.07,0.08,0.0,-35.88,9.25,12.25,0.72,-0.1,-0.69,-0.04,114
1198,9.54,-0.81,0.66,-0.09,0.08,0.01,-35.88,9.25,12.25,0.72,-0.1,-0.69,-0.04,115
1199,9.5,-0.81,0.58,-0.11,0.09,0.02,-35.88,9.25,12.25,0.72,-0.1,-0.69,-0.04,116
1200,9.38,-0.6,0.67,-0.14,0.1,0.03,-36.69,9.25,11.5,0.72,-0.1,-0.69,-0.04,117
1201,9.38,-0.6,0.67,-0.14,0.1,0.03,-36.69,9.25,11.5,0.72,-0.1,-0.69,-0.04,118
1202,9.47,-0.29,0.56,-0.11,0.12,0.03,-36.69,9.25,11.5,0.72,-0.1,-0.68,-0.04,119
1203,9.43,-0.24,0.57,-0.1,0.11,0.03,-36.69,9.25,11.5,0.72,-0.1,-0.68,-0.04,120
1204,9.4,-0.4,0.46,-0.06,0.1,0.04,-36.69,8.69,12.0,0.72,-0.1,-0.68,-0.04,121
1205,9.43,-0.43,0.43,-0.03,0.09,0.04,-36.69,8.69,12.0,0.72,-0.1,-0.68,-0.04,122
1206,9.49,-0.5,0.38,-0.01,0.07,0.04,-36.69,8.69,12.0,0.72,-0.1,-0.68,-0.04,123
1207,9.5,-0.6,0.45,-0.02,0.06,0.03,-36.69,8.69,12.0,0.72,-0.1,-0.68,-0.04,124
1208,9.44,-0.88,0.5,-0.03,0.07,0.03,-36.69,8.69,12.0,0.72,-0.1,-0.68,-0.04,125
1209,9.42,-0.92,0.56,-0.05,0.06,0.05,-36.69,8.75,12.37,0.72,-0.1,-0.68,-0.04,126
1210,9.41,-0.94,0.63,-0.05,0.06,0.05,-36.69,8.75,12.37,0.72,-0.1,-0.68,-0.04,127
1211,9.39,-1.0,0.69,-0.06,0.08,0.06,-36.69,8.75,12.37,0.72,-0.1,-0.68,-0.04,128
1212,9.43,-0.96,0.7,-0.06,0.09,0.07,-36.69,8.75,12.37,0.72,-0.1,-0.68,-0.04,129
1213,9.43,-0.96,0.7,-0.06,0.09,0.08,-36.69,8.75,12.37,0.72,-0.1,-0.68,-0.04,130
1214,9.42,-0.85,0.72,-0.07,0.1,0.07,-37.38,8.75,13.19,0.72,-0.1,-0.68,-0.04,131
1215,9.42,-0.85,0.72,-0.05,0.12,0.08,-37.38,8.75,13.19,0.72,-0.1,-0.68,-0.04,132
1216,9.34,-0.63,0.58,-0.04,0.11,0.08,-37.38,8.75,13.19,0.72,-0.1,-0.68,-0.04,133
1217,9.36,-0.54,0.54,-0.03,0.09,0.08,-37.38,8.75,13.19,0.73,-0.1,-0.68,-0.04,134
1218,9.43,-0.54,0.44,-0.02,0.07,0.07,-37.38,8.75,13.19,0.73,-0.1,-0.68,-0.04,135
1219,9.42,-0.71,0.41,-0.01,0.06,0.05,-35.88,9.0,11.19,0.73,-0.1,-0.68,-0.04,136
1220,9.45,-0.84,0.29,-0.01,0.04,0.05,-35.88,9.0,11.19,0.73,-0.1,-0.68,-0.04,137
1221,9.46,-0.95,0.33,-0.0,0.04,0.06,-35.88,9.0,11.19,0.73,-0.1,-0.68,-0.04,138
1222,9.46,-1.06,0.36,-0.01,0.04,0.07,-35.88,9.0,11.19,0.73,-0.11,-0.68,-0.04,139
1223,9.34,-1.15,0.52,-0.01,0.04,0.06,-35.88,9.0,11.19,0.73,-0.11,-0.68,-0.04,140
1224,9.34,-1.15,0.52,-0.01,0.04,0.06,-36.25,9.5,11.88,0.73,-0.11,-0.68,-0.04,141
1225,9.45,-1.06,0.38,-0.01,0.07,0.07,-36.25,9.5,11.88,0.73,-0.11,-0.68,-0.04,142
1226,9.48,-1.04,0.48,-0.02,0.05,0.07,-36.25,9.5,11.88,0.73,-0.11,-0.68,-0.04,143
1227,9.39,-1.01,0.52,-0.01,0.05,0.06,-36.25,9.5,11.88,0.73,-0.11,-0.68,-0.04,144
1228,9.3,-0.96,0.54,0.01,0.04,0.06,-36.25,9.5,11.88,0.73,-0.11,-0.68,-0.04,145
1229,9.28,-0.9,0.54,0.01,0.03,0.05,-37.06,10.56,11.5,0.73,-0.11,-0.68,-0.04,146
1230,9.34,-0.83,0.59,-0.01,0.03,0.05,-37.06,10.56,11.5,0.73,-0.11,-0.68,-0.04,147
1231,9.45,-0.81,0.73,-0.01,0.02,0.04,-37.06,10.56,11.5,0.73,-0.11,-0.68,-0.04,148
1232,9.43,-0.85,0.81,0.01,0.02,0.03,-37.06,10.56,11.5,0.73,-0.11,-0.68,-0.04,149
1233,9.4,-0.9,0.73,0.01,0.02,0.04,-37.06,10.56,11.5,0.73,-0.11,-0.68,-0.04,150
1234,9.34,-1.03,0.76,0.02,0.01,0.04,-36.69,9.75,11.5,0.73,-0.11,-0.68,-0.04,151
1235,9.34,-1.03,0.76,0.02,0.01,0.04,-36.69,9.75,11.5,0.73,-0.11,-0.68,-0.04,152
1236,9.46,-1.1,0.71,0.02,0.02,0.04,-36.69,9.75,11.5,0.73,-0.11,-0.68,-0.04,153
1237,9.46,-1.1,0.67,-0.0,0.03,0.04,-36.69,9.75,11.5,0.73,-0.11,-0.68,-0.04,154
1238,9.34,-1.14,0.67,-0.01,0.04,0.04,-36.69,9.75,11.5,0.73,-0.11,-0.68,-0.04,155
1239,9.27,-1.1,0.68,-0.02,0.04,0.05,-37.38,9.38,11.88,0.73,-0.11,-0.68,-0.04,156
1240,9.3,-1.05,0.67,-0.02,0.03,0.05,-37.38,9.38,11.88,0.73,-0.11,-0.68,-0.04,157
1241,9.37,-1.01,0.62,-0.03,0.03,0.04,-37.38,9.38,11.88,0.73,-0.11,-0.68,-0.04,158
1242,9.43,-0.97,0.71,-0.01,0.02,0.03,-37.38,9.38,11.88,0.73,-0.11,-0.68,-0.04,159
1243,9.4,-0.98,0.74,-0.01,0.02,0.03,-37.38,9.38,11.88,0.73,-0.11,-0.68,-0.04,160
1244,9.37,-1.03,0.73,0.03,0.03,0.03,-37.06,9.38,12.0,0.73,-0.11,-0.68,-0.03,161
1245,9.37,-1.03,0.73,0.03,0.03,0.03,-37.06,9.38,12.0,0.73,-0.11,-0.67,-0.03,162
1246,9.35,-1.05,0.76,0.03,0.03,0.03,-37.06,9.38,12.0,0.73,-0.11,-0.67,-0.03,163
1247,9.35,-1.06,0.76,0.02,0.02,0.03,-37.06,9.38,12.0,0.73,-0.11,-0.67,-0.03,164
1248,9.41,-1.02,0.69,0.01,0.01,0.04,-37.38,9.75,12.0,0.73,-0.11,-0.67,-0.03,165
1249,9.45,-0.97,0.68,0.01,0.01,0.03,-37.38,9.75,12.0,0.73,-0.11,-0.67,-0.03,166
1250,9.4,-0.96,0.69,0.0,0.0,0.03,-37.38,9.75,12.0,0.73,-0.11,-0.67,-0.03,167
1251,9.4,-0.96,0.69,-0.0,-0.0,0.02,-37.38,9.75,12.0,0.73,-0.11,-0.67,-0.03,168
1252,9.36,-1.01,0.75,0.0,-0.0,0.02,-37.38,9.75,12.0,0.73,-0.11,-0.67,-0.03,169
1253,9.38,-1.04,0.79,0.01,0.0,0.02,-36.69,9.38,12.37,0.73,-0.11,-0.67,-0.03,170
1254,9.37,-1.04,0.85,0.01,0.0,0.02,-36.69,9.38,12.37,0.73,-0.11,-0.67,-0.03,171
1255,9.35,-1.07,0.82,0.01,-0.01,0.02,-36.69,9.38,12.37,0.73,-0.11,-0.67,-0.03,172
1256,9.34,-1.14,0.79,0.0,-0.01,0.03,-36.69,9.38,12.37,0.73,-0.11,-0.67,-0.03,173
1257,9.33,-1.14,0.77,0.0,-0.01,0.03,-36.69,9.38,12.37,0.73,-0.11,-0.67,-0.03,174
1258,9.38,-1.13,0.76,-0.01,-0.01,0.03,-35.88,9.38,10.75,0.73,-0.11,-0.67,-0.03,175
1259,9.36,-1.08,0.75,-0.02,-0.01,0.03,-35.88,9.38,10.75,0.73,-0.11,-0.67,-0.03,176
1260,9.35,-1.02,0.72,-0.01,-0.0,0.01,-35.88,9.38,10.75,0.73,-0.11,-0.67,-0.03,177
1261,9.36,-1.05,0.67,-0.01,-0.0,0.01,-35.88,9.38,10.75,0.73,-0.11,-0.67,-0.03,178
1262,9.33,-1.06,0.72,0.01,-0.0,0.01,-35.88,9.38,10.75,0.73,-0.11,-0.67,-0.03,179
1263,9.31,-1.08,0.73,0.01,-0.01,0.01,-36.69,9.75,12.0,0.73,-0.11,-0.67,-0.03,180
1264,9.42,-1.07,0.65,-0.01,-0.01,0.01,-36.69,9.75,12.0,0.73,-0.11,-0.67,-0.03,181
1265,9.42,-1.07,0.65,-0.02,0.0,0.01,-36.69,9.75,12.0,0.73,-0.11,-0.67,-0.03,182
1266,9.38,-1.09,0.72,-0.03,0.01,0.01,-36.69,9.75,12.0,0.73,-0.11,-0.67,-0.03,183
1267,9.33,-1.0,0.64,-0.02,0.0,0.02,-36.69,9.75,12.0,0.73,-0.11,-0.67,-0.03,184
1268,9.33,-0.97,0.69,-0.01,-0.01,0.02,-36.69,9.38,10.75,0.73,-0.11,-0.67,-0.03,185
1269,9.34,-0.95,0.7,-0.0,-0.02,0.01,-36.69,9.38,10.75,0.73,-0.11,-0.67,-0.03,186
1270,9.38,-0.95,0.68,0.01,-0.02,0.01,-36.69,9.38,10.75,0.73,-0.11,-0.67,-0.03,187
1271,9.45,-0.97,0.71,0.03,-0.01,0.01,-36.69,9.38,10.75,0.73,-0.11,-0.67,-0.03,188
1272,9.41,-1.04,0.8,0.04,-0.01,0.01,-36.69,9.38,10.75,0.73,-0.11,-0.67,-0.03,189
1273,9.35,-1.14,0.8,0.05,-0.0,0.01,-35.88,9.75,11.19,0.73,-0.11,-0.67,-0.03,190
1274,9.31,-1.14,0.79,0.06,-0.01,0.02,-35.88,9.75,11.19,0.73,-0.11,-0.67,-0.03,191
1275,9.32,-1.14,0.74,0.06,-0.01,0.02,-35.88,9.75,11.19,0.73,-0.11,-0.67,-0.03,192
1276,9.34,-1.16,0.77,0.05,-0.0,0.01,-35.88,9.75,11.19,0.73,-0.11,-0.67,-0.03,193
1277,9.39,-1.12,0.72,0.01,0.01,0.01,-36.69,10.25,12.25,0.73,-0.11,-0.67,-0.03,194
1278,9.4,-1.1,0.67,0.01,0.01,0.01,-36.69,10.25,12.25,0.73,-0.11,-0.67,-0.03,195
1279,9.35,-1.12,0.62,0.0,0.01,0.01,-36.69,10.25,12.25,0.73,-0.11,-0.67,-0.03,196
1280,9.32,-1.12,0.59,-0.01,-0.0,0.0,-36.69,10.25,12.25,0.73,-0.11,-0.67,-0.03,197
1281,9.32,-1.1,0.62,-0.01,-0.0,0.0,-36.69,10.25,12.25,0.73,-0.11,-0.67,-0.03,198
1282,9.34,-1.1,0.65,-0.02,0.01,0.0,-37.06,10.25,11.06,0.73,-0.11,-0.67,-0.03,199
1283,9.37,-1.06,0.66,-0.02,0.01,0.0,-37.06,10.25,11.06,0.73,-0.11,-0.67,-0.03,200
1284,9.39,-1.05,0.67,-0.01,0.0,0.0,-37.06,10.25,11.06,0.73,-0.11,-0.67,-0.03,201
1285,9.4,-1.08,0.69,-0.0,0.02,0.0,-37.06,10.25,11.06,0.73,-0.11,-0.67,-0.03,202
1286,9.33,-1.05,0.7,-0.0,0.02,0.0,-37.06,10.25,11.06,0.73,-0.11,-0.67,-0.03,203
1287,9.32,-1.05,0.68,0.0,0.02,0.01,-37.38,9.5,11.5,0.73,-0.11,-0.67,-0.03,204
1288,9.32,-1.05,0.68,0.0,0.02,0.01,-37.38,9.5,11.5,0.73,-0.11,-0.67,-0.03,205
1289,9.37,-1.05,0.72,0.01,0.01,0.0,-37.38,9.5,11.5,0.73,-0.11,-0.67,-0.03,206
1290,9.35,-1.02,0.66,0.01,0.01,0.0,-37.38,9.5,11.5,0.73,-0.11,-0.67,-0.03,207
1291,9.34,-1.02,0.67,0.01,0.01,0.0,-37.38,9.5,11.5,0.73,-0.11,-0.67,-0.03,208
1292,9.38,-1.06,0.67,0.01,0.0,0.0,-37.38,9.5,11.5,0.73,-0.11,-0.67,-0.03,209
1293,9.38,-1.1,0.7,0.02,0.01,0.0,-35.88,9.5,10.25,0.73,-0.11,-0.67,-0.03,210
1294,9.35,-1.09,0.72,0.01,0.01,0.0,-35.88,9.5,10.25,0.73,-0.11,-0.67,-0.03,211
1295,9.35,-1.09,0.72,0.0,0.01,0.01,-35.88,9.5,10.25,0.73,-0.11,-0.67,-0.03,212
1296,9.39,-1.09,0.73,-0.0,0.02,0.0,-35.88,9.5,10.25,0.73,-0.11,-0.67,-0.03,213
1297,9.37,-1.11,0.72,-0.01,0.02,0.0,-35.88,9.5,10.25,0.73,-0.11,-0.67,-0.03,214
1298,9.37,-1.03,0.71,-0.03,0.02,0.01,-36.69,10.25,11.88,0.73,-0.11,-0.67,-0.03,215
1299,9.36,-1.01,0.72,-0.03,0.02,0.01,-36.69,10.25,11.88,0.73,-0.11,-0.67,-0.03,216
1300,9.34,-1.0,0.76,-0.01,0.02,0.0,-36.69,10.25,11.88,0.73,-0.11,-0.67,-0.03,217
1301,9.35,-1.01,0.74,-0.01,0.02,0.0,-36.69,10.25,11.88,0.73,-0.11,-0.67,-0.03,218
1302,9.41,-1.01,0.74,-0.01,0.02,-0.0,-35.56,9.88,11.06,0.73,-0.11,-0.67,-0.03,219
1303,9.41,-1.01,0.74,-0.01,0.02,-0.0,-35.56,9.88,11.06,0.73,-0.11,-0.67,-0.03,220
1304,9.33,-1.09,0.74,-0.02,0.03,-0.0,-35.56,9.88,11.06,0.73,-0.11,-0.67,-0.03,221
1305,9.33,-1.07,0.79,-0.02,0.02,-0.0,-35.56,9.88,11.06,0.73,-0.11,-0.67,-0.03,222
1306,9.3,-1.06,0.79,-0.02,0.02,0.0,-35.56,9.88,11.06,0.73,-0.11,-0.67,-0.03,223
1307,9.36,-1.05,0.81,-0.03,0.02,0.0,-36.25,9.06,11.5,0.73,-0.11,-0.67,-0.03,224
1308,9.37,-1.04,0.79,-0.03,0.02,0.0,-36.25,9.06,11.5,0.73,-0.11,-0.67,-0.03,225
1309,9.37,-1.05,0.78,-0.03,0.01,0.0,-36.25,9.06,11.5,0.73,-0.11,-0.67,-0.03,226
1310,9.35,-1.09,0.82,-0.03,0.02,0.01,-36.25,9.06,11.5,0.73,-0.11,-0.67,-0.03,227
1311,9.34,-1.07,0.81,-0.03,0.02,0.0,-36.25,9.06,11.5,0.73,-0.11,-0.67,-0.03,228
1312,9.29,-1.05,0.76,-0.02,0.02,0.01,-36.25,9.5,11.5,0.73,-0.11,-0.67,-0.03,229
1313,9.33,-1.04,0.79,-0.03,0.03,0.0,-36.25,9.5,11.5,0.73,-0.11,-0.67,-0.03,230
1314,9.38,-0.98,0.8,-0.03,0.02,0.0,-36.25,9.5,11.5,0.73,-0.11,-0.67,-0.03,231
1315,9.41,-0.99,0.8,-0.03,0.02,0.01,-36.25,9.5,11.5,0.73,-0.11,-0.67,-0.03,232
1316,9.37,-1.03,0.78,-0.02,0.03,0.01,-36.25,9.5,11.5,0.73,-0.11,-0.67,-0.03,233
1317,9.31,-1.04,0.78,-0.01,0.03,0.01,-36.69,10.25,11.06,0.73,-0.11,-0.67,-0.03,234
1318,9.31,-1.04,0.78,-0.01,0.03,0.01,-36.69,10.25,11.06,0.73,-0.11,-0.67,-0.03,235
1319,9.35,-1.08,0.76,0.0,0.01,0.01,-36.69,10.25,11.06,0.73,-0.11,-0.67,-0.03,236
1320,9.36,-1.14,0.79,-0.01,0.02,0.01,-36.69,10.25,11.06,0.73,-0.11,-0.67,-0.03,237
1321,9.33,-1.13,0.81,-0.02,0.03,0.01,-36.69,10.25,11.06,0.73,-0.11,-0.67,-0.03,238
1322,9.32,-1.09,0.77,-0.02,0.04,0.02,-36.25,9.5,11.06,0.73,-0.11,-0.67,-0.03,239
1323,9.28,-1.02,0.84,-0.03,0.04,0.02,-36.25,9.5,11.06,0.73,-0.11,-0.67,-0.03,240
1324,9.4,-0.96,0.7,-0.03,0.05,0.01,-36.25,9.5,11.06,0.73,-0.11,-0.67,-0.03,241
1325,9.43,-0.91,0.88,-0.03,0.04,0.01,-36.25,9.5,11.06,0.73,-0.11,-0.67,-0.03,242
1326,9.42,-0.97,0.85,-0.01,0.03,-0.0,-36.25,9.5,11.06,0.73,-0.11,-0.67,-0.03,243
1327,9.32,-1.01,0.88,0.01,0.03,0.0,-36.69,10.25,11.06,0.73,-0.11,-0.67,-0.03,244
1328,9.27,-1.04,0.93,0.03,0.03,0.01,-36.69,10.25,11.06,0.73,-0.11,-0.67,-0.03,245
1329,9.27,-1.04,0.93,0.04,0.02,0.01,-36.69,10.25,11.06,0.73,-0.11,-0.67,-0.03,246
1330,9.32,-1.1,0.83,0.04,0.02,0.01,-36.69,10.25,11.06,0.73,-0.11,-0.67,-0.03,247
1331,9.35,-1.11,0.88,0.04,0.02,0.02,-36.69,10.25,11.06,0.73,-0.11,-0.67,-0.03,248
1332,9.33,-1.09,0.88,0.03,0.03,0.02,-37.75,9.88,10.25,0.73,-0.11,-0.67,-0.03,249
1333,9.42,-1.05,0.73,0.03,0.06,0.02,-37.75,9.88,10.25,0.73,-0.11,-0.67,-0.03,250
1334,9.39,-1.08,0.77,0.02,0.04,0.01,-37.75,9.88,10.25,0.73,-0.11,-0.67,-0.03,251
1335,9.36,-1.05,0.74,0.03,0.03,0.01,-37.75,9.88,10.25,0.73,-0.11,-0.67,-0.03,252
1336,9.36,-1.05,0.74,0.02,0.02,0.01,-37.75,9.88,10.25,0.73,-0.11,-0.67,-0.03,253
1337,9.31,-1.07,0.75,0.02,0.01,0.01,-36.69,10.19,11.19,0.73,-0.11,-0.67,-0.03,254
1338,9.31,-1.07,0.75,0.03,0.01,0.0,-36.69,10.19,11.19,0.73,-0.11,-0.67,-0.03,255
1339,9.43,-1.08,0.69,0.04,0.03,0.01,-36.69,10.19,11.19,0.73,-0.11,-0.67,-0.03,256
1340,9.39,-1.11,0.78,0.03,0.03,0.0,-36.69,10.19,11.19,0.73,-0.11,-0.67,-0.03,257
1341,9.37,-1.12,0.81,0.02,-0.0,0.01,-36.69,10.19,11.19,0.73,-0.11,-0.67,-0.03,258
1342,9.33,-1.14,0.8,0.03,0.01,0.01,-36.25,10.19,10.75,0.73,-0.11,-0.67,-0.03,259
1343,9.33,-1.1,0.84,0.03,0.01,0.0,-36.25,10.19,10.75,0.73,-0.11,-0.67,-0.03,260
1344,9.32,-1.07,0.83,0.02,0.01,0.0,-36.25,10.19,10.75,0.73,-0.11,-0.67,-0.03,261
1345,9.33,-1.02,0.81,0.02,0.01,0.01,-36.25,10.19,10.75,0.73,-0.11,-0.67,-0.03,262
1346,9.34,-1.04,0.81,0.01,0.0,0.01,-37.06,9.38,11.19,0.73,-0.11,-0.67,-0.03,263
1347,9.3,-1.08,0.92,0.01,0.0,-0.0,-37.06,9.38,11.19,0.73,-0.11,-0.67,-0.03,264
1348,9.4,-1.1,0.7,0.02,0.01,-0.0,-37.06,9.38,11.19,0.73,-0.11,-0.67,-0.03,265
1349,9.34,-1.13,0.84,0.01,0.01,-0.01,-37.06,9.38,11.19,0.73,-0.11,-0.67,-0.03,266
1350,9.35,-1.17,0.83,0.0,-0.0,0.0,-37.06,9.38,11.19,0.73,-0.11,-0.67,-0.03,267
1351,9.33,-1.17,0.84,-0.0,0.01,0.0,-36.25,9.75,9.56,0.73,-0.11,-0.67,-0.03,268
1352,9.36,-1.08,0.82,0.0,0.01,0.0,-36.25,9.75,9.56,0.73,-0.11,-0.67,-0.03,269
1353,9.38,-1.03,0.83,-0.01,0.01,-0.0,-36.25,9.75,9.56,0.73,-0.11,-0.67,-0.03,270
1354,9.37,-1.0,0.85,-0.01,0.01,0.0,-36.25,9.75,9.56,0.73,-0.11,-0.67,-0.03,271
1355,9.39,-1.01,0.86,-0.01,0.02,-0.0,-36.25,9.75,9.56,0.73,-0.11,-0.67,-0.03,272
1356,9.33,-1.06,0.83,-0.01,0.0,-0.0,-36.69,9.0,10.38,0.73,-0.11,-0.67,-0.03,273
1357,9.33,-1.09,0.84,-0.0,0.0,0.0,-36.69,9.0,10.38,0.73,-0.11,-0.67,-0.03,274
1358,9.27,-1.1,0.91,-0.0,0.0,0.0,-36.69,9.0,10.38,0.73,-0.11,-0.67,-0.03,275
1359,9.39,-1.07,0.8,0.01,0.01,-0.0,-36.69,9.0,10.38,0.73,-0.11,-0.67,-0.03,276
1360,9.37,-1.06,0.84,0.0,0.02,-0.0,-36.69,9.0,10.38,0.73,-0.11,-0.67,-0.03,277
1361,9.39,-1.0,0.8,-0.0,0.01,0.0,-36.69,9.0,10.75,0.73,-0.11,-0.67,-0.03,278
1362,9.39,-0.99,0.79,-0.01,0.01,0.01,-36.69,9.0,10.75,0.73,-0.11,-0.67,-0.03,279
1363,9.36,-1.04,0.87,-0.0,0.0,0.0,-36.69,9.0,10.75,0.73,-0.11,-0.67,-0.03,280
1364,9.26,-1.06,0.98,-0.0,0.0,0.0,-36.69,9.0,10.75,0.73,-0.11,-0.67,-0.03,281
1365,9.38,-1.08,0.8,0.0,0.01,0.0,-36.69,9.0,10.75,0.73,-0.11,-0.67,-0.03,282
1366,9.35,-1.09,0.89,0.0,0.01,0.0,-35.56,9.0,9.56,0.73,-0.11,-0.67,-0.03,283
1367,9.3,-1.13,0.95,0.01,-0.01,0.0,-35.56,9.0,9.56,0.73,-0.11,-0.67,-0.03,284
1368,9.29,-1.08,0.96,-0.0,0.0,0.0,-35.56,9.0,9.56,0.73,-0.11,-0.67,-0.03,285
1369,9.29,-1.08,1.0,-0.01,0.01,-0.0,-35.56,9.0,9.56,0.73,-0.11,-0.67,-0.03,286
1370,9.27,-1.08,0.98,-0.01,0.01,0.0,-35.56,9.0,9.56,0.73,-0.11,-0.67,-0.03,287
1371,9.36,-1.03,0.88,-0.01,0.03,0.01,-37.38,9.75,9.56,0.73,-0.11,-0.67,-0.03,288
1372,9.38,-1.03,0.89,-0.01,0.0,0.01,-37.38,9.75,9.56,0.73,-0.11,-0.67,-0.03,289
1373,9.29,-1.0,0.98,-0.01,-0.01,0.0,-37.38,9.75,9.56,0.73,-0.11,-0.67,-0.03,290
1374,9.44,-1.0,0.69,-0.0,0.01,0.0,-37.38,9.75,9.56,0.73,-0.11,-0.67,-0.03,291
1375,9.39,-1.07,0.83,-0.01,-0.01,0.0,-37.38,9.75,9.56,0.73,-0.11,-0.67,-0.03,292
1376,9.32,-1.08,0.91,-0.01,-0.01,0.0,-37.5,9.88,12.0,0.73,-0.11,-0.67,-0.03,293
1377,9.39,-1.05,0.75,-0.02,-0.01,0.0,-37.5,9.88,12.0,0.73,-0.11,-0.67,-0.03,294
1378,9.44,-1.03,0.75,-0.03,-0.0,0.0,-37.5,9.88,12.0,0.73,-0.11,-0.67,-0.03,295
1379,9.23,-1.05,0.92,-0.03,-0.0,0.0,-37.5,9.88,12.0,0.73,-0.11,-0.67,-0.03,296
1380,9.31,-1.07,0.74,-0.03,0.01,0.01,-37.5,9.88,12.0,0.73,-0.11,-0.67,-0.03,297
1381,9.25,-1.11,0.85,-0.03,-0.0,0.01,-37.5,9.88,11.19,0.73,-0.11,-0.67,-0.03,298
1382,9.31,-1.1,0.86,-0.02,0.01,0.02,-37.5,9.88,11.19,0.73,-0.11,-0.67,-0.03,299
1383,9.31,-1.07,0.87,-0.02,0.01,0.02,-37.5,9.88,11.19,0.73,-0.11,-0.67,-0.03,300
1384,9.31,-1.1,0.91,-0.02,0.02,0.02,-37.5,9.88,11.19,0.73,-0.11,-0.67,-0.03,301
1385,9.27,-1.1,0.9,-0.01,0.02,0.03,-37.5,9.88,11.19,0.73,-0.11,-0.67,-0.03,302
1386,9.31,-1.12,0.82,-0.03,0.02,0.04,-37.06,10.19,11.56,0.73,-0.11,-0.67,-0.03,303
1387,9.42,-1.18,0.76,-0.07,0.02,0.03,-37.06,10.19,11.56,0.74,-0.11,-0.67,-0.03,304
1388,9.39,-1.23,0.86,-0.06,0.03,0.02,-37.06,10.19,11.56,0.74,-0.11,-0.67,-0.03,305
1389,9.39,-1.19,0.85,-0.06,0.03,0.01,-37.06,10.19,11.56,0.74,-0.11,-0.67,-0.03,306
1390,9.36,-1.09,0.95,-0.08,0.02,0.0,-36.69,9.75,11.56,0.74,-0.11,-0.67,-0.03,307
1391,9.36,-1.09,0.95,-0.08,0.03,-0.01,-36.69,9.75,11.56,0.74,-0.11,-0.67,-0.03,308
1392,9.33,-1.06,0.98,-0.09,0.03,-0.01,-36.69,9.75,11.56,0.74,-0.11,-0.67,-0.03,309
1393,9.29,-1.05,1.01,-0.07,0.03,-0.0,-36.69,9.75,11.56,0.74,-0.11,-0.67,-0.03,310
1394,9.28,-1.09,1.0,-0.06,0.02,-0.0,-36.69,9.75,11.56,0.74,-0.11,-0.67,-0.03,311
1395,9.28,-1.08,0.98,-0.05,0.02,0.0,-36.69,9.06,9.56,0.74,-0.11,-0.67,-0.03,312
1396,9.35,-1.07,0.95,-0.04,0.02,0.0,-36.69,9.06,9.56,0.74,-0.11,-0.67,-0.04,313
1397,9.35,-1.07,0.94,-0.03,0.02,0.01,-36.69,9.06,9.56,0.74,-0.11,-0.67,-0.04,314
1398,9.35,-1.06,0.98,-0.01,0.02,0.01,-36.69,9.06,9.56,0.74,-0.11,-0.67,-0.04,315
1399,9.36,-1.04,0.99,-0.01,0.02,0.01,-36.69,9.06,9.56,0.74,-0.11,-0.67,-0.04,316
1400,9.3,-1.1,0.97,0.01,0.02,0.0,-36.25,10.19,10.38,0.74,-0.11,-0.67,-0.04,317
1401,9.3,-1.1,0.97,-0.01,0.02,0.01,-36.25,10.19,10.38,0.74,-0.11,-0.67,-0.04,318
1402,9.33,-1.11,0.97,-0.02,0.02,0.01,-36.25,10.19,10.38,0.74,-0.11,-0.67,-0.04,319
1403,9.33,-1.11,0.97,-0.02,0.02,0.01,-36.25,9.38,10.75,0.74,-0.11,-0.67,-0.04,320
1404,9.32,-1.17,0.98,-0.02,0.02,0.01,-36.25,9.38,10.75,0.74,-0.11,-0.67,-0.04,321
1405,9.31,-1.2,0.91,-0.01,0.03,0.01,-36.25,9.38,10.75,0.74,-0.11,-0.67,-0.04,322
1406,9.3,-1.13,0.96,-0.02,0.03,0.01,-36.25,9.38,10.75,0.74,-0.11,-0.67,-0.04,323
1407,9.32,-1.11,0.96,-0.02,0.03,0.0,-36.25,9.38,10.75,0.74,-0.11,-0.67,-0.04,324
1408,9.35,-1.07,0.92,-0.03,0.02,0.0,-36.69,9.75,9.56,0.74,-0.11,-0.67,-0.04,325
1409,9.38,-1.07,0.93,-0.04,0.02,0.0,-36.69,9.75,9.56,0.74,-0.11,-0.67,-0.04,326
1410,9.43,-1.09,0.88,-0.03,0.01,0.0,-36.69,9.75,9.56,0.74,-0.11,-0.67,-0.04,327
1411,9.36,-1.08,0.86,-0.03,0.01,0.0,-36.69,9.75,9.56,0.74,-0.11,-0.67,-0.04,328
1412,9.37,-1.08,0.88,-0.03,0.01,0.0,-36.69,9.75,9.56,0.74,-0.11,-0.66,-0.04,329
1413,9.3,-1.08,0.92,-0.03,0.02,0.0,-37.19,9.38,9.56,0.74,-0.11,-0.66,-0.04,330
1414,9.3,-1.08,0.92,-0.03,0.02,0.0,-37.19,9.38,9.56,0.74,-0.11,-0.66,-0.04,331
1415,9.28,-1.04,0.92,-0.02,0.02,0.01,-37.19,9.38,9.56,0.74,-0.11,-0.66,-0.04,332
1416,9.3,-1.07,0.98,-0.01,0.02,0.01,-37.19,9.38,9.56,0.74,-0.11,-0.66,-0.04,333
1417,9.37,-1.05,0.82,-0.01,0.04,0.01,-37.19,9.38,9.56,0.74,-0.11,-0.66,-0.04,334
1418,9.45,-1.07,0.84,-0.01,0.03,0.02,-37.19,9.75,11.19,0.74,-0.11,-0.66,-0.04,335
1419,9.4,-1.11,0.93,-0.02,-0.01,0.01,-37.19,9.75,11.19,0.74,-0.11,-0.66,-0.04,336
1420,9.43,-1.12,0.95,-0.02,-0.01,-0.0,-37.19,9.75,11.19,0.74,-0.11,-0.66,-0.04,337
1421,9.43,-1.12,0.95,-0.02,-0.01,-0.01,-37.19,9.75,11.19,0.74,-0.11,-0.66,-0.04,338
1422,9.27,-1.21,1.01,-0.0,-0.0,-0.01,-37.19,9.75,11.19,0.74,-0.11,-0.66,-0.04,339
1423,9.27,-1.21,1.01,-0.01,0.01,-0.0,-35.88,9.0,11.19,0.74,-0.11,-0.66,-0.04,340
1424,9.26,-1.16,1.04,-0.01,0.01,0.0,-35.88,9.0,11.19,0.74,-0.11,-0.66,-0.04,341
1425,9.29,-1.13,1.0,-0.01,0.01,0.01,-35.88,9.0,11.19,0.74,-0.11,-0.66,-0.04,342
1426,9.35,-1.12,0.97,-0.02,0.0,0.01,-35.88,9.0,11.19,0.74,-0.12,-0.66,-0.04,343
1427,9.42,-1.08,0.94,-0.03,0.0,0.0,-35.88,9.0,11.19,0.74,-0.12,-0.66,-0.04,344
1428,9.39,-1.11,1.03,-0.03,-0.0,-0.01,-37.06,10.19,11.19,0.74,-0.12,-0.66,-0.04,345
1429,9.3,-1.08,1.02,-0.03,0.01,-0.01,-37.06,10.19,11.19,0.74,-0.12,-0.66,-0.04,346
1430,9.26,-1.07,1.04,-0.02,0.01,-0.0,-37.06,10.19,11.19,0.74,-0.12,-0.66,-0.04,347
1431,9.25,-1.07,1.01,-0.01,-0.01,-0.0,-37.06,10.19,11.19,0.74,-0.12,-0.66,-0.04,348
1432,9.25,-1.12,0.98,0.0,-0.0,0.01,-37.06,10.19,11.19,0.74,-0.12,-0.66,-0.04,349
1433,9.32,-1.13,0.95,0.0,0.0,0.01,-38.19,9.38,10.75,0.74,-0.12,-0.66,-0.04,350
1434,9.39,-1.16,0.92,-0.01,0.01,0.02,-38.19,9.38,10.75,0.74,-0.12,-0.66,-0.04,351
1435,9.39,-1.16,0.92,-0.01,0.0,0.01,-38.19,9.38,10.75,0.74,-0.12,-0.66,-0.04,352
1436,9.29,-1.26,0.96,0.0,0.01,-0.0,-38.19,9.38,10.75,0.74,-0.12,-0.66,-0.04,353
1437,9.27,-1.22,0.98,0.02,0.02,-0.01,-38.19,9.38,10.75,0.74,-0.12,-0.66,-0.04,354
1438,9.29,-1.14,1.0,0.02,0.01,-0.01,-37.38,10.5,10.38,0.74,-0.12,-0.66,-0.04,355
1439,9.31,-1.08,1.01,0.01,0.0,-0.0,-37.38,10.5,10.38,0.74,-0.12,-0.66,-0.04,356
1440,9.31,-1.08,1.01,0.01,-0.0,0.0,-37.38,10.5,10.38,0.74,-0.12,-0.66,-0.04,357
1441,9.33,-1.12,0.96,0.01,-0.01,0.01,-37.38,10.5,10.38,0.74,-0.12,-0.66,-0.04,358
1442,9.21,-1.13,1.1,0.01,0.0,0.01,-37.38,10.5,10.38,0.74,-0.12,-0.66,-0.04,359
1443,9.35,-1.14,1.0,0.01,0.01,0.01,-36.69,10.19,10.75,0.74,-0.12,-0.66,-0.04,360
1444,9.33,-1.16,0.97,0.01,0.01,0.01,-36.69,10.19,10.75,0.74,-0.12,-0.66,-0.04,361
1445,9.22,-1.13,1.08,0.01,0.02,0.01,-36.69,10.19,10.75,0.74,-0.12,-0.66,-0.04,362
1446,9.38,-1.14,0.93,0.01,0.03,0.01,-36.69,10.19,10.75,0.74,-0.12,-0.66,-0.04,363
1447,9.35,-1.15,1.06,-0.01,0.0,0.01,-36.69,10.19,10.0,0.74,-0.12,-0.66,-0.04,364
1448,9.34,-1.15,0.99,-0.01,-0.0,0.01,-36.69,10.19,10.0,0.74,-0.12,-0.66,-0.04,365
1449,9.28,-1.14,1.01,-0.01,0.01,0.01,-36.69,10.19,10.0,0.74,-0.12,-0.66,-0.04,366
1450,9.33,-1.07,0.92,0.01,0.03,0.01,-36.69,10.19,10.0,0.74,-0.12,-0.66,-0.04,367
1451,9.34,-1.08,1.05,0.01,0.03,0.01,-36.69,10.19,10.0,0.74,-0.12,-0.66,-0.04,368
1452,9.34,-1.11,1.06,0.02,0.02,-0.0,-36.25,10.19,11.19,0.74,-0.12,-0.66,-0.04,369
1453,9.28,-1.17,1.0,0.04,0.01,-0.01,-36.25,10.19,11.19,0.74,-0.12,-0.66,-0.04,370
1454,9.33,-1.14,0.97,0.01,0.0,-0.0,-36.25,10.19,11.19,0.74,-0.11,-0.66,-0.04,371
1455,9.34,-1.12,1.0,0.01,0.0,-0.0,-36.25,10.19,11.19,0.74,-0.11,-0.66,-0.04,372
1456,9.32,-1.12,1.01,0.01,0.0,0.0,-36.25,10.19,11.19,0.74,-0.11,-0.66,-0.04,373
1457,9.32,-1.12,0.99,0.02,0.01,0.01,-37.06,10.56,10.0,0.74,-0.11,-0.66,-0.04,374
1458,9.35,-1.04,1.04,0.01,0.0,0.01,-37.06,10.56,10.0,0.74,-0.11,-0.66,-0.04,375
1459,9.33,-1.06,1.07,0.03,0.01,-0.0,-37.06,10.56,10.0,0.74,-0.11,-0.66,-0.04,376
1460,9.32,-1.08,1.12,0.03,0.01,-0.0,-37.06,10.56,10.0,0.74,-0.11,-0.66,-0.04,377
1461,9.33,-1.09,1.12,0.04,0.0,-0.0,-37.06,10.56,10.0,0.74,-0.11,-0.66,-0.04,378
1462,9.3,-1.13,1.13,0.04,-0.0,-0.0,-36.69,9.06,10.38,0.74,-0.11,-0.66,-0.04,379
1463,9.3,-1.13,1.13,0.03,-0.01,0.0,-36.69,9.06,10.38,0.74,-0.11,-0.66,-0.04,380
1464,9.29,-1.13,1.06,0.02,-0.01,0.0,-36.69,9.06,10.38,0.74,-0.11,-0.66,-0.04,381
1465,9.27,-1.12,1.03,0.02,-0.01,0.0,-36.69,9.06,10.38,0.74,-0.11,-0.66,-0.04,382
1466,9.3,-1.13,1.0,0.02,-0.01,0.0,-36.25,9.88,9.19,0.74,-0.11,-0.66,-0.04,383
1467,9.3,-1.14,1.0,0.03,-0.02,-0.0,-36.25,9.88,9.19,0.74,-0.11,-0.66,-0.04,384
1468,9.35,-1.11,0.94,0.03,-0.02,0.0,-36.25,9.88,9.19,0.74,-0.11,-0.66,-0.04,385
1469,9.39,-1.07,0.74,0.02,-0.02,-0.0,-36.25,9.88,9.19,0.74,-0.11,-0.66,-0.04,386
1470,9.34,-1.05,0.68,0.01,-0.04,-0.01,-36.25,9.88,9.19,0.74,-0.11,-0.66,-0.04,387
1471,9.34,-1.03,0.59,-0.02,-0.06,-0.01,-36.25,9.88,9.19,0.74,-0.11,-0.66,-0.04,388
1472,9.32,-1.02,0.63,-0.04,-0.08,-0.01,-37.06,9.5,10.75,0.74,-0.11,-0.66,-0.04,389
1473,9.49,-0.82,0.67,-0.05,-0.08,-0.01,-37.06,9.5,10.75,0.74,-0.11,-0.66,-0.04,390
1474,9.52,-0.79,0.7,-0.04,-0.08,-0.02,-37.06,9.5,10.75,0.74,-0.11,-0.66,-0.04,391
1475,9.49,-0.81,0.84,-0.01,-0.09,-0.02,-37.06,9.5,10.75,0.74,-0.11,-0.66,-0.04,392
1476,9.39,-0.93,0.97,0.02,-0.08,-0.02,-37.06,9.5,10.75,0.74,-0.11,-0.66,-0.04,393
1477,9.33,-1.06,1.07,0.05,-0.08,-0.01,-37.38,9.5,11.56,0.74,-0.11,-0.67,-0.04,394
1478,9.22,-1.19,1.17,0.07,-0.06,-0.01,-37.38,9.5,11.56,0.74,-0.11,-0.67,-0.04,395
1479,9.13,-1.33,1.2,0.11,-0.04,-0.01,-37.38,9.5,11.56,0.74,-0.11,-0.67,-0.04,396
1480,9.12,-1.37,1.27,0.13,-0.04,-0.0,-37.38,9.5,11.56,0.74,-0.11,-0.67,-0.03,397
1481,9.22,-1.36,1.24,0.11,-0.03,0.01,-37.38,9.5,11.56,0.74,-0.11,-0.67,-0.03,398
1482,9.32,-1.34,1.21,0.07,-0.03,0.02,-37.06,10.25,10.38,0.74,-0.11,-0.67,-0.03,399
1483,9.35,-1.28,1.19,0.03,-0.02,0.02,-37.06,10.25,10.38,0.74,-0.11,-0.67,-0.03,400
1484,9.35,-1.28,1.19,-0.0,-0.0,0.01,-37.06,10.25,10.38,0.74,-0.11,-0.67,-0.03,401
1485,9.3,-1.2,1.09,-0.03,0.01,0.01,-37.06,10.25,10.38,0.74,-0.11,-0.67,-0.03,402
1486,9.22,-1.19,1.03,-0.08,0.03,0.01,-37.38,10.56,11.19,0.74,-0.11,-0.67,-0.03,403
1487,9.22,-1.19,1.03,-0.08,0.03,0.01,-37.38,10.56,11.19,0.74,-0.11,-0.67,-0.03,404
1488,9.31,-1.13,0.96,-0.12,0.05,0.01,-37.38,10.56,11.19,0.74,-0.11,-0.66,-0.04,405
1489,9.31,-1.13,0.96,-0.13,0.06,0.01,-37.38,10.56,11.19,0.74,-0.11,-0.66,-0.04,406
1490,9.32,-1.1,1.02,-0.12,0.07,0.0,-37.38,10.56,11.19,0.74,-0.11,-0.66,-0.04,407
1491,9.32,-1.1,1.02,-0.12,0.07,0.0,-36.69,9.75,10.38,0.74,-0.11,-0.66,-0.04,408
1492,9.25,-0.99,0.99,-0.07,0.08,0.01,-36.69,9.75,10.38,0.74,-0.11,-0.66,-0.04,409
1493,9.25,-0.99,0.99,-0.05,0.08,0.02,-36.69,9.75,10.38,0.74,-0.11,-0.66,-0.04,410
1494,9.35,-0.9,0.79,-0.03,0.08,0.03,-36.69,9.75,10.38,0.74,-0.12,-0.66,-0.04,411
1495,9.42,-0.92,0.78,-0.02,0.06,0.03,-36.69,9.75,10.38,0.74,-0.12,-0.66,-0.04,412
1496,9.5,-0.98,0.75,-0.01,0.05,0.04,-36.25,10.19,10.0,0.74,-0.12,-0.66,-0.04,413
1497,9.55,-1.02,0.7,-0.01,0.05,0.03,-36.25,10.19,10.0,0.74,-0.12,-0.66,-0.04,414
1498,9.41,-1.2,0.75,-0.01,0.05,0.01,-36.25,10.19,10.0,0.74,-0.12,-0.66,-0.04,415
1499,9.31,-1.22,0.78,-0.02,0.04,0.01,-36.25,10.19,10.0,0.74,-0.12,-0.66,-0.04,416
1500,9.31,-1.03,1.03,-0.04,0.03,0.02,-37.06,9.38,12.0,0.74,-0.12,-0.66,-0.04,417
1501,9.31,-1.03,1.03,-0.04,0.03,0.02,-37.06,9.38,12.0,0.74,-0.12,-0.66,-0.04,418
1502,9.35,-1.02,1.09,-0.04,0.04,0.02,-37.06,9.38,12.0,0.74,-0.12,-0.66,-0.04,419
1503,9.39,-1.02,1.16,-0.02,0.03,0.01,-37.06,9.38,12.0,0.74,-0.12,-0.66,-0.04,420
1504,9.32,-1.09,1.2,-0.02,0.03,0.01,-37.06,9.38,12.0,0.74,-0.12,-0.66,-0.04,421
1505,9.23,-1.27,1.24,0.01,0.03,0.01,-36.69,10.25,10.38,0.74,-0.12,-0.66,-0.04,422
1506,9.22,-1.35,1.19,0.01,0.03,0.01,-36.69,10.25,10.38,0.74,-0.12,-0.66,-0.04,423
1507,9.22,-1.39,1.16,0.01,0.03,0.01,-36.69,10.25,10.38,0.74,-0.12,-0.66,-0.04,424
1508,9.32,-1.34,1.06,-0.04,0.06,0.02,-36.69,10.25,10.38,0.74,-0.12,-0.66,-0.04,425
1509,9.39,-1.26,1.0,-0.04,0.06,0.02,-36.69,10.25,10.38,0.74,-0.12,-0.66,-0.04,426
1510,9.37,-1.21,1.0,-0.07,0.07,0.02,-37.06,8.75,9.56,0.74,-0.12,-0.66,-0.04,427
1511,9.33,-1.17,0.98,-0.09,0.07,0.01,-37.06,8.75,9.56,0.74,-0.12,-0.66,-0.04,428
1512,9.31,-1.07,0.94,-0.09,0.06,0.0,-37.06,8.75,9.56,0.74,-0.12,-0.66,-0.04,429
1513,9.28,-1.05,0.98,-0.09,0.06,0.0,-37.06,8.75,9.56,0.74,-0.12,-0.66,-0.04,430
1514,9.28,-1.05,1.02,-0.08,0.06,0.0,-37.06,8.75,9.56,0.74,-0.12,-0.66,-0.04,431
1515,9.3,-1.08,1.02,-0.05,0.05,0.01,-36.25,9.0,8.75,0.74,-0.12,-0.66,-0.04,432
1516,9.3,-1.08,1.02,-0.05,0.05,0.01,-36.25,9.0,8.75,0.74,-0.12,-0.66,-0.04,433
1517,9.34,-1.14,1.0,-0.02,0.06,0.02,-36.25,9.0,8.75,0.74,-0.12,-0.66,-0.04,434
1518,9.36,-1.13,1.02,-0.02,0.05,0.01,-36.25,9.0,8.75,0.74,-0.12,-0.66,-0.04,435
1519,9.39,-1.12,1.07,-0.01,0.06,0.0,-36.25,9.0,8.75,0.74,-0.12,-0.66,-0.04,436
1520,9.32,-1.15,1.15,0.02,0.05,-0.01,-37.5,9.38,11.19,0.74,-0.12,-0.66,-0.04,437
1521,9.26,-1.14,1.13,0.04,0.04,-0.0,-37.5,9.38,11.19,0.74,-0.12,-0.66,-0.04,438
1522,9.24,-1.13,1.11,0.04,0.03,0.01,-37.5,9.38,11.19,0.74,-0.12,-0.66,-0.04,439
1523,9.29,-1.13,1.08,0.04,0.02,0.01,-37.5,9.38,11.19,0.74,-0.12,-0.66,-0.04,440
1524,9.31,-1.14,1.12,0.03,0.02,0.01,-37.5,9.38,11.19,0.74,-0.12,-0.66,-0.04,441
1525,9.31,-1.14,1.12,0.03,0.02,0.01,-36.69,9.5,9.25,0.74,-0.12,-0.66,-0.04,442
1526,9.36,-1.22,1.17,0.02,0.02,0.01,-36.69,9.5,9.25,0.74,-0.12,-0.66,-0.04,443
1527,9.28,-1.29,1.25,0.02,0.01,0.0,-36.69,9.5,9.25,0.74,-0.12,-0.66,-0.04,444
1528,9.27,-1.32,1.28,0.01,0.01,-0.01,-36.69,9.5,9.25,0.74,-0.12,-0.66,-0.04,445
1529,9.28,-1.34,1.3,0.01,0.02,-0.01,-36.69,9.5,9.25,0.74,-0.12,-0.66,-0.04,446
1530,9.32,-1.28,1.31,-0.0,0.0,-0.01,-37.06,9.75,10.38,0.74,-0.12,-0.66,-0.04,447
1531,9.18,-1.16,1.47,-0.03,0.01,-0.02,-37.06,9.75,10.38,0.74,-0.12,-0.66,-0.04,448
1532,9.22,-1.16,1.31,-0.03,0.03,-0.01,-37.06,9.75,10.38,0.74,-0.12,-0.66,-0.04,449
1533,9.19,-1.09,1.4,-0.02,0.03,-0.0,-37.06,9.75,10.38,0.74,-0.12,-0.66,-0.04,450
1534,9.25,-1.05,1.34,-0.0,0.03,-0.0,-37.06,9.75,10.38,0.74,-0.12,-0.66,-0.04,451
1535,9.3,-1.07,1.28,0.01,0.02,-0.01,-37.75,10.19,10.38,0.74,-0.12,-0.66,-0.04,452
1536,9.31,-1.14,1.27,0.01,0.01,-0.02,-37.75,10.19,10.38,0.74,-0.12,-0.66,-0.04,453
1537,9.32,-1.2,1.24,0.01,-0.01,-0.02,-37.75,10.19,10.38,0.74,-0.12,-0.66,-0.04,454
1538,9.19,-1.2,1.34,0.02,-0.02,-0.01,-37.75,10.19,10.38,0.74,-0.12,-0.66,-0.04,455
1539,9.22,-1.24,1.16,0.01,-0.01,-0.0,-37.75,10.19,10.38,0.74,-0.12,-0.66,-0.04,456
1540,9.23,-1.23,1.13,0.01,-0.01,0.0,-37.38,10.19,10.0,0.74,-0.12,-0.66,-0.04,457
1541,9.24,-1.21,1.12,0.01,0.0,0.01,-37.38,10.19,10.0,0.74,-0.12,-0.66,-0.04,458
1542,9.28,-1.12,1.11,0.02,0.01,0.01,-37.38,10.19,10.0,0.74,-0.12,-0.66,-0.04,459
1543,9.3,-1.07,1.07,0.03,0.01,0.01,-37.38,10.19,10.0,0.74,-0.12,-0.66,-0.04,460
1544,9.37,-1.13,1.01,0.03,-0.01,0.0,-37.06,10.5,8.75,0.74,-0.12,-0.66,-0.04,461
1545,9.37,-1.13,1.01,0.03,-0.01,0.0,-37.06,10.5,8.75,0.74,-0.12,-0.66,-0.04,462
1546,9.35,-1.25,1.07,0.03,-0.03,-0.02,-37.06,10.5,8.75,0.74,-0.12,-0.66,-0.04,463
1547,9.35,-1.25,1.07,0.03,-0.03,-0.02,-37.06,10.5,8.75,0.74,-0.12,-0.66,-0.04,464
1548,9.33,-1.23,1.09,0.02,-0.03,-0.01,-37.06,10.5,8.75,0.74,-0.12,-0.66,-0.04,465
1549,9.24,-1.2,1.08,0.0,-0.02,-0.0,-37.19,10.19,10.0,0.74,-0.12,-0.66,-0.04,466
1550,9.25,-1.12,1.11,0.0,-0.02,-0.0,-37.19,10.19,10.0,0.74,-0.12,-0.66,-0.04,467
1551,9.29,-1.07,1.09,0.0,-0.02,-0.0,-37.19,10.19,10.0,0.74,-0.12,-0.66,-0.04,468
1552,9.38,-1.07,1.06,0.01,-0.02,-0.01,-37.19,10.19,10.0,0.74,-0.12,-0.66,-0.04,469
1553,9.31,-1.09,1.24,0.01,-0.04,-0.02,-37.19,10.19,10.0,0.74,-0.12,-0.66,-0.04,470
1554,9.31,-1.09,1.24,0.03,-0.02,-0.02,-37.19,10.19,10.0,0.74,-0.12,-0.66,-0.04,471
1555,9.24,-1.18,1.15,0.03,-0.02,-0.01,-36.75,10.19,9.56,0.74,-0.12,-0.66,-0.04,472
1556,9.24,-1.18,1.15,0.03,-0.02,-0.01,-36.75,10.19,9.56,0.74,-0.12,-0.66,-0.04,473
1557,9.27,-1.2,1.13,0.03,-0.02,-0.01,-36.75,10.19,9.56,0.74,-0.12,-0.66,-0.04,474
1558,9.25,-1.14,1.11,0.03,-0.02,0.0,-36.75,10.19,9.56,0.74,-0.12,-0.66,-0.04,475
1559,9.27,-1.12,1.12,0.01,-0.02,0.01,-36.75,10.19,9.56,0.74,-0.12,-0.66,-0.04,476
1560,9.31,-1.1,1.12,0.01,-0.01,0.0,-36.75,9.0,10.75,0.74,-0.12,-0.66,-0.04,477
1561,9.33,-1.11,1.15,0.01,-0.01,0.0,-36.75,9.0,10.75,0.74,-0.12,-0.66,-0.04,478
1562,9.34,-1.11,1.14,0.03,-0.01,-0.0,-36.75,9.0,10.75,0.74,-0.12,-0.66,-0.04,479
1563,9.34,-1.05,1.17,0.04,-0.03,-0.01,-36.75,9.0,10.75,0.74,-0.12,-0.66,-0.04,480
1564,9.32,-1.07,1.2,0.04,-0.03,-0.01,-36.75,9.0,10.75,0.74,-0.12,-0.66,-0.04,481
1565,9.27,-1.09,1.18,0.04,-0.03,-0.01,-37.5,9.75,11.56,0.74,-0.12,-0.66,-0.04,482
1566,9.32,-1.07,1.13,0.05,-0.03,-0.0,-37.5,9.75,11.56,0.74,-0.12,-0.66,-0.04,483
1567,9.31,-1.05,1.15,0.04,-0.03,0.0,-37.5,9.75,11.56,0.74,-0.11,-0.66,-0.04,484
1568,9.3,-1.08,1.14,0.04,-0.03,0.0,-37.5,9.75,11.56,0.74,-0.11,-0.66,-0.04,485
1569,9.25,-1.13,1.16,0.05,-0.02,-0.0,-37.5,9.75,11.56,0.74,-0.11,-0.66,-0.04,486
1570,9.25,-1.09,1.15,0.05,-0.02,0.0,-37.5,9.75,10.38,0.74,-0.11,-0.66,-0.04,487
1571,9.32,-1.1,1.19,0.05,-0.02,-0.0,-37.5,9.75,10.38,0.74,-0.11,-0.66,-0.04,488
1572,9.33,-1.12,1.18,0.04,-0.02,-0.0,-37.5,9.75,10.38,0.74,-0.11,-0.66,-0.04,489
1573,9.32,-1.1,1.15,0.04,-0.01,0.0,-37.5,9.75,10.38,0.74,-0.11,-0.66,-0.04,490
1574,9.32,-1.1,1.12,0.02,-0.01,0.0,-37.88,9.75,9.19,0.74,-0.11,-0.66,-0.04,491
1575,9.32,-1.11,1.13,0.02,-0.01,0.0,-37.88,9.75,9.19,0.74,-0.11,-0.66,-0.04,492
1576,9.27,-1.17,1.04,0.01,-0.01,-0.0,-37.88,9.75,9.19,0.74,-0.11,-0.66,-0.04,493
1577,9.24,-1.22,1.0,0.01,-0.01,-0.0,-37.88,9.75,9.19,0.74,-0.11,-0.66,-0.04,494
1578,9.27,-1.15,1.0,-0.0,-0.01,0.0,-37.88,9.75,9.19,0.74,-0.11,-0.66,-0.04,495
1579,9.29,-1.1,1.01,-0.01,-0.01,0.0,-37.88,9.38,9.56,0.74,-0.11,-0.66,-0.04,496
1580,9.35,-1.07,1.07,-0.01,-0.01,0.0,-37.88,9.38,9.56,0.74,-0.11,-0.66,-0.04,497
1581,9.38,-1.05,1.12,-0.0,-0.01,0.0,-37.88,9.38,9.56,0.74,-0.11,-0.66,-0.04,498
1582,9.34,-1.05,1.12,0.01,0.0,-0.0,-37.88,9.38,9.56,0.74,-0.11,-0.66,-0.04,499
1583,9.32,-1.04,1.17,0.03,-0.0,0.0,-37.88,9.38,9.56,0.74,-0.11,-0.66,-0.04,500
1584,9.32,-1.04,1.17,0.03,-0.0,0.01,-37.88,9.38,9.56,0.74,-0.11,-0.66,-0.04,501
1585,9.26,-1.09,1.18,0.04,-0.01,0.01,-36.75,9.75,10.0,0.74,-0.11,-0.66,-0.04,502
1586,9.26,-1.09,1.18,0.04,-0.01,0.01,-36.75,9.75,10.0,0.74,-0.11,-0.66,-0.04,503
1587,9.37,-1.15,1.11,0.01,-0.0,0.01,-36.75,9.75,10.0,0.74,-0.11,-0.66,-0.04,504
1588,9.34,-1.14,1.07,0.0,-0.0,0.01,-36.75,9.75,10.0,0.74,-0.11,-0.66,-0.04,505
1589,9.32,-1.16,1.04,-0.01,-0.0,0.01,-37.88,10.19,10.0,0.74,-0.11,-0.66,-0.04,506
1590,9.27,-1.14,1.04,-0.01,0.01,0.01,-37.88,10.19,10.0,0.74,-0.11,-0.66,-0.04,507
1591,9.29,-1.12,1.02,-0.01,0.01,0.01,-37.88,10.19,10.0,0.74,-0.11,-0.66,-0.04,508
1592,9.32,-1.13,1.01,-0.03,0.0,0.01,-37.88,10.19,10.0,0.74,-0.11,-0.66,-0.04,509
1593,9.34,-1.1,1.01,-0.04,-0.01,0.01,-37.88,10.19,10.0,0.74,-0.11,-0.66,-0.04,510
1594,9.38,-1.11,1.04,-0.03,-0.0,0.01,-36.0,9.38,9.25,0.74,-0.11,-0.66,-0.04,511
1595,9.33,-1.14,1.07,-0.03,-0.0,0.0,-36.0,9.38,9.25,0.74,-0.11,-0.66,-0.04,512
1596,9.27,-1.11,1.07,-0.01,0.0,0.0,-36.0,9.38,9.25,0.74,-0.11,-0.66,-0.04,513
1597,9.25,-1.1,1.07,-0.01,0.0,0.0,-36.0,9.38,9.25,0.74,-0.11,-0.66,-0.04,514
1598,9.25,-1.1,1.07,-0.0,0.01,0.01,-36.0,9.38,9.25,0.74,-0.11,-0.66,-0.04,515
1599,9.27,-1.13,1.16,0.0,0.01,0.01,-37.19,9.38,10.38,0.74,-0.11,-0.66,-0.04,516
1600,9.3,-1.13,1.1,0.01,-0.0,0.02,-37.19,9.38,10.38,0.74,-0.11,-0.66,-0.04,517
1601,9.32,-1.16,1.09,0.01,-0.01,0.02,-37.19,9.38,10.38,0.74,-0.11,-0.66,-0.04,518
1602,9.32,-1.16,1.09,-0.0,-0.0,0.01,-37.19,9.38,10.38,0.74,-0.11,-0.66,-0.04,519
1603,9.33,-1.18,1.12,0.0,0.0,0.0,-37.19,9.0,9.56,0.74,-0.11,-0.66,-0.04,520
1604,9.3,-1.21,1.11,0.0,-0.0,0.0,-37.19,9.0,9.56,0.74,-0.11,-0.66,-0.04,521
1605,9.27,-1.14,1.15,-0.01,-0.01,0.0,-37.19,9.0,9.56,0.74,-0.11,-0.66,-0.04,522
1606,9.25,-1.19,1.16,-0.01,-0.01,0.0,-37.19,9.0,9.56,0.74,-0.11,-0.66,-0.04,523
1607,9.22,-1.18,1.15,-0.01,-0.01,0.0,-37.19,9.0,9.56,0.74,-0.11,-0.66,-0.04,524
1608,9.28,-1.18,1.13,-0.01,-0.01,0.01,-36.75,9.38,8.75,0.74,-0.11,-0.66,-0.04,525
1609,9.31,-1.19,1.14,-0.02,-0.0,0.0,-36.75,9.38,8.75,0.74,-0.11,-0.66,-0.04,526
1610,9.31,-1.19,1.14,-0.02,0.0,0.0,-36.75,9.38,8.75,0.74,-0.11,-0.66,-0.04,527
1611,9.3,-1.13,1.13,-0.02,0.01,-0.0,-36.75,9.38,8.75,0.74,-0.11,-0.66,-0.04,528
1612,9.32,-1.09,1.19,-0.02,0.0,-0.0,-36.75,9.38,8.75,0.74,-0.11,-0.66,-0.04,529
1613,9.27,-1.09,1.16,-0.01,-0.0,-0.01,-37.19,9.38,10.0,0.74,-0.11,-0.66,-0.04,530
1614,9.28,-1.09,1.15,-0.0,0.0,-0.0,-37.19,9.38,10.0,0.74,-0.11,-0.66,-0.04,531
1615,9.3,-1.1,1.11,-0.0,0.0,0.0,-37.19,9.38,10.0,0.74,-0.11,-0.66,-0.04,532
1616,9.3,-1.13,1.09,-0.01,-0.0,0.01,-37.19,9.38,10.0,0.74,-0.11,-0.66,-0.04,533
1617,9.31,-1.16,1.1,-0.01,-0.0,0.01,-37.19,9.38,10.0,0.74,-0.11,-0.66,-0.04,534
1618,9.33,-1.16,1.12,-0.01,0.0,0.01,-37.5,9.0,10.0,0.74,-0.11,-0.66,-0.04,535
1619,9.32,-1.16,1.13,-0.0,0.01,0.0,-37.5,9.0,10.0,0.74,-0.11,-0.66,-0.04,536
1620,9.28,-1.18,1.11,0.0,0.01,-0.0,-37.5,9.0,10.0,0.74,-0.11,-0.66,-0.04,537
1621,9.28,-1.16,1.12,0.01,0.0,0.0,-37.5,9.0,10.0,0.74,-0.11,-0.66,-0.04,538
1622,9.24,-1.14,1.13,0.01,0.0,0.0,-37.5,9.0,10.0,0.74,-0.11,-0.66,-0.04,539
1623,9.32,-1.12,1.12,0.01,0.01,0.01,-37.19,9.38,9.56,0.74,-0.11,-0.66,-0.04,540
1624,9.33,-1.11,1.12,0.01,0.01,0.0,-37.19,9.38,9.56,0.74,-0.11,-0.66,-0.04,541
1625,9.31,-1.15,1.12,0.02,0.01,0.0,-37.19,9.38,9.56,0.74,-0.11,-0.66,-0.04,542
1626,9.3,-1.12,1.14,0.01,0.01,-0.0,-37.19,9.38,9.56,0.74,-0.11,-0.66,-0.04,543
1627,9.28,-1.13,1.14,0.0,-0.0,-0.0,-37.19,9.38,9.56,0.74,-0.11,-0.66,-0.04,544
1628,9.28,-1.15,1.17,0.0,0.01,-0.0,-37.19,10.19,9.56,0.74,-0.11,-0.66,-0.04,545
1629,9.31,-1.13,1.14,0.01,0.01,0.0,-37.19,10.19,9.56,0.74,-0.11,-0.66,-0.04,546
1630,9.31,-1.14,1.11,0.02,0.01,0.0,-37.19,10.19,9.56,0.74,-0.11,-0.66,-0.04,547
1631,9.28,-1.18,1.13,0.01,0.01,0.0,-37.19,10.19,9.56,0.74,-0.11,-0.66,-0.04,548
1632,9.32,-1.21,1.18,0.01,0.01,0.0,-37.19,10.19,9.56,0.74,-0.11,-0.66,-0.04,549
1633,9.31,-1.22,1.17,0.0,0.01,0.0,-37.5,9.75,10.38,0.74,-0.11,-0.66,-0.04,550
1634,9.27,-1.24,1.14,-0.01,0.01,-0.0,-37.5,9.75,10.38,0.74,-0.11,-0.66,-0.04,551
1635,9.26,-1.17,1.09,-0.02,0.0,-0.01,-37.5,9.75,10.38,0.74,-0.11,-0.66,-0.04,552
1636,9.29,-1.12,1.14,-0.02,0.0,-0.0,-37.5,9.75,10.38,0.74,-0.11,-0.66,-0.04,553
1637,9.29,-1.1,1.11,-0.03,0.0,0.0,-37.5,9.75,10.38,0.74,-0.11,-0.66,-0.04,554
1638,9.24,-1.06,1.07,-0.02,0.01,-0.0,-36.75,9.75,8.75,0.74,-0.11,-0.66,-0.04,555
1639,9.26,-1.03,1.08,-0.01,0.01,0.01,-36.75,9.75,8.75,0.74,-0.11,-0.66,-0.04,556
1640,9.3,-1.07,1.04,0.01,0.01,0.01,-36.75,9.75,8.75,0.74,-0.11,-0.66,-0.04,557
1641,9.33,-1.08,1.06,0.01,0.01,0.0,-36.75,9.75,8.75,0.74,-0.11,-0.66,-0.04,558
1642,9.36,-1.16,1.15,0.02,0.0,-0.0,-36.75,9.75,8.75,0.74,-0.11,-0.66,-0.04,559
1643,9.32,-1.15,1.14,0.02,0.0,-0.01,-37.5,10.5,10.38,0.74,-0.11,-0.66,-0.04,560
1644,9.27,-1.1,1.13,0.02,0.01,0.01,-37.5,10.5,10.38,0.74,-0.11,-0.66,-0.04,561
1645,9.39,-1.09,1.11,0.01,0.0,0.01,-37.5,10.5,10.38,0.74,-0.11,-0.66,-0.04,562
1646,9.4,-1.11,1.13,0.01,-0.0,0.01,-37.5,10.5,10.38,0.74,-0.11,-0.66,-0.04,563
1647,9.39,-1.15,1.12,0.0,-0.01,0.0,-37.5,9.75,9.25,0.74,-0.11,-0.66,-0.04,564
1648,9.32,-1.2,1.13,0.0,-0.01,-0.01,-37.5,9.75,9.25,0.74,-0.11,-0.66,-0.04,565
1649,9.17,-1.19,1.13,0.01,0.0,-0.01,-37.5,9.75,9.25,0.74,-0.11,-0.66,-0.04,566
1650,9.16,-1.15,1.14,0.01,0.0,-0.01,-37.5,9.75,9.25,0.74,-0.11,-0.66,-0.04,567
1651,9.2,-1.14,1.2,-0.0,0.0,-0.01,-37.5,9.75,9.25,0.74,-0.11,-0.66,-0.04,568
1652,9.28,-1.13,1.14,-0.01,0.01,-0.01,-37.19,9.38,10.0,0.74,-0.11,-0.66,-0.04,569
1653,9.28,-1.13,1.14,-0.01,0.01,-0.01,-37.19,9.38,10.0,0.74,-0.11,-0.66,-0.04,570
1654,9.35,-1.09,1.07,-0.01,0.01,-0.0,-37.19,9.38,10.0,0.74,-0.11,-0.66,-0.04,571
1655,9.34,-1.08,1.07,-0.02,0.01,-0.01,-37.19,9.38,10.0,0.74,-0.11,-0.66,-0.04,572
1656,9.31,-1.09,1.13,0.01,-0.0,-0.02,-37.88,9.38,9.25,0.74,-0.11,-0.66,-0.04,573
1657,9.29,-1.11,1.12,0.01,-0.0,-0.02,-37.88,9.38,9.25,0.74,-0.11,-0.66,-0.04,574
1658,9.27,-1.09,1.14,0.01,-0.0,-0.01,-37.88,9.38,9.25,0.74,-0.11,-0.66,-0.04,575
1659,9.27,-1.06,1.12,0.02,0.0,-0.01,-37.88,9.38,9.25,0.74,-0.11,-0.66,-0.04,576
1660,9.29,-1.11,1.13,0.02,0.01,-0.0,-37.88,9.38,9.25,0.74,-0.11,-0.66,-0.04,577
1661,9.29,-1.13,1.16,0.01,0.01,-0.0,-37.88,9.38,9.25,0.74,-0.11,-0.66,-0.04,578
1662,9.29,-1.18,1.15,0.02,0.01,-0.01,-37.5,9.38,10.0,0.74,-0.11,-0.66,-0.04,579
1663,9.27,-1.24,1.18,0.02,0.01,-0.01,-37.5,9.38,10.0,0.74,-0.11,-0.66,-0.04,580
1664,9.27,-1.24,1.18,0.02,0.0,-0.01,-37.5,9.38,10.0,0.74,-0.11,-0.66,-0.04,581
1665,9.27,-1.24,1.16,0.01,-0.0,-0.02,-37.5,9.38,10.0,0.74,-0.11,-0.66,-0.04,582
1666,9.21,-1.22,1.26,-0.01,0.0,-0.01,-37.5,9.38,10.0,0.74,-0.11,-0.66,-0.04,583
1667,9.22,-1.2,1.18,-0.0,0.02,-0.0,-37.19,9.38,9.25,0.74,-0.11,-0.66,-0.04,584
1668,9.36,-1.12,1.13,-0.0,0.02,-0.0,-37.19,9.38,9.25,0.74,-0.11,-0.66,-0.04,585
1669,9.39,-1.1,1.11,-0.02,0.02,-0.01,-37.19,9.38,9.25,0.74,-0.11,-0.66,-0.04,586
1670,9.38,-1.12,1.1,-0.01,0.02,-0.02,-37.19,9.38,9.25,0.74,-0.11,-0.66,-0.04,587
1671,9.34,-1.13,1.06,-0.02,0.01,-0.03,-37.19,9.38,9.25,0.74,-0.11,-0.66,-0.04,588
1672,9.16,-1.14,1.28,-0.03,-0.01,-0.03,-37.5,10.19,8.38,0.74,-0.11,-0.66,-0.04,589
1673,9.16,-1.13,1.18,-0.01,0.02,-0.03,-37.5,10.19,8.38,0.74,-0.11,-0.66,-0.04,590
1674,9.16,-1.11,1.13,-0.01,0.02,-0.01,-37.5,10.19,8.38,0.74,-0.11,-0.66,-0.04,591
1675,9.23,-1.04,1.1,-0.01,0.02,-0.0,-37.5,10.19,8.38,0.74,-0.11,-0.66,-0.04,592
1676,9.24,-1.06,1.08,-0.01,0.02,-0.01,-37.5,10.19,8.38,0.74,-0.11,-0.66,-0.04,593
1677,9.27,-1.08,1.02,-0.02,0.02,-0.01,-37.88,9.88,10.38,0.74,-0.11,-0.66,-0.04,594
1678,9.27,-1.08,1.02,-0.01,0.01,-0.03,-37.88,9.88,10.38,0.74,-0.11,-0.66,-0.04,595
1679,9.23,-1.11,1.15,-0.0,0.02,-0.03,-37.88,9.88,10.38,0.75,-0.11,-0.66,-0.04,596
1680,9.25,-1.13,1.08,0.02,0.03,-0.03,-37.88,9.88,10.38,0.75,-0.11,-0.66,-0.04,597
1681,9.25,-1.17,1.11,0.02,0.01,-0.02,-38.25,10.19,10.0,0.75,-0.11,-0.66,-0.04,598
1682,9.08,-1.18,1.23,0.01,0.03,-0.02,-38.25,10.19,10.0,0.75,-0.11,-0.66,-0.04,599
1683,9.09,-1.29,1.06,-0.0,0.04,-0.01,-38.25,10.19,10.0,0.75,-0.11,-0.66,-0.04,600
1684,9.16,-1.32,1.04,-0.02,0.04,-0.01,-38.25,10.19,10.0,0.75,-0.11,-0.66,-0.04,601
1685,9.32,-1.28,1.04,-0.05,0.04,-0.02,-38.25,10.19,10.0,0.75,-0.11,-0.66,-0.04,602
1686,9.52,-1.26,1.04,-0.06,0.06,-0.04,-38.25,10.19,10.0,0.75,-0.11,-0.66,-0.04,603
1687,9.16,-1.28,1.25,-0.02,0.08,-0.05,-37.38,9.88,10.38,0.75,-0.11,-0.65,-0.04,604
1688,9.19,-1.25,1.04,-0.02,0.08,-0.05,-37.38,9.88,10.38,0.75,-0.11,-0.65,-0.04,605
1689,9.05,-1.22,1.2,0.0,0.07,-0.05,-37.38,9.88,10.38,0.75,-0.11,-0.65,-0.04,606
1690,9.12,-1.27,1.0,0.02,0.09,-0.05,-37.38,9.88,10.38,0.75,-0.11,-0.65,-0.04,607
1691,9.15,-1.32,1.03,0.04,0.09,-0.04,-37.75,9.5,9.56,0.75,-0.11,-0.65,-0.04,608
1692,9.23,-1.35,0.93,0.04,0.09,-0.04,-37.75,9.5,9.56,0.75,-0.11,-0.65,-0.04,609
1693,9.33,-1.39,0.69,0.04,0.08,-0.05,-37.75,9.5,9.56,0.75,-0.11,-0.65,-0.04,610
1694,9.45,-1.39,0.69,0.04,0.08,-0.07,-37.75,9.5,9.56,0.75,-0.11,-0.65,-0.04,611
1695,9.5,-1.41,0.73,0.04,0.08,-0.09,-37.75,9.5,9.56,0.75,-0.11,-0.65,-0.04,612
1696,9.52,-1.42,0.67,0.06,0.09,-0.1,-36.25,9.06,9.25,0.75,-0.11,-0.65,-0.04,613
1697,9.26,-1.35,0.7,0.07,0.08,-0.1,-36.25,9.06,9.25,0.75,-0.11,-0.65,-0.04,614
1698,9.19,-1.3,0.62,0.09,0.09,-0.1,-36.25,9.06,9.25,0.75,-0.11,-0.65,-0.04,615
1699,9.15,-1.29,0.65,0.11,0.08,-0.11,-36.25,9.06,9.25,0.75,-0.11,-0.65,-0.04,616
1700,9.56,-1.27,0.51,0.13,0.03,-0.12,-36.75,9.75,8.38,0.75,-0.11,-0.65,-0.04,617
1701,9.56,-1.27,0.51,0.12,-0.0,-0.13,-36.75,9.75,8.38,0.75,-0.11,-0.65,-0.04,618
1702,9.56,-1.39,0.45,0.12,-0.03,-0.15,-36.75,9.75,8.38,0.75,-0.11,-0.65,-0.04,619
1703,9.36,-1.37,0.41,0.11,-0.05,-0.18,-36.75,9.75,8.38,0.75,-0.11,-0.65,-0.04,620
1704,9.44,-1.28,0.32,0.09,-0.07,-0.19,-36.75,9.75,8.38,0.75,-0.1,-0.66,-0.04,621
1705,9.57,-1.22,0.27,0.05,-0.1,-0.2,-37.5,8.25,8.38,0.75,-0.1,-0.66,-0.04,622
1706,9.58,-1.2,0.3,0.02,-0.12,-0.22,-37.5,8.25,8.38,0.74,-0.1,-0.66,-0.04,623
1707,9.54,-1.22,0.13,-0.01,-0.14,-0.22,-37.5,8.25,8.38,0.74,-0.1,-0.66,-0.04,624
1708,9.5,-1.2,0.05,-0.04,-0.18,-0.22,-37.5,8.25,8.38,0.74,-0.1,-0.66,-0.04,625
1709,9.5,-1.17,0.0,-0.06,-0.2,-0.22,-37.5,8.25,8.38,0.74,-0.1,-0.66,-0.04,626
1710,9.5,-1.17,0.0,-0.06,-0.2,-0.22,-37.88,7.87,8.75,0.74,-0.1,-0.66,-0.04,627
1711,9.68,-0.9,-0.33,-0.09,-0.25,-0.21,-37.88,7.87,8.75,0.74,-0.1,-0.66,-0.05,628
1712,9.76,-0.83,-0.34,-0.13,-0.28,-0.22,-37.88,7.87,8.75,0.74,-0.1,-0.66,-0.05,629
1713,9.78,-0.76,-0.31,-0.14,-0.32,-0.25,-37.88,7.87,8.75,0.74,-0.1,-0.67,-0.05,630
1714,9.84,-0.67,-0.32,-0.16,-0.34,-0.27,-37.88,7.87,8.75,0.74,-0.1,-0.67,-0.05,631
1715,9.87,-0.42,-0.58,-0.16,-0.36,-0.28,-37.5,8.0,8.0,0.73,-0.1,-0.67,-0.05,632
1716,9.97,-0.34,-0.88,-0.15,-0.42,-0.27,-37.5,8.0,8.0,0.73,-0.1,-0.67,-0.05,633
1717,10.09,-0.29,-1.06,-0.14,-0.51,-0.27,-37.5,8.0,8.0,0.73,-0.1,-0.67,-0.05,634
1718,10.49,-0.12,-1.38,-0.13,-0.59,-0.28,-37.5,8.0,8.0,0.73,-0.1,-0.68,-0.05,635
1719,10.66,-0.04,-1.49,-0.11,-0.63,-0.29,-37.5,8.0,8.0,0.73,-0.1,-0.68,-0.05,636
1720,10.84,0.07,-1.82,-0.09,-0.65,-0.3,-37.19,7.25,9.25,0.72,-0.1,-0.68,-0.06,637
1721,10.96,0.18,-2.09,-0.07,-0.69,-0.32,-37.19,7.25,9.25,0.72,-0.1,-0.68,-0.06,638
1722,11.54,0.33,-2.82,-0.1,-0.82,-0.43,-37.19,7.25,9.25,0.72,-0.1,-0.69,-0.06,639
1723,11.9,0.36,-3.21,-0.1,-0.82,-0.43,-37.19,7.25,9.25,0.72,-0.1,-0.69,-0.06,640
1724,11.69,0.38,-3.32,-0.21,-1.0,-0.53,-37.19,7.25,9.25,0.71,-0.1,-0.69,-0.06,641
1725,11.69,0.08,-3.85,-0.31,-1.15,-0.6,-37.19,7.69,11.25,0.71,-0.1,-0.7,-0.06,642
1726,11.8,-0.27,-4.76,-0.43,-1.29,-0.61,-37.19,7.69,11.25,0.7,-0.1,-0.7,-0.07,643
1727,11.93,-0.28,-4.88,-0.55,-1.47,-0.62,-37.19,7.69,11.25,0.69,-0.1,-0.71,-0.07,644
1728,11.97,-0.18,-4.75,-0.72,-1.63,-0.65,-37.19,7.69,11.25,0.69,-0.1,-0.71,-0.07,645
1729,12.0,-0.03,-4.54,-1.03,-1.71,-0.78,-37.19,5.75,13.56,0.68,-0.1,-0.72,-0.08,646
1730,11.99,0.08,-3.83,-1.03,-1.71,-0.78,-37.19,5.75,13.56,0.68,-0.1,-0.72,-0.08,647
1731,12.37,0.19,-4.16,-1.16,-1.83,-0.8,-37.19,5.75,13.56,0.67,-0.1,-0.73,-0.1,648
1732,12.97,0.33,-4.73,-1.16,-1.83,-0.8,-37.19,5.75,13.56,0.67,-0.1,-0.73,-0.1,649
1733,13.0,0.53,-3.93,-1.31,-2.12,-0.82,-37.19,5.75,13.56,0.66,-0.11,-0.74,-0.1,650
1734,10.72,0.88,-0.14,-1.47,-2.12,-0.85,-37.19,5.75,13.56,0.64,-0.11,-0.75,-0.12,651
1735,9.74,1.2,0.0,-1.48,-1.71,-0.79,-37.56,3.19,16.25,0.64,-0.11,-0.75,-0.12,652
1736,9.11,1.44,0.25,-1.28,-1.43,-0.7,-37.56,3.19,16.25,0.63,-0.11,-0.76,-0.13,653
1737,8.95,1.35,0.77,-0.93,-1.43,-0.6,-37.56,3.19,16.25,0.63,-0.11,-0.76,-0.13,654
1738,9.33,1.23,0.74,-0.58,-1.49,-0.52,-37.56,3.19,16.25,0.62,-0.12,-0.76,-0.13,655
1739,9.72,1.13,0.86,-0.31,-1.5,-0.43,-37.56,3.19,16.25,0.62,-0.12,-0.77,-0.13,656
1740,9.72,1.13,0.86,-0.31,-1.5,-0.43,-35.5,0.88,20.56,0.61,-0.12,-0.77,-0.13,657
1741,9.18,1.2,1.0,0.11,-1.47,-0.21,-35.5,0.88,20.56,0.6,-0.11,-0.78,-0.13,658
1742,8.87,1.04,0.63,0.3,-1.47,-0.11,-35.5,0.88,20.56,0.6,-0.11,-0.78,-0.13,659
1743,8.2,0.0,0.66,0.71,-1.41,0.01,-34.56,0.69,22.19,0.58,-0.11,-0.8,-0.12,660
1744,7.85,-1.09,0.45,0.71,-1.41,0.01,-34.56,0.69,22.19,0.58,-0.11,-0.8,-0.12,661
1745,7.71,-1.49,0.33,0.56,-1.27,0.03,-34.56,0.69,22.19,0.57,-0.11,-0.8,-0.11,662
1746,7.58,-1.67,0.05,0.56,-1.27,0.03,-34.56,0.69,22.19,0.57,-0.11,-0.81,-0.11,663
1747,7.45,-1.81,-0.11,0.31,-1.21,0.03,-34.56,0.69,22.19,0.57,-0.11,-0.81,-0.11,664
1748,7.22,-2.05,-0.34,0.03,-1.13,0.05,-34.56,0.69,22.19,0.56,-0.11,-0.81,-0.11,665
1749,7.13,-2.18,-0.53,-0.21,-1.05,0.08,-33.06,0.75,24.87,0.56,-0.11,-0.81,-0.11,666
1750,7.19,-2.21,-0.64,-0.43,-0.98,0.1,-33.06,0.75,24.87,0.55,-0.12,-0.82,-0.11,667
1751,7.24,-1.91,-0.8,-0.62,-0.94,0.11,-33.06,0.75,24.87,0.55,-0.12,-0.82,-0.11,668
1752,6.91,-1.97,-0.96,-0.79,-0.89,0.09,-33.06,0.75,24.87,0.55,-0.12,-0.82,-0.12,669
1753,6.71,-1.92,-0.97,-0.92,-0.82,0.11,-33.06,0.75,24.87,0.55,-0.12,-0.82,-0.12,670
1754,6.71,-1.92,-0.97,-1.04,-0.76,0.14,-31.37,0.88,26.0,0.54,-0.13,-0.82,-0.12,671
1755,6.36,-1.03,-0.85,-1.11,-0.65,0.14,-31.37,0.88,26.0,0.54,-0.13,-0.82,-0.13,672
1756,6.24,-0.63,-0.45,-1.12,-0.51,0.13,-31.37,0.88,26.0,0.54,-0.13,-0.82,-0.13,673
1757,6.14,-0.12,-0.29,-0.96,-0.24,0.18,-31.37,0.88,26.0,0.53,-0.14,-0.82,-0.14,674
1758,6.19,0.49,-0.33,-0.96,-0.24,0.18,-31.37,0.88,26.0,0.53,-0.14,-0.82,-0.14,675
1759,6.3,1.24,-0.97,-0.84,-0.11,0.21,-30.69,-0.19,27.19,0.53,-0.15,-0.82,-0.14,676
1760,6.39,1.34,-1.18,-0.7,0.04,0.23,-30.69,-0.19,27.19,0.53,-0.15,-0.82,-0.14,677
1761,6.42,1.22,-1.32,-0.54,0.17,0.26,-30.69,-0.19,27.19,0.53,-0.15,-0.82,-0.14,678
1762,6.59,1.15,-1.7,-0.41,0.3,0.33,-30.69,-0.19,27.19,0.53,-0.15,-0.82,-0.14,679
1763,7.72,1.07,-2.8,-0.35,0.45,0.39,-30.69,-0.19,27.19,0.53,-0.15,-0.82,-0.14,680
1764,8.62,1.12,-3.34,-0.33,0.56,0.43,-30.25,-0.56,27.56,0.54,-0.16,-0.81,-0.15,681
1765,9.38,1.28,-3.25,-0.36,0.58,0.45,-30.25,-0.56,27.56,0.54,-0.16,-0.81,-0.15,682
1766,9.67,1.53,-3.04,-0.33,0.72,0.57,-30.25,-0.56,27.56,0.54,-0.16,-0.81,-0.15,683
1767,8.89,2.74,-3.15,-0.33,0.72,0.57,-30.25,-0.56,27.56,0.54,-0.16,-0.81,-0.15,684
1768,8.52,3.35,-3.77,-0.18,0.91,0.7,-30.25,-0.56,27.56,0.55,-0.17,-0.81,-0.15,685
1769,8.35,3.74,-4.54,-0.04,0.99,0.77,-30.19,-1.69,27.56,0.55,-0.17,-0.8,-0.15,686
1770,8.09,3.27,-5.35,0.01,0.92,0.74,-30.19,-1.69,27.56,0.56,-0.17,-0.8,-0.14,687
1771,8.35,2.6,-5.39,-0.02,0.77,0.66,-30.19,-1.69,27.56,0.56,-0.17,-0.79,-0.14,688
1772,8.88,2.02,-5.44,-0.11,0.59,0.6,-30.19,-1.69,27.56,0.56,-0.17,-0.79,-0.14,689
1773,8.88,2.02,-5.44,-0.24,0.43,0.56,-30.19,-1.69,27.56,0.57,-0.18,-0.79,-0.14,690
1774,10.39,1.59,-5.36,-0.41,0.26,0.47,-32.88,0.69,26.87,0.57,-0.18,-0.79,-0.14,691
1775,10.39,1.59,-5.36,-0.41,0.26,0.47,-32.88,0.69,26.87,0.57,-0.18,-0.79,-0.14,692
1776,10.55,2.07,-5.31,-0.74,0.23,0.3,-32.88,0.69,26.87,0.57,-0.19,-0.79,-0.15,693
1777,9.98,2.57,-4.92,-0.78,0.24,0.33,-32.88,0.69,26.87,0.57,-0.19,-0.79,-0.15,694
1778,9.13,3.05,-4.02,-0.61,0.22,0.43,-32.88,0.69,26.87,0.57,-0.19,-0.79,-0.15,695
1779,8.39,2.9,-3.49,-0.29,0.19,0.54,-32.88,0.25,25.19,0.57,-0.2,-0.78,-0.15,696
1780,7.16,2.37,-2.44,0.15,0.25,0.66,-32.88,0.25,25.19,0.57,-0.2,-0.78,-0.14,697
1781,5.78,1.71,-0.91,0.61,0.5,0.81,-32.88,0.25,25.19,0.57,-0.2,-0.78,-0.14,698
1782,5.78,1.71,-0.91,1.03,0.98,0.96,-32.88,0.25,25.19,0.58,-0.2,-0.78,-0.14,699
1783,13.15,-1.56,-1.58,1.28,1.2,1.09,-32.88,0.25,25.19,0.59,-0.2,-0.78,-0.13,700
1784,13.15,-1.56,-1.58,1.18,0.57,1.07,-32.88,1.5,25.19,0.59,-0.2,-0.77,-0.12,701
1785,22.94,1.42,-6.6,0.64,-0.22,0.83,-32.88,1.5,25.19,0.59,-0.2,-0.77,-0.12,702
1786,9.84,3.98,-4.88,-1.7,0.43,0.07,-32.88,1.5,25.19,0.59,-0.21,-0.77,-0.13,703
1787,9.84,3.98,-4.88,-1.7,0.43,0.07,-32.88,1.5,25.19,0.59,-0.21,-0.77,-0.13,704
1788,8.15,5.22,-0.91,-2.01,1.52,0.23,-32.88,1.5,25.19,0.59,-0.21,-0.77,-0.13,705
1789,8.09,5.68,4.86,-1.24,2.06,0.54,-34.38,3.25,24.0,0.61,-0.22,-0.75,-0.14,706
1790,7.42,4.07,5.47,0.21,1.95,0.71,-34.38,3.25,24.0,0.61,-0.22,-0.75,-0.14,707
1791,7.42,4.07,5.47,1.64,1.4,0.73,-34.38,3.25,24.0,0.61,-0.22,-0.75,-0.13,708
1792,4.97,-2.43,3.24,2.62,0.6,0.71,-34.38,3.25,24.0,0.62,-0.2,-0.75,-0.11,709
1793,6.49,-7.06,0.81,2.76,-0.03,0.62,-34.38,3.25,24.0,0.62,-0.2,-0.75,-0.11,710
1794,8.21,-8.09,1.45,2.16,-0.1,0.52,-35.5,3.06,20.0,0.62,-0.2,-0.75,-0.1,711
1795,9.68,-8.03,2.11,1.45,0.28,0.56,-35.5,3.06,20.0,0.63,-0.2,-0.75,-0.09,712
1796,10.3,-6.77,2.26,1.02,0.73,0.75,-35.5,3.06,20.0,0.63,-0.2,-0.74,-0.08,713
1797,9.32,-3.64,0.85,0.85,1.0,0.88,-35.5,3.06,20.0,0.63,-0.2,-0.74,-0.08,714
1798,8.73,-2.96,-0.14,0.69,1.03,0.82,-35.5,3.06,20.0,0.64,-0.2,-0.74,-0.08,715
1799,8.75,-2.57,-0.65,0.07,1.07,0.45,-35.69,5.5,19.5,0.64,-0.2,-0.74,-0.08,716
1800,10.35,-1.75,0.02,-0.14,1.33,0.24,-35.69,5.5,19.5,0.65,-0.2,-0.73,-0.08,717
1801,10.12,-1.65,-0.13,0.02,1.33,0.21,-35.69,5.5,19.5,0.66,-0.2,-0.72,-0.08,718
1802,9.52,-1.61,-0.66,0.22,1.24,0.22,-35.69,5.5,19.5,0.67,-0.2,-0.71,-0.08,719
1803,8.4,-2.07,-1.04,0.37,1.14,0.27,-37.19,7.0,17.06,0.67,-0.2,-0.71,-0.08,720
1804,8.46,-2.37,-0.86,0.46,1.09,0.32,-37.19,7.0,17.06,0.67,-0.2,-0.71,-0.07,721
1805,8.88,-2.51,-0.88,0.51,1.06,0.36,-37.19,7.0,17.06,0.67,-0.2,-0.71,-0.07,722
1806,9.29,-2.42,-1.1,0.53,1.02,0.41,-37.19,7.0,17.06,0.68,-0.2,-0.7,-0.07,723
1807,9.37,-1.94,-1.51,0.53,0.97,0.43,-37.19,7.0,17.06,0.68,-0.2,-0.7,-0.07,724
1808,9.37,-1.94,-1.51,0.52,0.93,0.44,-37.69,7.69,14.75,0.69,-0.19,-0.7,-0.07,725
1809,9.4,-1.01,-1.58,0.56,0.9,0.45,-37.69,7.69,14.75,0.69,-0.19,-0.69,-0.06,726
1810,9.63,-0.43,-1.67,0.68,0.88,0.45,-37.69,7.69,14.75,0.69,-0.19,-0.69,-0.06,727
1811,9.9,-0.05,-1.69,0.99,0.72,0.39,-37.69,7.69,14.75,0.7,-0.19,-0.69,-0.05,728
1812,9.85,-0.27,-1.6,0.99,0.72,0.39,-37.69,7.69,14.75,0.7,-0.19,-0.69,-0.05,729
1813,9.73,-0.75,-1.44,1.11,0.69,0.37,-38.88,8.38,12.0,0.71,-0.18,-0.68,-0.05,730
1814,9.69,-1.39,-1.27,1.2,0.67,0.38,-38.88,8.38,12.0,0.71,-0.18,-0.68,-0.05,731
1815,9.41,-2.57,-0.73,1.2,0.66,0.38,-38.88,8.38,12.0,0.71,-0.18,-0.68,-0.04,732
1816,9.06,-3.11,-0.42,1.07,0.69,0.35,-38.88,8.38,12.0,0.72,-0.18,-0.67,-0.03,733
1817,8.69,-3.51,0.0,0.88,0.73,0.32,-38.88,8.38,12.0,0.72,-0.18,-0.67,-0.03,734
1818,8.31,-4.06,0.74,0.69,0.79,0.28,-38.69,10.69,10.5,0.72,-0.17,-0.67,-0.03,735
1819,8.21,-4.15,0.88,0.54,0.84,0.26,-38.69,10.69,10.5,0.72,-0.17,-0.67,-0.03,736
1820,8.21,-4.15,0.88,0.38,0.89,0.24,-38.69,10.69,10.5,0.73,-0.17,-0.66,-0.03,737
1821,8.15,-3.9,0.99,0.21,0.96,0.23,-38.69,10.69,10.5,0.73,-0.17,-0.66,-0.03,738
1822,8.48,-3.45,1.02,0.07,1.03,0.24,-38.69,10.69,10.5,0.73,-0.17,-0.66,-0.03,739
1823,8.73,-3.15,1.06,-0.03,1.1,0.26,-39.56,12.56,8.06,0.74,-0.17,-0.65,-0.03,740
1824,9.05,-2.77,1.02,-0.13,1.17,0.27,-39.56,12.56,8.06,0.74,-0.17,-0.65,-0.03,741
1825,9.2,-2.42,1.04,-0.19,1.23,0.26,-39.56,12.56,8.06,0.75,-0.18,-0.64,-0.03,742
1826,9.12,-1.77,1.19,-0.21,1.28,0.25,-39.56,12.56,8.06,0.75,-0.18,-0.64,-0.03,743
1827,9.01,-1.41,1.13,-0.15,1.3,0.24,-39.56,12.56,8.06,0.75,-0.18,-0.63,-0.03,744
1828,8.91,-1.2,1.04,-0.1,1.29,0.23,-40.88,12.75,7.19,0.76,-0.18,-0.63,-0.03,745
1829,8.83,-1.22,1.06,-0.05,1.29,0.24,-40.88,12.75,7.19,0.76,-0.18,-0.62,-0.03,746
1830,8.9,-1.82,0.98,-0.03,1.27,0.27,-40.88,12.75,7.19,0.77,-0.18,-0.61,-0.03,747
1831,8.86,-2.45,1.12,-0.02,1.27,0.31,-40.88,12.75,7.19,0.77,-0.18,-0.61,-0.03,748
1832,8.86,-2.45,1.12,0.01,1.27,0.35,-40.88,12.75,7.19,0.77,-0.18,-0.61,-0.03,749
1833,8.46,-4.31,0.67,-0.02,1.23,0.42,-40.19,13.38,3.56,0.78,-0.18,-0.6,-0.03,750
1834,8.46,-4.31,0.67,-0.02,1.23,0.42,-40.19,13.38,3.56,0.78,-0.18,-0.6,-0.03,751
1835,8.54,-3.93,0.43,-0.33,1.19,0.5,-40.19,13.38,3.56,0.78,-0.19,-0.59,-0.03,752
1836,8.76,-3.08,0.65,-0.37,1.25,0.5,-40.19,13.38,3.56,0.79,-0.19,-0.59,-0.03,753
1837,9.68,-0.53,1.92,-0.22,1.32,0.47,-40.19,13.38,3.56,0.79,-0.19,-0.58,-0.03,754
1838,9.84,0.52,2.59,0.04,1.37,0.37,-40.69,14.56,2.19,0.79,-0.19,-0.58,-0.03,755
1839,9.75,0.97,2.88,0.29,1.35,0.24,-40.69,14.56,2.19,0.8,-0.19,-0.57,-0.03,756
1840,9.5,0.91,2.79,0.49,1.25,0.16,-40.69,14.56,2.19,0.8,-0.19,-0.57,-0.03,757
1841,8.85,-0.05,1.94,0.57,1.13,0.18,-40.69,14.56,2.19,0.8,-0.19,-0.56,-0.03,758
1842,8.73,-0.83,1.66,0.61,1.05,0.26,-40.69,14.56,2.19,0.81,-0.19,-0.56,-0.03,759
1843,8.73,-0.83,1.66,0.61,1.05,0.26,-40.75,15.56,-1.37,0.81,-0.18,-0.55,-0.02,760
1844,9.56,-2.92,1.04,0.99,0.92,0.41,-40.75,15.56,-1.37,0.82,-0.18,-0.54,-0.01,761
1845,9.66,-3.25,0.97,1.05,0.84,0.36,-40.75,15.56,-1.37,0.82,-0.18,-0.54,-0.01,762
1846,9.66,-3.25,0.97,1.04,0.78,0.29,-40.75,15.56,-1.37,0.82,-0.17,-0.54,-0.01,763
1847,9.9,-3.31,1.11,0.98,0.68,0.22,-40.25,15.88,-4.0,0.83,-0.17,-0.54,-0.01,764
1848,9.9,-3.31,1.11,0.96,0.64,0.14,-40.25,15.88,-4.0,0.83,-0.17,-0.53,-0.0,765
1849,10.1,-2.75,1.28,0.94,0.46,0.04,-40.25,15.88,-4.0,0.83,-0.16,-0.53,-0.0,766
1850,9.91,-2.46,1.38,0.96,0.31,0.01,-40.25,15.88,-4.0,0.83,-0.16,-0.53,-0.0,767
1851,10.01,-1.32,1.01,0.93,0.26,0.06,-40.88,16.69,-6.0,0.84,-0.15,-0.53,0.0,768
1852,9.86,-0.85,0.9,0.99,0.26,0.1,-40.88,16.69,-6.0,0.84,-0.15,-0.53,0.0,769
1853,9.9,-0.63,0.62,1.15,0.29,0.09,-40.88,16.69,-6.0,0.84,-0.14,-0.53,0.01,770
1854,10.2,-0.61,0.15,1.28,0.28,0.04,-40.88,16.69,-6.0,0.84,-0.14,-0.53,0.01,771
1855,11.27,-1.05,-1.42,1.35,0.25,-0.04,-40.88,16.69,-6.0,0.84,-0.14,-0.53,0.01,772
1856,12.05,-1.84,-2.16,1.35,0.15,-0.1,-40.88,16.69,-6.0,0.84,-0.13,-0.52,0.02,773
1857,13.49,-2.81,-2.85,1.29,-0.06,-0.18,-40.56,16.69,-6.56,0.84,-0.12,-0.52,0.02,774
1858,15.45,-3.39,-3.65,1.19,-0.37,-0.26,-40.56,16.69,-6.56,0.84,-0.11,-0.53,0.02,775
1859,17.11,-2.69,-6.51,1.11,-0.78,-0.38,-40.56,16.69,-6.56,0.84,-0.11,-0.53,0.02,776
1860,17.11,-2.69,-6.51,0.97,-1.4,-0.62,-40.56,16.69,-6.56,0.84,-0.11,-0.54,0.02,777
1861,15.12,-0.53,-9.9,0.6,-2.26,-1.02,-40.56,16.69,-6.56,0.83,-0.1,-0.54,0.02,778
1862,15.12,-0.53,-9.9,0.6,-2.26,-1.02,-40.56,16.69,-8.06,0.82,-0.1,-0.56,0.02,779
1863,12.22,1.07,-4.25,-0.11,-2.63,-1.24,-40.56,16.69,-8.06,0.82,-0.09,-0.57,0.02,780
1864,13.15,0.5,-3.24,-0.27,-2.61,-1.16,-40.56,16.69,-8.06,0.81,-0.09,-0.58,0.01,781
1865,13.67,-0.91,-1.51,-0.13,-3.08,-1.2,-40.56,16.69,-8.06,0.79,-0.09,-0.6,0.01,782
1866,13.81,-3.49,1.58,0.23,-3.4,-1.17,-40.56,16.69,-8.06,0.79,-0.09,-0.6,0.01,783
1867,13.68,-3.52,3.81,0.61,-3.31,-0.93,-43.06,14.56,-3.56,0.77,-0.07,-0.63,0.01,784
1868,13.88,-3.44,6.1,0.93,-2.87,-0.58,-43.06,14.56,-3.56,0.77,-0.07,-0.63,0.01,785
1869,14.67,-3.4,7.15,1.2,-2.49,-0.23,-43.06,14.56,-3.56,0.77,-0.07,-0.64,0.01,786
1870,15.92,-3.2,7.07,1.21,-2.47,0.0,-43.06,14.56,-3.56,0.75,-0.06,-0.66,0.02,787
1871,15.88,-3.16,5.69,0.94,-2.76,0.1,-43.06,14.56,-3.56,0.75,-0.06,-0.66,0.02,788
1872,15.39,-3.17,3.75,0.49,-3.19,0.14,-44.19,12.69,2.37,0.74,-0.06,-0.67,0.02,789
1873,14.12,-3.5,4.18,0.05,-3.57,0.14,-44.19,12.69,2.37,0.73,-0.06,-0.68,0.02,790
1874,11.59,-3.81,5.02,-0.14,-3.48,0.16,-44.19,12.69,2.37,0.71,-0.06,-0.7,0.03,791
1875,11.08,-3.17,4.35,-0.27,-3.14,0.15,-44.19,12.69,2.37,0.71,-0.06,-0.7,0.03,792
1876,10.83,-2.52,3.74,-0.42,-2.98,0.08,-44.19,12.69,2.37,0.7,-0.06,-0.71,0.03,793
1877,10.7,-2.05,3.47,-0.58,-2.95,0.01,-44.19,13.19,9.19,0.69,-0.06,-0.72,0.02,794
1878,10.26,-1.78,3.7,-0.71,-2.86,-0.0,-44.19,13.19,9.19,0.68,-0.07,-0.73,0.02,795
1879,9.92,-1.79,3.8,-0.79,-2.7,0.02,-44.19,13.19,9.19,0.66,-0.07,-0.75,0.02,796
1880,9.47,-1.95,3.83,-0.83,-2.53,0.01,-44.19,13.19,9.19,0.66,-0.07,-0.75,0.02,797
1881,9.47,-1.95,3.83,-0.92,-2.41,-0.03,-44.19,13.19,9.19,0.65,-0.07,-0.76,0.02,798
1882,8.3,-2.73,3.75,-1.06,-2.32,-0.07,-42.5,11.38,15.0,0.64,-0.08,-0.77,0.01,799
1883,8.3,-2.73,3.75,-1.06,-2.32,-0.07,-42.5,11.38,15.0,0.63,-0.08,-0.77,0.01,800
1884,7.69,-2.98,3.94,-1.49,-2.13,-0.11,-42.5,11.38,15.0,0.62,-0.08,-0.78,0.0,801
1885,6.8,-2.51,4.07,-1.78,-2.03,-0.14,-42.5,11.38,15.0,0.61,-0.09,-0.79,-0.0,802
1886,6.1,-2.38,3.72,-2.21,-1.84,-0.19,-39.19,10.88,20.0,0.59,-0.11,-0.8,-0.03,803
1887,5.84,-2.34,3.53,-2.38,-1.72,-0.15,-39.19,10.88,20.0,0.59,-0.11,-0.8,-0.03,804
1888,5.64,-2.16,3.02,-2.44,-1.41,-0.0,-39.19,10.88,20.0,0.57,-0.12,-0.81,-0.04,805
1889,5.56,-1.84,2.88,-2.44,-1.41,-0.0,-39.19,10.88,20.0,0.57,-0.12,-0.81,-0.04,806
1890,5.49,-1.46,2.83,-2.35,-1.26,0.07,-39.19,10.88,20.0,0.57,-0.13,-0.81,-0.05,807
1891,5.47,-0.89,2.61,-2.21,-1.1,0.11,-36.56,8.25,24.0,0.56,-0.13,-0.81,-0.06,808
1892,5.47,0.3,2.14,-2.04,-0.96,0.12,-36.56,8.25,24.0,0.56,-0.14,-0.82,-0.07,809
1893,5.46,0.66,1.99,-1.8,-0.86,0.13,-36.56,8.25,24.0,0.55,-0.15,-0.82,-0.08,810
1894,5.55,0.79,1.84,-1.51,-0.74,0.17,-36.56,8.25,24.0,0.55,-0.15,-0.82,-0.08,811
1895,5.55,0.79,1.84,-1.22,-0.59,0.22,-36.56,8.25,24.0,0.55,-0.16,-0.82,-0.08,812
1896,6.0,1.26,0.53,-0.88,-0.46,0.29,-35.06,4.19,26.5,0.54,-0.16,-0.82,-0.09,813
1897,6.0,1.26,0.53,-0.88,-0.46,0.29,-35.06,4.19,26.5,0.54,-0.16,-0.82,-0.09,814
1898,6.24,1.66,0.01,-0.07,-0.44,0.44,-35.06,4.19,26.5,0.54,-0.16,-0.82,-0.08,815
1899,6.2,1.47,0.21,0.28,-0.44,0.51,-35.06,4.19,26.5,0.54,-0.17,-0.82,-0.08,816
1900,6.34,-0.62,-0.48,0.93,0.02,0.66,-34.69,3.87,29.0,0.54,-0.17,-0.82,-0.07,817
1901,6.34,-0.62,-0.48,0.93,0.02,0.66,-34.69,3.87,29.0,0.54,-0.17,-0.82,-0.06,818
1902,7.63,-1.74,-2.48,0.84,0.13,0.63,-34.69,3.87,29.0,0.54,-0.17,-0.82,-0.06,819
1903,8.21,-2.05,-3.74,0.11,0.2,0.37,-34.69,3.87,29.0,0.54,-0.17,-0.82,-0.06,820
1904,8.65,-2.34,-4.89,0.11,0.2,0.37,-34.69,3.87,29.0,0.54,-0.17,-0.82,-0.06,821
1905,9.1,-2.66,-5.89,-1.09,0.4,0.19,-34.69,5.75,28.19,0.54,-0.17,-0.82,-0.06,822
1906,9.47,-2.93,-5.67,-1.09,0.4,0.19,-34.69,5.75,28.19,0.54,-0.18,-0.82,-0.07,823
1907,9.59,-2.65,-5.2,-1.5,0.52,0.27,-34.69,5.75,28.19,0.54,-0.18,-0.82,-0.07,824
1908,9.8,-2.0,-5.13,-1.51,0.69,0.48,-34.69,5.75,28.19,0.55,-0.19,-0.81,-0.08,825
1909,10.17,-1.14,-5.72,-1.28,0.83,0.7,-34.69,5.75,28.19,0.55,-0.19,-0.81,-0.08,826
1910,10.25,0.68,-5.94,-1.07,0.81,0.81,-35.06,6.0,28.56,0.55,-0.2,-0.8,-0.08,827
1911,9.44,1.55,-4.85,-0.98,0.76,0.72,-35.06,6.0,28.56,0.55,-0.2,-0.8,-0.08,828
1912,8.4,2.07,-3.43,-0.93,0.86,0.5,-35.06,6.0,28.56,0.56,-0.21,-0.8,-0.09,829
1913,7.24,1.82,-1.48,-0.84,1.11,0.32,-35.06,6.0,28.56,0.56,-0.21,-0.79,-0.09,830
1914,6.71,1.33,-0.13,-0.74,1.31,0.28,-35.06,6.0,28.56,0.56,-0.21,-0.79,-0.09,831
1915,6.35,0.52,1.01,-0.58,1.41,0.37,-35.88,6.0,26.87,0.57,-0.21,-0.79,-0.1,832
1916,5.9,-0.54,2.83,-0.45,1.53,0.51,-35.88,6.0,26.87,0.57,-0.22,-0.78,-0.1,833
1917,16.62,-3.2,-0.54,-0.39,1.74,0.66,-35.88,6.0,26.87,0.59,-0.22,-0.77,-0.1,834
1918,25.84,-2.74,-7.39,-0.8,1.49,0.68,-35.88,6.0,26.87,0.59,-0.22,-0.77,-0.1,835
1919,27.93,-1.07,-5.65,-2.07,-0.45,0.41,-35.88,6.0,26.87,0.58,-0.23,-0.77,-0.11,836
1920,30.46,-0.16,-4.41,-3.04,-1.63,0.41,-38.06,5.19,23.69,0.57,-0.24,-0.77,-0.12,837
1921,21.67,8.12,-5.37,-3.37,0.28,0.41,-38.06,5.19,23.69,0.57,-0.25,-0.77,-0.13,838
1922,15.53,9.78,-6.39,-2.57,2.01,0.01,-38.06,5.19,23.69,0.58,-0.26,-0.76,-0.14,839
1923,7.58,10.33,-1.68,-0.58,1.55,0.31,-38.06,5.19,23.69,0.58,-0.26,-0.76,-0.14,840
1924,7.58,10.33,-1.68,0.91,1.27,0.62,-38.06,5.19,23.69,0.59,-0.26,-0.76,-0.14,841
1925,-3.86,-0.67,6.75,1.71,2.35,0.49,-38.38,3.25,24.75,0.6,-0.25,-0.75,-0.14,842
1926,-3.86,-0.67,6.75,2.61,2.29,0.69,-38.38,3.25,24.75,0.61,-0.25,-0.74,-0.13,843
1927,0.78,-8.58,4.63,3.73,0.93,1.22,-38.38,3.25,24.75,0.62,-0.24,-0.74,-0.11,844
1928,6.54,-13.71,-1.02,3.38,-0.8,1.05,-38.38,3.25,24.75,0.62,-0.23,-0.74,-0.09,845
1929,8.37,-14.71,-0.09,1.99,-1.35,0.49,-38.38,3.25,24.75,0.62,-0.23,-0.75,-0.08,846
1930,10.18,-13.76,1.3,0.81,-0.56,0.36,-41.06,7.25,20.37,0.62,-0.23,-0.75,-0.08,847
1931,11.44,-10.82,2.22,0.25,0.69,0.66,-41.06,7.25,20.37,0.62,-0.23,-0.74,-0.08,848
1932,10.82,-4.12,2.57,0.04,1.48,0.85,-41.06,7.25,20.37,0.62,-0.23,-0.74,-0.08,849
1933,9.98,-1.78,2.14,-0.2,1.79,0.67,-41.06,7.25,20.37,0.63,-0.24,-0.74,-0.08,850
1934,9.63,0.06,1.62,-0.56,1.91,0.34,-41.06,7.25,20.37,0.64,-0.24,-0.73,-0.08,851
1935,9.63,0.06,1.62,-0.8,1.92,0.19,-40.38,9.06,19.87,0.64,-0.24,-0.72,-0.08,852
1936,8.56,0.17,0.86,-0.77,1.92,0.16,-40.38,9.06,19.87,0.65,-0.24,-0.72,-0.09,853
1937,8.06,-0.9,0.8,-0.53,1.9,0.16,-40.38,9.06,19.87,0.65,-0.24,-0.71,-0.09,854
1938,7.83,-1.77,0.79,-0.19,1.89,0.2,-40.38,9.06,19.87,0.67,-0.24,-0.7,-0.1,855
1939,7.99,-2.09,0.56,0.1,1.85,0.28,-40.38,9.06,19.87,0.67,-0.24,-0.7,-0.1,856
1940,8.8,-1.47,-0.06,0.45,1.69,0.57,-42.0,9.69,17.5,0.68,-0.24,-0.69,-0.09,857
1941,9.11,-1.0,-0.41,0.45,1.69,0.57,-42.0,9.69,17.5,0.68,-0.24,-0.69,-0.09,858
1942,9.15,-0.65,-0.76,0.68,1.53,0.86,-42.0,9.69,17.5,0.69,-0.24,-0.68,-0.09,859
1943,9.49,-1.55,-2.16,1.08,1.37,0.81,-43.75,10.88,12.69,0.7,-0.24,-0.66,-0.08,860
1944,9.49,-1.55,-2.16,1.08,1.37,0.81,-43.75,10.88,12.69,0.71,-0.24,-0.66,-0.07,861
1945,10.68,-2.88,-2.07,0.96,1.35,0.51,-43.75,10.88,12.69,0.72,-0.24,-0.65,-0.07,862
1946,10.68,-2.88,-2.07,0.91,1.29,0.35,-43.75,10.88,12.69,0.72,-0.23,-0.65,-0.07,863
1947,9.86,-3.91,-1.06,0.86,1.26,0.28,-43.75,10.88,12.69,0.73,-0.23,-0.64,-0.06,864
1948,9.86,-3.91,-1.06,0.86,1.26,0.28,-43.75,10.88,12.69,0.73,-0.23,-0.64,-0.06,865
1949,7.96,-3.41,0.55,0.57,1.24,0.4,-42.5,12.88,9.56,0.74,-0.23,-0.63,-0.06,866
1950,7.66,-2.89,1.23,0.4,1.26,0.51,-42.5,12.88,9.56,0.74,-0.23,-0.63,-0.06,867
1951,7.6,-2.42,1.95,0.36,1.31,0.57,-42.5,12.88,9.56,0.75,-0.23,-0.62,-0.06,868
1952,7.61,-2.15,2.49,0.45,1.34,0.55,-42.5,12.88,9.56,0.75,-0.23,-0.62,-0.06,869
1953,7.86,-2.06,3.16,0.59,1.35,0.46,-43.5,14.38,5.5,0.76,-0.22,-0.61,-0.05,870
1954,8.06,-2.23,3.31,0.66,1.35,0.36,-43.5,14.38,5.5,0.76,-0.22,-0.61,-0.05,871
1955,8.06,-2.23,3.31,0.61,1.38,0.3,-43.5,14.38,5.5,0.76,-0.22,-0.6,-0.05,872
1956,8.46,-2.52,3.39,0.5,1.4,0.3,-43.5,14.38,5.5,0.77,-0.22,-0.59,-0.05,873
1957,8.68,-2.49,2.92,0.43,1.41,0.31,-43.5,14.38,5.5,0.77,-0.22,-0.59,-0.05,874
1958,8.79,-2.35,2.58,0.42,1.39,0.32,-44.5,15.5,2.37,0.78,-0.22,-0.59,-0.05,875
1959,8.68,-2.28,2.46,0.43,1.37,0.34,-44.5,15.5,2.37,0.78,-0.22,-0.58,-0.05,876
1960,8.53,-2.38,2.21,0.49,1.34,0.37,-44.5,15.5,2.37,0.79,-0.22,-0.57,-0.04,877
1961,8.5,-2.44,2.08,0.59,1.28,0.38,-44.5,15.5,2.37,0.79,-0.22,-0.57,-0.04,878
1962,8.58,-2.53,1.88,0.7,1.23,0.38,-44.5,15.5,2.37,0.79,-0.21,-0.57,-0.04,879
1963,8.84,-2.58,1.52,0.78,1.18,0.39,-43.38,15.38,-0.69,0.8,-0.21,-0.56,-0.04,880
1964,9.6,-2.54,1.04,0.84,1.13,0.4,-43.38,15.38,-0.69,0.8,-0.21,-0.56,-0.04,881
1965,9.92,-2.53,0.87,0.88,1.07,0.39,-43.38,15.38,-0.69,0.81,-0.2,-0.55,-0.03,882
1966,10.09,-2.46,0.79,0.95,0.98,0.39,-43.38,15.38,-0.69,0.81,-0.2,-0.55,-0.03,883
1967,10.09,-2.46,0.79,1.04,0.91,0.37,-43.38,15.38,-0.69,0.81,-0.2,-0.54,-0.03,884
1968,10.96,-2.57,0.47,1.16,0.85,0.38,-43.19,16.87,-3.87,0.82,-0.2,-0.54,-0.02,885
1969,10.96,-2.57,0.47,1.16,0.85,0.38,-43.19,16.87,-3.87,0.82,-0.19,-0.54,-0.02,886
1970,11.14,-1.98,0.1,1.35,0.72,0.33,-43.19,16.87,-3.87,0.82,-0.19,-0.53,-0.01,887
1971,11.06,-1.74,-0.16,1.42,0.63,0.25,-43.19,16.87,-3.87,0.83,-0.18,-0.53,-0.01,888
1972,10.7,-1.45,0.0,1.46,0.52,0.2,-43.19,16.87,-3.87,0.83,-0.18,-0.53,-0.01,889
1973,10.59,-1.11,0.03,1.47,0.41,0.15,-43.19,17.56,-6.69,0.83,-0.17,-0.53,-0.0,890
1974,10.52,-0.68,-0.04,1.5,0.32,0.06,-43.19,17.56,-6.69,0.84,-0.16,-0.53,0.0,891
1975,10.95,0.2,-0.54,1.54,0.26,-0.02,-43.19,17.56,-6.69,0.84,-0.16,-0.53,0.0,892
1976,11.26,0.64,-0.81,1.6,0.17,-0.08,-43.19,17.56,-6.69,0.84,-0.15,-0.53,0.01,893
1977,11.59,1.21,-1.3,1.69,0.03,-0.16,-43.19,17.56,-6.69,0.84,-0.15,-0.52,0.01,894
1978,11.59,1.21,-1.3,1.69,0.03,-0.16,-43.87,17.56,-9.0,0.84,-0.14,-0.53,0.02,895
1979,13.02,1.13,-3.65,2.01,-0.44,-0.4,-43.87,17.56,-9.0,0.84,-0.13,-0.53,0.02,896
1980,15.8,0.11,-5.7,2.07,-0.88,-0.54,-43.87,17.56,-9.0,0.84,-0.12,-0.53,0.02,897
1981,18.8,-0.97,-7.8,2.05,-1.64,-0.63,-43.87,17.56,-9.0,0.83,-0.1,-0.55,0.03,898
1982,19.32,-1.91,-9.1,2.06,-2.58,-0.76,-43.87,17.56,-9.0,0.83,-0.1,-0.55,0.03,899
1983,12.76,-3.58,-5.0,2.08,-3.13,-1.03,-44.69,16.87,-10.0,0.82,-0.08,-0.57,0.04,900
1984,11.28,-4.0,-3.47,1.95,-2.9,-1.24,-44.69,16.87,-10.0,0.82,-0.08,-0.57,0.04,901
1985,12.5,-4.74,-2.92,1.66,-2.61,-1.2,-44.69,16.87,-10.0,0.81,-0.07,-0.58,0.04,902
1986,15.44,-7.11,4.14,0.47,-3.64,-0.98,-44.69,16.87,-10.0,0.79,-0.05,-0.61,0.03,903
1987,15.44,-7.11,4.14,0.47,-3.64,-0.98,-46.56,15.38,-7.56,0.78,-0.05,-0.62,0.03,904
1988,14.48,-7.27,5.91,0.57,-2.99,-0.22,-46.56,15.38,-7.56,0.77,-0.04,-0.63,0.04,905
1989,15.85,-5.48,5.82,0.26,-2.9,0.09,-46.56,15.38,-7.56,0.76,-0.04,-0.64,0.04,906
1990,16.62,-3.16,7.02,-0.36,-2.89,0.07,-46.56,15.38,-7.56,0.74,-0.05,-0.67,0.03,907
1991,16.22,-2.91,6.88,-0.86,-3.04,0.02,-46.56,15.38,-7.56,0.74,-0.05,-0.67,0.03,908
1992,15.74,-2.74,5.77,-1.18,-3.36,0.03,-47.19,12.5,-0.19,0.72,-0.05,-0.69,0.03,909
1993,12.58,-1.64,5.99,-1.24,-3.56,0.1,-47.19,12.5,-0.19,0.72,-0.05,-0.69,0.03,910
1994,11.42,-0.57,5.55,-0.91,-3.36,0.13,-47.19,12.5,-0.19,0.71,-0.06,-0.7,0.03,911
1995,10.58,0.02,4.71,-0.61,-3.15,0.09,-47.19,12.5,-0.19,0.69,-0.06,-0.72,0.03,912
1996,9.88,-0.13,4.14,-0.45,-3.12,0.08,-47.19,12.5,-0.19,0.69,-0.06,-0.72,0.03,913
1997,8.63,-1.05,4.12,-0.44,-3.06,0.16,-47.06,12.56,7.75,0.68,-0.06,-0.73,0.03,914
1998,8.12,-1.34,4.23,-0.47,-2.85,0.25,-47.06,12.56,7.75,0.67,-0.06,-0.74,0.03,915
1999,7.77,-1.64,4.22,-0.48,-2.58,0.3,-47.06,12.56,7.75,0.65,-0.07,-0.76,0.03,916
2000,7.43,-2.64,3.84,-0.69,-2.16,0.24,-44.5,12.19,15.69,0.63,-0.07,-0.77,0.02,917
2001,7.43,-2.64,3.84,-0.69,-2.16,0.24,-44.5,12.19,15.69,0.63,-0.07,-0.77,0.02,918
2002,7.28,-3.05,3.8,-1.18,-2.04,0.16,-44.5,12.19,15.69,0.61,-0.08,-0.79,0.02,919
2003,7.12,-3.43,3.67,-1.18,-2.04,0.16,-44.5,12.19,15.69,0.61,-0.09,-0.79,0.01,920
2004,6.76,-3.92,3.73,-1.66,-1.93,0.11,-44.5,12.19,15.69,0.61,-0.09,-0.79,0.01,921
2005,6.66,-3.89,3.82,-2.16,-1.81,0.06,-43.19,12.0,19.56,0.59,-0.1,-0.8,-0.0,922
2006,6.55,-3.63,3.87,-2.53,-1.7,0.01,-43.19,12.0,19.56,0.59,-0.1,-0.8,-0.0,923
2007,6.29,-3.0,3.58,-2.79,-1.58,0.02,-43.19,12.0,19.56,0.57,-0.12,-0.81,-0.02,924
2008,6.16,-2.6,3.16,-2.79,-1.58,0.02,-43.19,12.0,19.56,0.57,-0.12,-0.81,-0.02,925
2009,5.99,-2.16,2.77,-2.73,-1.54,0.1,-43.19,12.0,19.56,0.57,-0.12,-0.81,-0.03,926
2010,5.95,-1.68,2.33,-2.58,-1.48,0.16,-43.19,12.0,19.56,0.56,-0.13,-0.82,-0.04,927
2011,6.03,-0.54,1.43,-2.39,-1.39,0.2,-40.88,9.75,25.56,0.55,-0.14,-0.82,-0.05,928
2012,6.19,0.06,0.97,-2.16,-1.3,0.22,-40.88,9.75,25.56,0.54,-0.15,-0.83,-0.06,929
2013,6.5,0.59,0.61,-1.88,-1.24,0.24,-40.88,9.75,25.56,0.54,-0.15,-0.83,-0.06,930
2014,6.5,0.59,0.61,-1.63,-1.21,0.24,-40.88,9.75,25.56,0.53,-0.16,-0.83,-0.07,931
2015,7.34,1.23,0.81,-1.38,-1.19,0.22,-40.88,9.75,25.56,0.53,-0.16,-0.83,-0.07,932
2016,7.34,1.23,0.81,-1.03,-1.07,0.22,-39.06,7.06,29.06,0.52,-0.17,-0.83,-0.07,933
2017,7.13,1.43,-0.08,-0.65,-0.88,0.27,-39.06,7.06,29.06,0.52,-0.17,-0.83,-0.08,934
2018,6.77,1.41,-0.79,-0.3,-0.75,0.37,-39.06,7.06,29.06,0.52,-0.17,-0.84,-0.07,935
2019,5.96,1.01,-1.33,-0.05,-0.64,0.48,-39.06,7.06,29.06,0.51,-0.18,-0.84,-0.07,936
2020,5.74,0.67,-1.51,0.11,-0.5,0.55,-39.06,7.06,29.06,0.51,-0.18,-0.84,-0.07,937
2021,5.63,0.24,-1.57,0.18,-0.33,0.57,-36.19,5.37,31.5,0.42,-0.55,-0.66,-0.3,938
2022,5.54,-0.43,-1.29,0.18,-0.16,0.56,-36.19,5.37,31.5,0.42,-0.55,-0.66,-0.3,939
2023,6.06,-2.13,-1.63,-0.13,0.21,0.53,-36.19,5.37,31.5,0.42,-0.55,-0.65,-0.29,940
2024,6.38,-2.97,-1.8,-0.13,0.21,0.53,-36.19,5.37,31.5,0.42,-0.55,-0.65,-0.29,941
2025,6.59,-3.38,-1.8,-0.48,0.39,0.53,-36.19,5.37,31.5,0.42,-0.56,-0.65,-0.3,942
2026,8.05,-2.67,-3.44,-0.89,0.61,0.53,-35.38,6.87,32.69,0.42,-0.56,-0.65,-0.3,943
2027,8.74,-1.85,-3.6,-1.34,0.77,0.48,-35.38,6.87,32.69,0.42,-0.56,-0.64,-0.3,944
2028,9.14,-0.99,-3.48,-1.79,0.8,0.35,-35.38,6.87,32.69,0.42,-0.57,-0.63,-0.32,945
2029,9.58,-0.04,-3.67,-2.13,0.84,0.22,-35.38,6.87,32.69,0.42,-0.57,-0.63,-0.32,946
2030,9.58,-0.04,-3.67,-2.39,0.86,0.11,-35.38,6.87,32.69,0.42,-0.57,-0.63,-0.33,947
2031,11.49,2.8,-6.44,-2.51,0.82,0.03,-36.69,7.25,32.38,0.41,-0.58,-0.62,-0.34,948
2032,11.49,2.8,-6.44,-2.55,0.71,-0.01,-36.69,7.25,32.38,0.41,-0.58,-0.62,-0.35,949
2033,11.17,4.96,-7.02,-2.38,0.64,-0.04,-36.69,7.25,32.38,0.4,-0.58,-0.61,-0.36,950
2034,9.72,5.69,-5.07,-1.88,0.67,-0.03,-36.69,7.25,32.38,0.4,-0.58,-0.61,-0.36,951
2035,9.13,5.17,-3.57,-1.12,0.77,0.05,-36.69,7.25,32.38,0.4,-0.59,-0.6,-0.37,952
2036,8.72,4.49,-1.56,-0.3,0.89,0.21,-38.88,2.5,33.06,0.4,-0.59,-0.6,-0.37,953
2037,8.39,3.5,-0.14,0.51,1.06,0.46,-38.88,2.5,33.06,0.41,-0.58,-0.59,-0.37,954
2038,6.62,0.68,1.72,1.11,1.25,0.76,-38.88,2.5,33.06,0.41,-0.58,-0.59,-0.37,955
2039,5.23,-0.92,2.73,1.41,1.45,0.99,-38.88,2.5,33.06,0.42,-0.58,-0.59,-0.37,956
2040,4.0,-2.37,3.91,1.47,1.74,1.13,-38.88,2.5,33.06,0.43,-0.58,-0.59,-0.37,957
2041,4.0,-2.37,3.91,1.32,2.08,1.2,-38.88,2.06,30.0,0.44,-0.57,-0.58,-0.37,958
2042,23.19,-5.69,-6.71,0.77,2.2,1.19,-38.88,2.06,30.0,0.45,-0.57,-0.57,-0.37,959
2043,29.2,-0.84,-6.44,-2.27,-1.93,0.47,-38.88,2.06,30.0,0.45,-0.58,-0.57,-0.37,960
2044,29.2,-0.84,-6.44,-2.27,-1.93,0.47,-38.88,2.06,30.0,0.44,-0.59,-0.56,-0.38,961
2045,20.17,9.39,-3.73,-2.35,1.73,0.01,-42.19,5.06,28.0,0.43,-0.59,-0.56,-0.39,962
2046,20.17,9.39,-3.73,-2.35,1.73,0.01,-42.19,5.06,28.0,0.44,-0.59,-0.55,-0.39,963
2047,6.73,9.08,-0.41,2.02,1.28,1.04,-42.19,5.06,28.0,0.45,-0.59,-0.55,-0.39,964
2048,6.73,9.08,-0.41,3.02,1.22,0.86,-42.19,5.06,28.0,0.46,-0.58,-0.55,-0.38,965
2049,-4.18,-5.7,4.68,3.07,1.69,0.55,-42.19,5.06,28.0,0.48,-0.57,-0.55,-0.38,966
2050,-4.18,-5.7,4.68,3.07,1.69,0.55,-40.56,3.69,26.37,0.49,-0.56,-0.55,-0.37,967
2051,2.03,-15.75,1.41,2.18,0.86,0.5,-40.56,3.69,26.37,0.5,-0.56,-0.55,-0.37,968
2052,8.52,-17.22,-3.61,1.73,-0.67,0.5,-40.56,3.69,26.37,0.5,-0.56,-0.55,-0.36,969
2053,10.2,-13.47,-2.93,1.28,-1.25,0.68,-40.56,3.69,26.37,0.51,-0.56,-0.55,-0.35,970
2054,10.84,-9.0,-1.49,0.32,-0.39,0.71,-40.56,3.69,26.37,0.51,-0.56,-0.55,-0.35,971
2055,9.95,-2.12,0.67,-0.61,0.74,0.47,-41.0,8.25,24.87,0.51,-0.56,-0.54,-0.36,972
2056,9.51,0.08,0.95,-1.19,1.42,0.24,-41.0,8.25,24.87,0.51,-0.56,-0.54,-0.36,973
2057,9.4,1.64,1.23,-1.32,1.69,0.22,-41.0,8.25,24.87,0.51,-0.56,-0.53,-0.37,974
2058,9.45,2.52,1.42,-0.93,1.71,0.31,-41.0,8.25,24.87,0.51,-0.56,-0.53,-0.37,975
2059,8.12,0.94,1.87,-0.39,1.59,0.3,-41.0,8.25,24.87,0.52,-0.56,-0.53,-0.38,976
2060,7.22,-1.04,1.51,0.02,1.43,0.15,-41.69,10.0,23.19,0.52,-0.56,-0.52,-0.38,977
2061,7.22,-1.04,1.51,0.02,1.43,0.15,-41.69,10.0,23.19,0.52,-0.56,-0.52,-0.38,978
2062,6.76,-3.71,1.37,0.35,1.36,0.2,-41.69,10.0,23.19,0.53,-0.55,-0.51,-0.39,979
2063,8.27,-3.99,1.67,0.43,1.43,0.36,-41.69,10.0,23.19,0.53,-0.55,-0.51,-0.39,980
2064,9.12,-2.83,1.81,0.44,1.5,0.5,-41.69,10.0,23.19,0.55,-0.55,-0.5,-0.39,981
2065,9.5,-1.2,1.8,0.36,1.52,0.59,-43.19,10.38,20.0,0.55,-0.55,-0.5,-0.39,982
2066,9.48,0.22,1.8,0.31,1.56,0.67,-43.19,10.38,20.0,0.56,-0.54,-0.49,-0.39,983
2067,8.99,0.99,1.75,0.41,1.63,0.76,-43.19,10.38,20.0,0.56,-0.54,-0.49,-0.39,984
2068,8.83,0.16,1.68,0.73,1.67,0.81,-43.19,10.38,20.0,0.57,-0.54,-0.49,-0.39,985
2069,8.82,-1.07,1.46,1.15,1.65,0.77,-43.19,10.38,20.0,0.57,-0.53,-0.48,-0.39,986
2070,8.87,-2.53,1.13,1.47,1.62,0.63,-45.0,12.19,18.37,0.58,-0.53,-0.48,-0.39,987
2071,8.93,-4.72,0.21,1.53,1.64,0.47,-45.0,12.19,18.37,0.6,-0.51,-0.47,-0.39,988
2072,8.92,-5.08,-0.15,1.34,1.72,0.41,-45.0,12.19,18.37,0.6,-0.51,-0.47,-0.39,989
2073,8.92,-5.08,-0.15,1.05,1.81,0.46,-45.0,12.19,18.37,0.61,-0.51,-0.47,-0.39,990
2074,8.68,-3.5,-0.39,0.78,1.89,0.56,-45.0,12.19,18.37,0.61,-0.5,-0.46,-0.39,991
2075,8.68,-3.5,-0.39,0.78,1.89,0.56,-46.5,14.38,13.19,0.62,-0.5,-0.46,-0.39,992
2076,8.55,-1.62,-0.39,0.41,1.89,0.68,-46.5,14.38,13.19,0.63,-0.5,-0.45,-0.4,993
2077,8.57,-1.03,-0.21,0.37,1.84,0.67,-46.5,14.38,13.19,0.63,-0.49,-0.44,-0.4,994
2078,8.86,-1.3,0.71,0.43,1.79,0.61,-46.5,14.38,13.19,0.65,-0.49,-0.43,-0.4,995
2079,9.05,-2.03,1.16,0.54,1.67,0.51,-46.5,14.38,13.19,0.65,-0.49,-0.43,-0.4,996
2080,9.26,-2.72,1.39,0.85,1.46,0.38,-45.69,16.69,9.0,0.65,-0.48,-0.43,-0.4,997
2081,9.34,-3.11,1.68,0.85,1.46,0.38,-45.69,16.69,9.0,0.66,-0.48,-0.43,-0.4,998
2082,9.21,-2.97,1.55,0.83,1.4,0.46,-45.69,16.69,9.0,0.67,-0.47,-0.42,-0.4,999
2083,9.07,-2.49,1.47,0.83,1.39,0.5,-45.69,16.69,9.0,0.67,-0.47,-0.42,-0.4,1000
2084,9.07,-2.05,1.42,0.9,1.36,0.49,-45.69,16.69,9.0,0.68,-0.46,-0.41,-0.4,1001
2085,9.25,-1.58,1.27,0.98,1.29,0.46,-45.19,17.06,5.69,0.68,-0.46,-0.41,-0.4,1002
2086,9.16,-1.52,1.19,1.03,1.09,0.4,-45.19,17.06,5.69,0.69,-0.45,-0.41,-0.4,1003
2087,9.16,-1.52,1.19,1.03,1.09,0.4,-45.19,17.06,5.69,0.7,-0.44,-0.4,-0.39,1004
2088,9.21,-2.12,1.42,1.04,0.98,0.39,-45.19,17.06,5.69,0.7,-0.44,-0.4,-0.39,1005
2089,9.95,-3.9,1.56,1.19,0.9,0.37,-45.56,18.19,1.19,0.71,-0.43,-0.4,-0.39,1006
2090,9.95,-3.9,1.56,1.19,0.9,0.37,-45.56,18.19,1.19,0.71,-0.43,-0.4,-0.39,1007
2091,10.4,-3.52,1.17,1.25,0.87,0.33,-45.56,18.19,1.19,0.72,-0.42,-0.4,-0.39,1008
2092,10.4,-3.52,1.17,1.25,0.87,0.33,-45.56,18.19,1.19,0.72,-0.42,-0.4,-0.39,1009
2093,10.59,-2.58,0.61,1.24,0.83,0.28,-45.56,18.19,1.19,0.72,-0.42,-0.4,-0.39,1010
2094,10.73,-2.04,0.42,1.24,0.8,0.23,-45.5,17.75,-1.5,0.73,-0.41,-0.39,-0.38,1011
2095,10.8,-1.7,0.0,1.3,0.74,0.16,-45.5,17.75,-1.5,0.73,-0.41,-0.39,-0.38,1012
2096,10.68,-1.61,-0.03,1.39,0.56,0.0,-45.5,17.75,-1.5,0.74,-0.39,-0.39,-0.38,1013
2097,10.9,-0.83,-0.45,1.39,0.56,0.0,-45.5,17.75,-1.5,0.74,-0.39,-0.39,-0.38,1014
2098,11.24,-0.27,-0.65,1.42,0.44,-0.1,-45.5,17.75,-1.5,0.74,-0.39,-0.4,-0.38,1015
2099,11.55,0.29,-0.85,1.46,0.32,-0.18,-45.5,17.75,-1.5,0.74,-0.38,-0.4,-0.38,1016
2100,12.15,1.28,-2.32,1.64,-0.03,-0.27,-43.56,18.56,-4.37,0.75,-0.36,-0.41,-0.37,1017
2101,12.67,0.9,-3.3,1.8,-0.27,-0.35,-43.56,18.56,-4.37,0.75,-0.36,-0.41,-0.37,1018
2102,14.39,0.03,-4.82,1.9,-1.31,-0.51,-43.56,18.56,-4.37,0.75,-0.35,-0.42,-0.36,1019
2103,17.17,-0.85,-6.83,1.9,-1.31,-0.51,-43.56,18.56,-4.37,0.75,-0.35,-0.42,-0.36,1020
2104,17.5,-1.98,-9.83,1.94,-2.21,-0.62,-43.19,18.19,-7.56,0.75,-0.34,-0.45,-0.35,1021
2105,13.73,-2.52,-8.03,2.01,-2.89,-0.88,-43.19,18.19,-7.56,0.75,-0.34,-0.45,-0.35,1022
2106,12.21,-4.92,-4.02,1.49,-2.75,-1.01,-43.19,18.19,-7.56,0.73,-0.33,-0.48,-0.34,1023
2107,12.21,-4.92,-4.02,1.49,-2.75,-1.01,-43.19,18.19,-7.56,0.73,-0.33,-0.5,-0.34,1024
2108,14.47,-6.63,-2.59,1.2,-2.91,-0.77,-43.19,18.19,-7.56,0.73,-0.33,-0.5,-0.34,1025
2109,16.55,-7.8,-0.62,0.74,-3.32,-0.66,-44.75,16.0,-5.69,0.72,-0.33,-0.51,-0.33,1026
2110,16.4,-8.33,2.89,0.05,-3.54,-0.69,-44.75,16.0,-5.69,0.71,-0.34,-0.52,-0.33,1027
2111,14.6,-7.25,7.66,-0.28,-3.14,-0.49,-44.75,16.0,-5.69,0.69,-0.35,-0.54,-0.32,1028
2112,15.43,-5.19,7.26,-0.35,-2.84,-0.12,-44.75,16.0,-5.69,0.69,-0.35,-0.54,-0.32,1029
2113,16.53,-3.19,6.82,-0.51,-2.94,0.06,-44.75,16.0,-5.69,0.68,-0.35,-0.55,-0.32,1030
2114,17.63,-1.89,5.53,-0.85,-3.28,0.09,-46.25,14.19,-1.0,0.67,-0.36,-0.56,-0.31,1031
2115,17.63,-1.89,5.53,-0.85,-3.28,0.09,-46.25,14.19,-1.0,0.66,-0.37,-0.57,-0.31,1032
2116,14.6,-0.93,5.49,-1.29,-3.75,0.12,-46.25,14.19,-1.0,0.64,-0.39,-0.59,-0.3,1033
2117,13.45,-0.52,5.0,-0.75,-3.53,0.16,-46.25,14.19,-1.0,0.64,-0.39,-0.59,-0.3,1034
2118,12.78,-0.33,4.79,-0.21,-3.42,0.11,-46.25,14.19,-1.0,0.62,-0.4,-0.61,-0.29,1035
2119,11.39,-1.49,4.81,0.09,-3.37,0.14,-46.19,12.88,6.25,0.62,-0.4,-0.61,-0.29,1036
2120,10.7,-2.02,4.98,0.17,-3.24,0.33,-46.19,12.88,6.25,0.6,-0.41,-0.63,-0.27,1037
2121,10.02,-2.18,5.08,0.06,-3.01,0.51,-46.19,12.88,6.25,0.6,-0.41,-0.63,-0.27,1038
2122,9.19,-2.05,4.91,-0.13,-2.77,0.55,-46.19,12.88,6.25,0.59,-0.42,-0.63,-0.27,1039
2123,8.78,-2.27,4.82,-0.32,-2.59,0.45,-46.19,12.88,6.25,0.59,-0.42,-0.64,-0.26,1040
2124,8.78,-2.27,4.82,-0.51,-2.46,0.35,-44.19,13.5,15.06,0.58,-0.43,-0.65,-0.26,1041
2125,8.0,-2.94,4.88,-0.74,-2.31,0.31,-44.19,13.5,15.06,0.57,-0.43,-0.65,-0.25,1042
2126,7.57,-3.16,4.94,-1.01,-2.16,0.3,-44.19,13.5,15.06,0.56,-0.44,-0.65,-0.25,1043
2127,7.23,-3.03,5.05,-1.3,-2.04,0.24,-44.19,13.5,15.06,0.54,-0.45,-0.66,-0.25,1044
2128,6.92,-2.85,5.05,-1.64,-1.92,0.13,-44.19,13.5,15.06,0.54,-0.45,-0.66,-0.25,1045
2129,6.52,-2.64,5.07,-2.11,-1.85,-0.01,-42.75,13.88,19.37,0.52,-0.47,-0.66,-0.26,1046
2130,5.58,-2.38,4.99,-2.61,-1.79,-0.15,-42.75,13.88,19.37,0.52,-0.47,-0.66,-0.26,1047
2131,5.18,-2.37,4.7,-3.26,-1.7,-0.26,-42.75,13.88,19.37,0.49,-0.49,-0.67,-0.27,1048
2132,4.77,-2.34,4.33,-3.26,-1.7,-0.26,-42.75,13.88,19.37,0.49,-0.49,-0.67,-0.27,1049
2133,4.51,-2.24,3.83,-3.32,-1.65,-0.21,-42.75,13.88,19.37,0.48,-0.5,-0.67,-0.28,1050
2134,4.33,-1.63,3.24,-3.22,-1.58,-0.14,-40.75,13.19,25.0,0.47,-0.51,-0.67,-0.29,1051
2135,4.52,-0.99,3.18,-3.02,-1.45,-0.05,-40.75,13.19,25.0,0.45,-0.52,-0.66,-0.29,1052
2136,4.79,-0.25,3.18,-2.73,-1.26,0.02,-40.75,13.19,25.0,0.43,-0.53,-0.66,-0.3,1053
2137,5.44,0.78,2.55,-2.34,-1.03,0.1,-40.75,13.19,25.0,0.43,-0.53,-0.66,-0.3,1054
2138,5.44,0.78,2.55,-1.92,-0.82,0.2,-40.75,13.19,25.0,0.43,-0.54,-0.66,-0.31,1055
2139,5.72,1.38,1.94,-1.48,-0.65,0.31,-38.06,6.87,31.69,0.42,-0.54,-0.66,-0.31,1056
2140,5.72,1.38,1.94,-1.48,-0.65,0.31,-38.06,6.87,31.69,0.42,-0.55,-0.66,-0.31,1057
2141,5.74,1.42,1.57,-0.6,-0.18,0.49,-38.06,6.87,31.69,0.42,-0.55,-0.65,-0.31,1058
2142,6.02,1.17,1.2,-0.05,0.11,0.52,-38.06,6.87,31.69,0.42,-0.55,-0.65,-0.31,1059
2143,6.02,1.17,1.2,-0.05,0.11,0.52,-38.06,6.87,31.69,0.42,-0.55,-0.65,-0.31,1060
2144,6.16,0.9,0.92,0.25,0.23,0.38,-36.69,4.69,33.69,0.42,-0.56,-0.65,-0.31,1061
2145,6.91,0.01,-0.04,0.25,0.23,0.38,-36.69,4.69,33.69,0.42,-0.56,-0.65,-0.31,1062
2146,7.67,-0.37,-1.32,0.16,0.33,0.26,-36.69,4.69,33.69,0.42,-0.56,-0.65,-0.31,1063
2147,8.53,-0.66,-3.38,-0.15,0.34,0.1,-36.69,4.69,33.69,0.42,-0.56,-0.64,-0.31,1064
2148,9.52,-1.01,-6.56,-0.69,0.2,-0.07,-36.69,4.69,33.69,0.42,-0.56,-0.64,-0.31,1065
2149,9.75,-2.14,-7.75,-1.42,0.05,-0.15,-35.69,4.75,33.69,0.41,-0.56,-0.64,-0.32,1066
2150,10.28,-2.16,-7.85,-1.91,0.21,0.02,-35.69,4.75,33.69,0.41,-0.56,-0.64,-0.32,1067
2151,11.42,-1.45,-9.83,-2.15,0.36,0.61,-35.69,4.75,33.69,0.41,-0.57,-0.63,-0.34,1068
2152,12.11,-0.18,-11.4,-2.15,0.36,0.61,-35.69,4.75,33.69,0.41,-0.57,-0.63,-0.34,1069
2153,12.01,3.81,-8.91,-2.15,0.34,0.73,-35.69,4.75,33.69,0.4,-0.58,-0.62,-0.34,1070
2154,11.44,5.53,-6.1,-1.84,0.59,0.6,-36.38,4.69,32.88,0.4,-0.58,-0.61,-0.35,1071
2155,10.52,6.25,-3.47,-1.24,0.97,0.33,-36.38,4.69,32.88,0.4,-0.59,-0.61,-0.36,1072
2156,7.95,4.65,0.85,-0.49,1.31,0.21,-36.38,4.69,32.88,0.41,-0.58,-0.6,-0.36,1073
2157,6.6,3.01,2.21,0.38,1.57,0.37,-36.38,4.69,32.88,0.41,-0.58,-0.6,-0.36,1074
2158,6.6,3.01,2.21,1.08,1.74,0.71,-36.38,4.69,32.88,0.42,-0.58,-0.6,-0.36,1075
2159,3.18,-0.28,4.37,1.51,1.8,0.99,-37.06,1.69,34.06,0.43,-0.58,-0.59,-0.36,1076
2160,3.18,-0.28,4.37,1.51,1.8,0.99,-37.06,1.69,34.06,0.44,-0.57,-0.59,-0.36,1077
2161,1.76,-4.64,5.48,1.3,2.01,0.94,-37.06,1.69,34.06,0.45,-0.57,-0.59,-0.36,1078
2162,8.78,-6.16,3.38,0.61,1.93,0.74,-37.06,1.69,34.06,0.46,-0.57,-0.58,-0.36,1079
2163,28.0,-6.97,-10.13,-0.74,0.6,0.44,-37.06,1.69,34.06,0.46,-0.57,-0.58,-0.37,1080
2164,30.99,-0.22,-1.3,-2.59,-3.1,0.06,-39.75,5.0,28.56,0.44,-0.58,-0.58,-0.36,1081
2165,34.47,2.42,-3.61,-2.75,-2.65,0.13,-39.75,5.0,28.56,0.42,-0.59,-0.57,-0.37,1082
2166,30.45,8.56,-6.4,-2.75,0.93,0.03,-39.75,5.0,28.56,0.42,-0.59,-0.57,-0.37,1083
2167,30.45,8.56,-6.4,-1.01,1.75,0.5,-39.75,5.0,28.56,0.43,-0.59,-0.57,-0.38,1084
2168,0.91,9.61,-1.89,1.18,0.88,1.14,-39.75,5.0,28.56,0.43,-0.59,-0.56,-0.38,1085
2169,0.91,9.61,-1.89,2.16,1.55,0.89,-39.38,4.5,30.56,0.45,-0.59,-0.56,-0.37,1086
2170,-7.08,-0.99,4.82,2.61,2.51,0.45,-39.38,4.5,30.56,0.46,-0.58,-0.56,-0.37,1087
2171,-2.52,-10.29,4.62,3.36,2.28,0.69,-39.38,4.5,30.56,0.48,-0.57,-0.56,-0.37,1088
2172,1.95,-13.31,0.86,3.5,0.46,0.84,-39.38,4.5,30.56,0.49,-0.56,-0.57,-0.35,1089
2173,5.0,-15.66,-2.21,2.66,-1.6,0.22,-39.38,4.5,30.56,0.49,-0.56,-0.57,-0.35,1090
2174,7.97,-16.06,-2.56,1.48,-1.64,-0.22,-40.88,7.19,25.75,0.49,-0.56,-0.58,-0.34,1091
2175,11.28,-12.0,1.84,0.53,-0.17,0.06,-40.88,7.19,25.75,0.49,-0.56,-0.58,-0.34,1092
2176,11.21,-8.38,2.97,-0.08,1.69,0.65,-40.88,7.19,25.75,0.5,-0.56,-0.57,-0.34,1093
2177,10.53,-4.74,3.33,-0.08,1.69,0.65,-40.88,7.19,25.75,0.5,-0.56,-0.57,-0.34,1094
2178,9.77,-1.49,3.12,-0.28,1.85,0.48,-40.88,7.19,25.75,0.51,-0.56,-0.56,-0.35,1095
2179,9.71,3.05,3.04,-0.57,1.88,0.33,-40.5,10.06,26.56,0.51,-0.55,-0.55,-0.35,1096
2180,10.48,3.96,3.53,-0.71,1.91,0.35,-40.5,10.06,26.56,0.52,-0.55,-0.55,-0.36,1097
2181,10.27,3.4,3.8,-0.45,1.92,0.33,-40.5,10.06,26.56,0.53,-0.55,-0.53,-0.37,1098
2182,9.39,2.0,3.81,0.09,1.9,0.25,-40.5,10.06,26.56,0.53,-0.55,-0.53,-0.37,1099
2183,7.46,-1.49,3.45,0.59,1.9,0.24,-40.5,10.06,26.56,0.53,-0.55,-0.53,-0.37,1100
2184,7.18,-2.8,3.16,0.86,1.93,0.3,-43.06,9.69,23.75,0.54,-0.54,-0.53,-0.37,1101
2185,8.24,-3.45,2.6,0.86,1.99,0.56,-43.06,9.69,23.75,0.56,-0.53,-0.52,-0.38,1102
2186,8.24,-3.45,2.6,0.86,1.99,0.56,-43.06,9.69,23.75,0.57,-0.53,-0.51,-0.38,1103
2187,9.17,-2.81,2.09,0.87,2.03,0.7,-43.06,9.69,23.75,0.57,-0.53,-0.51,-0.38,1104
2188,8.84,-2.53,1.04,1.23,2.13,0.83,-44.56,11.88,20.19,0.59,-0.52,-0.5,-0.38,1105
2189,8.84,-2.53,1.04,1.23,2.13,0.83,-44.56,11.88,20.19,0.59,-0.52,-0.5,-0.38,1106
2190,9.0,-2.77,-0.18,1.46,2.13,0.82,-44.56,11.88,20.19,0.61,-0.5,-0.49,-0.38,1107
2191,9.39,-2.9,-0.82,1.46,2.13,0.82,-44.56,11.88,20.19,0.61,-0.5,-0.48,-0.38,1108
2192,9.8,-3.06,-1.56,1.35,2.09,0.71,-44.56,11.88,20.19,0.61,-0.5,-0.48,-0.38,1109
2193,10.15,-3.16,-2.07,1.14,2.0,0.58,-44.56,11.88,20.19,0.63,-0.49,-0.47,-0.38,1110
2194,10.33,-2.17,-2.82,0.87,1.87,0.51,-44.5,13.75,13.38,0.63,-0.49,-0.47,-0.38,1111
2195,10.2,-1.32,-3.0,0.64,1.74,0.51,-44.5,13.75,13.38,0.64,-0.48,-0.46,-0.38,1112
2196,10.08,-0.52,-2.92,0.54,1.65,0.51,-44.5,13.75,13.38,0.64,-0.48,-0.46,-0.38,1113
2197,9.9,-0.03,-2.14,0.56,1.56,0.51,-44.5,13.75,13.38,0.65,-0.48,-0.46,-0.38,1114
2198,9.41,-0.72,0.48,0.7,1.46,0.48,-44.5,13.75,13.38,0.65,-0.47,-0.45,-0.38,1115
2199,9.41,-0.72,0.48,0.98,1.32,0.42,-46.06,15.38,9.0,0.66,-0.47,-0.45,-0.38,1116
2200,8.48,-3.34,2.14,1.39,1.19,0.47,-46.06,15.38,9.0,0.68,-0.45,-0.44,-0.38,1117
2201,7.98,-4.34,2.41,1.39,1.19,0.47,-46.06,15.38,9.0,0.68,-0.45,-0.44,-0.38,1118
2202,7.78,-4.5,2.6,1.24,1.24,0.51,-46.06,15.38,9.0,0.69,-0.45,-0.44,-0.37,1119
2203,7.89,-4.25,2.23,1.13,1.25,0.51,-44.75,17.19,4.69,0.69,-0.44,-0.43,-0.37,1120
2204,8.28,-3.3,1.47,1.05,1.22,0.44,-44.75,17.19,4.69,0.7,-0.44,-0.43,-0.37,1121
2205,8.52,-2.83,1.27,0.93,1.17,0.38,-44.75,17.19,4.69,0.71,-0.43,-0.43,-0.37,1122
2206,8.9,-2.33,1.55,0.77,1.15,0.36,-44.75,17.19,4.69,0.71,-0.43,-0.43,-0.37,1123
2207,8.9,-2.33,1.55,0.67,1.12,0.37,-44.75,17.19,4.69,0.71,-0.42,-0.42,-0.37,1124
2208,9.82,-1.57,2.32,0.71,1.1,0.35,-45.19,18.0,0.88,0.72,-0.42,-0.42,-0.37,1125
2209,9.82,-1.57,2.32,0.83,1.05,0.3,-45.19,18.0,0.88,0.72,-0.42,-0.42,-0.37,1126
2210,9.34,-2.23,2.08,0.92,0.99,0.26,-45.19,18.0,0.88,0.73,-0.41,-0.41,-0.37,1127
2211,9.37,-2.35,1.76,0.96,0.94,0.26,-45.19,18.0,0.88,0.73,-0.41,-0.41,-0.37,1128
2212,9.63,-2.14,1.39,0.99,0.89,0.29,-45.19,18.0,0.88,0.74,-0.4,-0.41,-0.36,1129
2213,9.92,-1.89,1.26,1.06,0.83,0.32,-43.69,18.37,-1.75,0.74,-0.4,-0.41,-0.36,1130
2214,10.3,-1.77,1.01,1.13,0.79,0.29,-43.69,18.37,-1.75,0.74,-0.39,-0.41,-0.36,1131
2215,10.57,-1.96,0.85,1.19,0.75,0.19,-43.69,18.37,-1.75,0.74,-0.39,-0.41,-0.36,1132
2216,10.68,-2.78,0.47,1.17,0.71,0.06,-43.69,18.37,-1.75,0.75,-0.38,-0.4,-0.36,1133
2217,10.77,-2.94,0.11,1.1,0.67,-0.03,-43.69,18.37,-1.75,0.75,-0.38,-0.4,-0.36,1134
2218,10.77,-2.94,0.11,1.1,0.67,-0.03,-43.69,19.06,-4.69,0.75,-0.37,-0.4,-0.36,1135
2219,12.09,-0.75,-1.68,0.98,0.59,-0.14,-43.69,19.06,-4.69,0.76,-0.37,-0.4,-0.36,1136
2220,12.52,0.28,-2.52,0.98,0.55,-0.17,-43.69,19.06,-4.69,0.76,-0.36,-0.4,-0.36,1137
2221,12.9,1.03,-3.54,1.06,0.47,-0.21,-43.69,19.06,-4.69,0.76,-0.35,-0.41,-0.36,1138
2222,13.4,1.19,-4.71,1.24,0.27,-0.26,-43.69,19.06,-4.69,0.76,-0.35,-0.41,-0.36,1139
2223,17.02,-0.08,-7.69,1.54,-0.57,-0.44,-44.06,19.06,-6.69,0.77,-0.34,-0.42,-0.35,1140
2224,19.1,-0.62,-9.31,1.54,-0.57,-0.44,-44.06,19.06,-6.69,0.77,-0.34,-0.42,-0.35,1141
2225,19.01,-0.9,-11.03,1.58,-3.31,-0.94,-44.06,19.06,-6.69,0.76,-0.33,-0.44,-0.34,1142
2226,16.96,-0.9,-12.42,1.58,-3.31,-0.94,-44.06,19.06,-6.69,0.76,-0.33,-0.44,-0.34,1143
2227,10.17,-1.87,-6.41,1.48,-3.54,-1.17,-44.06,19.06,-6.69,0.75,-0.33,-0.46,-0.34,1144
2228,10.36,-2.47,-4.27,1.14,-3.01,-1.08,-44.75,17.19,-7.5,0.75,-0.33,-0.47,-0.33,1145
2229,13.08,-3.72,-2.98,0.9,-2.99,-0.85,-44.75,17.19,-7.5,0.74,-0.33,-0.49,-0.33,1146
2230,16.1,-5.93,-0.48,0.65,-3.54,-0.77,-44.75,17.19,-7.5,0.72,-0.33,-0.52,-0.32,1147
2231,15.98,-9.18,5.73,0.2,-3.52,-0.72,-44.75,17.19,-7.5,0.72,-0.33,-0.52,-0.32,1148
2232,15.98,-9.18,5.73,0.07,-3.13,-0.38,-44.75,17.19,-7.5,0.71,-0.34,-0.53,-0.32,1149
2233,15.6,-7.41,6.57,-0.08,-2.95,-0.01,-46.0,15.25,-0.75,0.7,-0.34,-0.54,-0.31,1150
2234,15.6,-7.41,6.57,-0.55,-2.97,0.09,-46.0,15.25,-0.75,0.7,-0.35,-0.55,-0.31,1151
2235,18.02,-3.4,5.37,-1.08,-3.31,0.09,-46.0,15.25,-0.75,0.67,-0.37,-0.57,-0.3,1152
2236,16.97,-3.2,5.08,-1.44,-3.73,0.13,-46.0,15.25,-0.75,0.67,-0.37,-0.57,-0.3,1153
2237,15.28,-2.88,4.98,-1.47,-3.81,0.13,-46.0,15.25,-0.75,0.65,-0.39,-0.58,-0.3,1154
2238,13.98,-1.59,5.17,-1.33,-3.68,0.02,-46.0,13.06,4.69,0.65,-0.39,-0.58,-0.3,1155
2239,13.79,-1.74,5.28,-1.13,-3.57,-0.04,-46.0,13.06,4.69,0.62,-0.41,-0.6,-0.29,1156
2240,13.59,-2.11,5.44,-0.89,-3.51,0.1,-46.0,13.06,4.69,0.62,-0.41,-0.6,-0.29,1157
2241,13.2,-2.23,5.33,-0.77,-3.43,0.33,-46.0,13.06,4.69,0.61,-0.41,-0.61,-0.28,1158
2242,11.87,-1.99,5.27,-0.81,-3.32,0.45,-46.0,13.06,4.69,0.6,-0.42,-0.62,-0.28,1159
2243,10.15,-1.98,5.22,-1.05,-2.9,0.29,-43.75,12.0,13.0,0.58,-0.44,-0.63,-0.27,1160
2244,10.15,-1.98,5.22,-1.05,-2.9,0.29,-43.75,12.0,13.0,0.57,-0.44,-0.64,-0.27,1161
2245,9.26,-2.01,5.25,-1.05,-2.67,0.21,-43.75,12.0,13.0,0.57,-0.44,-0.64,-0.27,1162
2246,7.99,-1.54,5.38,-1.0,-2.34,0.14,-43.75,12.0,13.0,0.55,-0.46,-0.65,-0.26,1163
2247,7.5,-1.41,5.54,-1.0,-2.34,0.14,-43.75,12.0,13.0,0.55,-0.46,-0.65,-0.26,1164
2248,7.12,-1.53,5.66,-1.13,-2.21,0.11,-40.88,12.0,19.37,0.53,-0.47,-0.66,-0.26,1165
2249,6.81,-1.89,5.66,-1.39,-2.09,0.11,-40.88,12.0,19.37,0.53,-0.47,-0.66,-0.26,1166
2250,6.03,-2.39,5.5,-1.71,-1.99,0.09,-40.88,12.0,19.37,0.52,-0.48,-0.66,-0.26,1167
2251,5.5,-2.5,5.29,-2.01,-1.9,0.06,-40.88,12.0,19.37,0.5,-0.49,-0.66,-0.26,1168
2252,4.88,-2.5,5.1,-2.28,-1.81,0.03,-40.88,12.0,19.37,0.5,-0.49,-0.66,-0.26,1169
2253,3.96,-2.3,4.93,-2.54,-1.67,0.0,-37.75,10.56,23.06,0.48,-0.51,-0.66,-0.27,1170
2254,3.63,-1.96,4.76,-2.74,-1.48,-0.01,-37.75,10.56,23.06,0.48,-0.51,-0.66,-0.27,1171
2255,3.43,-1.44,4.56,-2.7,-1.15,-0.02,-37.75,10.56,23.06,0.45,-0.52,-0.66,-0.29,1172
2256,3.39,-0.78,4.47,-2.7,-1.15,-0.02,-37.75,10.56,23.06,0.45,-0.52,-0.66,-0.29,1173
2257,3.73,0.37,4.29,-2.44,-1.0,-0.01,-37.75,10.56,23.06,0.44,-0.53,-0.66,-0.29,1174
2258,4.05,0.77,3.96,-2.11,-0.83,0.02,-36.19,7.75,26.75,0.44,-0.54,-0.66,-0.3,1175
2259,4.41,1.09,3.42,-1.71,-0.69,0.06,-36.19,7.75,26.75,0.43,-0.54,-0.66,-0.3,1176
2260,4.66,1.27,2.75,-1.25,-0.6,0.14,-36.19,7.75,26.75,0.42,-0.55,-0.66,-0.3,1177
2261,4.98,1.28,1.92,-0.76,-0.54,0.26,-36.19,7.75,26.75,0.42,-0.55,-0.66,-0.3,1178
2262,5.13,1.01,1.69,-0.24,-0.5,0.42,-36.19,7.75,26.75,0.42,-0.55,-0.66,-0.3,1179
2263,5.22,0.47,1.46,0.26,-0.46,0.58,-33.75,3.87,30.0,0.42,-0.55,-0.65,-0.3,1180
2264,5.22,0.47,1.46,0.67,-0.38,0.77,-33.75,3.87,30.0,0.42,-0.56,-0.65,-0.29,1181
2265,5.63,-2.65,0.98,0.92,-0.24,0.87,-33.75,3.87,30.0,0.43,-0.56,-0.65,-0.28,1182
2266,5.93,-3.47,0.85,0.88,-0.02,0.83,-33.75,3.87,30.0,0.43,-0.56,-0.65,-0.28,1183
2267,6.16,-3.57,0.75,0.57,0.34,0.69,-32.69,4.69,29.69,0.44,-0.56,-0.65,-0.28,1184
2268,7.0,-1.51,-1.39,0.09,0.79,0.51,-32.69,4.69,29.69,0.44,-0.56,-0.65,-0.28,1185
2269,7.69,-0.18,-3.0,-0.51,1.15,0.31,-32.69,4.69,29.69,0.44,-0.56,-0.64,-0.29,1186
2270,9.16,0.83,-6.23,-1.18,1.28,0.09,-32.69,4.69,29.69,0.44,-0.56,-0.64,-0.29,1187
2271,10.38,0.8,-7.55,-1.9,1.12,-0.12,-32.69,4.69,29.69,0.44,-0.56,-0.63,-0.3,1188
2272,11.6,-1.09,-7.8,-2.32,0.96,-0.17,-32.69,4.69,29.69,0.43,-0.56,-0.63,-0.31,1189
2273,12.62,-1.37,-9.5,-2.33,0.92,0.07,-34.06,6.37,29.75,0.43,-0.57,-0.62,-0.32,1190
2274,13.36,-0.61,-11.08,-2.13,0.79,0.43,-34.06,6.37,29.75,0.42,-0.58,-0.61,-0.33,1191
2275,12.91,1.2,-10.18,-2.0,0.71,0.59,-34.06,6.37,29.75,0.42,-0.58,-0.61,-0.33,1192
2276,12.91,1.2,-10.18,-1.8,0.99,0.39,-34.06,6.37,29.75,0.42,-0.58,-0.61,-0.34,1193
2277,9.23,6.48,-2.96,-1.25,1.43,0.06,-34.06,6.37,29.75,0.42,-0.58,-0.6,-0.35,1194
2278,9.23,6.48,-2.96,-1.25,1.43,0.06,-34.75,3.37,28.56,0.43,-0.58,-0.6,-0.36,1195
2279,7.06,5.12,1.89,0.61,1.66,0.25,-34.75,3.37,28.56,0.43,-0.58,-0.59,-0.36,1196
2280,5.23,1.83,5.84,1.48,1.76,0.58,-34.75,3.37,28.56,0.44,-0.57,-0.59,-0.36,1197
2281,9.24,-0.34,4.97,1.83,1.88,0.78,-34.75,3.37,28.56,0.46,-0.56,-0.59,-0.35,1198
2282,21.35,-1.91,-4.0,0.99,0.97,0.63,-34.75,3.37,28.56,0.46,-0.56,-0.59,-0.35,1199
2283,29.61,-1.61,-10.94,-1.11,-2.0,0.07,-37.75,3.25,26.56,0.44,-0.58,-0.59,-0.35,1200
2284,31.58,-3.56,-8.36,-2.13,-2.91,-0.06,-37.75,3.25,26.56,0.44,-0.58,-0.59,-0.35,1201
2285,1.53,10.74,-2.6,-0.17,2.46,0.71,-37.75,3.25,26.56,0.44,-0.59,-0.57,-0.37,1202
2286,1.53,10.74,-2.6,-0.17,2.46,0.71,-37.75,3.25,26.56,0.44,-0.59,-0.57,-0.37,1203
2287,-2.62,0.08,10.22,3.93,2.55,1.6,-37.0,3.56,27.0,0.48,-0.57,-0.56,-0.36,1204
2288,-2.62,0.08,10.22,3.93,2.55,1.6,-37.0,3.56,27.0,0.49,-0.56,-0.57,-0.35,1205
2289,-2.33,-5.08,12.4,5.77,0.6,1.21,-37.0,3.56,27.0,0.49,-0.56,-0.57,-0.35,1206
2290,1.28,-13.11,0.66,2.35,-1.13,-0.08,-37.0,3.56,27.0,0.51,-0.55,-0.58,-0.32,1207
2291,4.98,-15.71,1.01,2.35,-1.13,-0.08,-37.0,3.56,27.0,0.51,-0.55,-0.58,-0.32,1208
2292,9.11,-17.52,3.78,0.61,0.07,0.03,-37.75,5.06,21.0,0.51,-0.54,-0.58,-0.32,1209
2293,12.19,-17.6,5.1,0.22,1.02,0.33,-37.75,5.06,21.0,0.51,-0.54,-0.58,-0.32,1210
2294,11.49,-9.13,4.53,-0.21,1.61,0.38,-37.75,5.06,21.0,0.52,-0.54,-0.58,-0.32,1211
2295,9.66,-4.38,3.78,-0.67,2.06,0.21,-37.75,5.06,21.0,0.53,-0.54,-0.56,-0.34,1212
2296,8.35,-0.88,3.41,-1.01,2.36,-0.03,-37.75,5.06,21.0,0.53,-0.54,-0.56,-0.34,1213
2297,8.24,1.87,3.25,-1.3,2.51,-0.08,-37.5,9.06,20.56,0.53,-0.54,-0.54,-0.36,1214
2298,10.09,4.86,3.11,-1.4,2.54,0.08,-37.5,9.06,20.56,0.53,-0.54,-0.54,-0.36,1215
2299,10.09,4.86,3.11,-1.05,2.42,0.31,-37.5,9.06,20.56,0.54,-0.54,-0.54,-0.37,1216
2300,8.4,-0.68,0.49,0.42,2.01,0.61,-37.5,9.06,20.56,0.56,-0.53,-0.52,-0.37,1217
2301,8.35,-1.79,-0.33,0.95,1.85,0.71,-39.69,7.56,18.56,0.56,-0.53,-0.52,-0.37,1218
2302,8.65,-2.38,-1.23,1.25,1.74,0.79,-39.69,7.56,18.56,0.58,-0.52,-0.51,-0.37,1219
2303,8.97,-2.52,-2.03,1.32,1.62,0.79,-39.69,7.56,18.56,0.58,-0.52,-0.51,-0.37,1220
2304,9.37,-2.14,-3.05,1.25,1.51,0.78,-39.69,7.56,18.56,0.59,-0.52,-0.5,-0.37,1221
2305,9.56,-1.9,-3.09,1.13,1.4,0.75,-39.69,7.56,18.56,0.59,-0.51,-0.5,-0.37,1222
2306,9.7,-1.57,-3.0,1.06,1.33,0.73,-40.75,9.06,13.38,0.6,-0.51,-0.5,-0.37,1223
2307,9.76,-1.16,-2.74,1.14,1.29,0.74,-40.75,9.06,13.38,0.61,-0.5,-0.49,-0.36,1224
2308,9.82,-0.86,-2.29,1.32,1.33,0.72,-40.75,9.06,13.38,0.61,-0.5,-0.49,-0.36,1225
2309,9.82,-0.86,-2.29,1.44,1.4,0.64,-40.75,9.06,13.38,0.62,-0.49,-0.49,-0.36,1226
2310,9.39,-2.41,-1.02,1.42,1.47,0.49,-40.75,9.06,13.38,0.63,-0.49,-0.48,-0.36,1227
2311,9.39,-2.41,-1.02,1.37,1.53,0.4,-41.19,11.0,8.56,0.64,-0.48,-0.48,-0.36,1228
2312,8.47,-3.81,1.43,1.29,1.52,0.38,-41.19,11.0,8.56,0.64,-0.48,-0.48,-0.36,1229
2313,8.15,-3.52,1.91,1.16,1.48,0.39,-41.19,11.0,8.56,0.65,-0.47,-0.47,-0.36,1230
2314,7.86,-3.28,2.34,0.93,1.44,0.4,-41.19,11.0,8.56,0.66,-0.46,-0.47,-0.36,1231
2315,7.99,-2.57,2.89,0.69,1.45,0.42,-41.19,11.0,8.56,0.66,-0.46,-0.47,-0.36,1232
2316,8.14,-2.13,3.16,0.57,1.49,0.41,-41.19,13.19,5.75,0.67,-0.46,-0.46,-0.36,1233
2317,8.24,-1.92,3.24,0.6,1.55,0.34,-41.19,13.19,5.75,0.67,-0.46,-0.46,-0.36,1234
2318,8.23,-2.08,3.2,0.67,1.62,0.26,-41.19,13.19,5.75,0.68,-0.45,-0.45,-0.36,1235
2319,8.47,-2.87,2.61,0.62,1.62,0.18,-41.19,13.19,5.75,0.69,-0.44,-0.44,-0.37,1236
2320,8.62,-3.14,2.13,0.43,1.55,0.13,-41.19,13.19,5.75,0.69,-0.44,-0.44,-0.37,1237
2321,8.63,-3.16,1.79,0.24,1.46,0.13,-41.69,13.69,2.06,0.69,-0.44,-0.44,-0.37,1238
2322,8.51,-2.82,1.49,0.2,1.41,0.17,-41.69,13.69,2.06,0.7,-0.44,-0.43,-0.37,1239
2323,8.68,-1.97,1.07,0.29,1.43,0.23,-41.69,13.69,2.06,0.71,-0.43,-0.42,-0.37,1240
2324,9.05,-1.76,0.85,0.42,1.44,0.28,-41.69,13.69,2.06,0.71,-0.43,-0.42,-0.37,1241
2325,9.27,-1.77,0.57,0.56,1.37,0.32,-41.69,13.69,2.06,0.71,-0.43,-0.42,-0.37,1242
2326,9.24,-1.91,0.38,0.7,1.24,0.36,-41.0,13.25,-0.19,0.71,-0.42,-0.41,-0.37,1243
2327,9.1,-2.56,0.43,0.88,1.12,0.39,-41.0,13.25,-0.19,0.72,-0.42,-0.41,-0.37,1244
2328,9.27,-2.84,0.48,1.08,0.99,0.39,-41.0,13.25,-0.19,0.73,-0.41,-0.41,-0.37,1245
2329,9.48,-2.89,0.6,1.23,0.85,0.4,-41.0,13.25,-0.19,0.73,-0.41,-0.41,-0.37,1246
2330,9.48,-2.89,0.6,1.27,0.75,0.4,-41.0,13.25,-0.19,0.73,-0.4,-0.41,-0.37,1247
2331,10.11,-2.95,1.06,1.3,0.69,0.39,-41.56,14.38,-3.5,0.74,-0.4,-0.4,-0.37,1248
2332,10.11,-2.95,1.06,1.3,0.69,0.39,-41.56,14.38,-3.5,0.74,-0.39,-0.4,-0.36,1249
2333,10.26,-3.08,0.79,1.34,0.61,0.28,-41.56,14.38,-3.5,0.75,-0.39,-0.4,-0.36,1250
2334,10.38,-2.2,0.53,1.26,0.58,0.19,-41.56,14.38,-3.5,0.75,-0.38,-0.4,-0.36,1251
2335,10.58,-1.44,0.4,1.16,0.55,0.1,-41.56,14.38,-3.5,0.75,-0.38,-0.4,-0.36,1252
2336,10.98,-0.61,0.17,1.06,0.51,-0.02,-40.06,14.38,-6.69,0.75,-0.37,-0.4,-0.36,1253
2337,11.48,0.07,-0.28,0.97,0.5,-0.15,-40.06,14.38,-6.69,0.76,-0.37,-0.4,-0.36,1254
2338,12.37,1.1,-1.84,0.94,0.45,-0.25,-40.06,14.38,-6.69,0.76,-0.37,-0.4,-0.36,1255
2339,12.37,1.1,-1.84,1.0,0.37,-0.32,-40.06,14.38,-6.69,0.76,-0.36,-0.4,-0.36,1256
2340,12.99,1.81,-4.42,1.13,0.22,-0.37,-40.06,14.38,-6.69,0.76,-0.36,-0.41,-0.36,1257
2341,12.99,1.81,-4.42,1.13,0.22,-0.37,-40.88,14.06,-9.5,0.76,-0.35,-0.41,-0.36,1258
2342,17.22,0.75,-10.0,1.53,-0.5,-0.55,-40.88,14.06,-9.5,0.76,-0.34,-0.41,-0.36,1259
2343,20.04,-0.25,-12.45,1.62,-1.26,-0.68,-40.88,14.06,-9.5,0.76,-0.34,-0.42,-0.35,1260
2344,15.26,-2.93,-7.69,1.75,-3.2,-0.92,-40.88,14.06,-9.5,0.75,-0.33,-0.45,-0.34,1261
2345,11.09,-4.75,-2.59,1.67,-3.09,-1.21,-41.0,12.25,-9.88,0.75,-0.33,-0.47,-0.34,1262
2346,12.59,-6.83,-1.77,1.56,-2.78,-1.37,-41.0,12.25,-9.88,0.74,-0.32,-0.5,-0.33,1263
2347,15.31,-9.26,-0.52,1.62,-2.86,-1.17,-41.0,12.25,-9.88,0.74,-0.32,-0.5,-0.33,1264
2348,17.76,-9.81,4.35,1.27,-3.02,-0.71,-41.0,12.25,-9.88,0.73,-0.32,-0.51,-0.33,1265
2349,16.65,-9.17,7.17,0.37,-3.0,-0.38,-41.0,12.25,-9.88,0.72,-0.32,-0.52,-0.32,1266
2350,16.65,-9.17,7.17,-0.11,-2.8,-0.19,-43.5,9.69,-4.69,0.71,-0.33,-0.53,-0.32,1267
2351,16.68,-6.38,8.46,-0.32,-2.72,-0.07,-43.5,9.69,-4.69,0.7,-0.34,-0.54,-0.32,1268
2352,17.7,-3.6,6.41,-0.65,-2.83,0.04,-43.5,9.69,-4.69,0.7,-0.34,-0.55,-0.32,1269
2353,16.57,-2.86,6.48,-1.28,-3.16,0.15,-43.5,9.69,-4.69,0.67,-0.36,-0.56,-0.31,1270
2354,14.86,-1.86,5.65,-1.92,-3.51,0.24,-43.5,9.69,-4.69,0.67,-0.36,-0.56,-0.31,1271
2355,13.35,-0.59,5.33,-2.04,-3.48,0.29,-43.5,8.06,0.75,0.65,-0.39,-0.58,-0.31,1272
2356,11.75,0.22,5.25,-1.67,-3.37,0.19,-43.5,8.06,0.75,0.65,-0.39,-0.58,-0.31,1273
2357,11.75,0.22,5.25,-1.15,-3.28,0.07,-43.5,8.06,0.75,0.64,-0.4,-0.59,-0.31,1274
2358,10.98,-0.47,5.41,-0.81,-3.22,0.14,-43.5,8.06,0.75,0.62,-0.41,-0.6,-0.3,1275
2359,10.32,-0.79,5.46,-0.66,-3.16,0.35,-43.5,8.06,0.75,0.62,-0.41,-0.6,-0.3,1276
2360,9.07,-0.98,5.0,-0.66,-3.03,0.54,-42.75,7.69,7.56,0.6,-0.42,-0.61,-0.29,1277
2361,8.58,-0.96,4.79,-0.74,-2.87,0.57,-42.75,7.69,7.56,0.6,-0.43,-0.61,-0.29,1278
2362,8.29,-1.02,4.67,-0.76,-2.7,0.47,-42.75,7.69,7.56,0.58,-0.44,-0.63,-0.28,1279
2363,8.02,-1.52,4.85,-0.73,-2.54,0.32,-42.75,7.69,7.56,0.58,-0.44,-0.63,-0.28,1280
2364,8.02,-1.52,4.85,-0.78,-2.37,0.25,-42.75,7.69,7.56,0.57,-0.45,-0.63,-0.28,1281
2365,7.59,-1.84,4.97,-1.08,-2.13,0.17,-41.0,8.75,13.06,0.56,-0.46,-0.63,-0.28,1282
2366,7.59,-1.84,4.97,-1.08,-2.13,0.17,-41.0,8.75,13.06,0.55,-0.46,-0.64,-0.27,1283
2367,6.58,-2.73,5.31,-1.34,-2.04,0.08,-41.0,8.75,13.06,0.54,-0.47,-0.64,-0.27,1284
2368,6.22,-2.94,5.28,-2.17,-1.86,-0.11,-41.0,8.75,13.06,0.53,-0.48,-0.64,-0.28,1285
2369,5.79,-2.91,5.12,-2.55,-1.8,-0.17,-41.0,8.75,13.06,0.51,-0.5,-0.64,-0.29,1286
2370,5.43,-2.79,4.83,-2.85,-1.78,-0.2,-39.38,9.25,19.5,0.51,-0.5,-0.64,-0.29,1287
2371,4.94,-2.45,4.16,-3.04,-1.76,-0.17,-39.38,9.25,19.5,0.48,-0.52,-0.64,-0.3,1288
2372,4.86,-2.24,3.86,-3.1,-1.67,-0.07,-39.38,9.25,19.5,0.48,-0.52,-0.64,-0.3,1289
2373,4.84,-2.03,3.64,-2.98,-1.56,0.05,-39.38,9.25,19.5,0.47,-0.52,-0.64,-0.3,1290
2374,4.88,-1.68,3.5,-2.65,-1.4,0.14,-39.38,9.25,19.5,0.46,-0.53,-0.64,-0.31,1291
2375,4.88,-1.68,3.5,-2.16,-1.22,0.19,-37.88,7.5,24.25,0.45,-0.54,-0.64,-0.31,1292
2376,5.56,-0.28,2.17,-1.63,-1.08,0.26,-37.88,7.5,24.25,0.44,-0.55,-0.64,-0.31,1293
2377,5.79,0.15,1.73,-1.09,-0.96,0.35,-37.88,7.5,24.25,0.43,-0.55,-0.64,-0.31,1294
2378,5.82,0.29,1.39,-0.62,-0.84,0.45,-37.88,7.5,24.25,0.43,-0.56,-0.64,-0.31,1295
2379,5.77,-0.17,1.49,-0.3,-0.66,0.54,-37.88,7.5,24.25,0.43,-0.56,-0.64,-0.31,1296
2380,5.85,-0.28,1.45,-0.05,-0.44,0.66,-37.06,4.06,27.37,0.43,-0.57,-0.63,-0.31,1297
2381,6.12,-0.3,0.92,0.24,-0.3,0.82,-37.06,4.06,27.37,0.43,-0.57,-0.63,-0.31,1298
2382,6.36,-0.5,-0.19,0.6,-0.3,0.95,-37.06,4.06,27.37,0.43,-0.57,-0.63,-0.3,1299
2383,6.07,-0.88,-0.17,0.6,-0.3,0.95,-37.06,4.06,27.37,0.43,-0.57,-0.63,-0.3,1300
2384,5.83,-1.26,-0.1,0.41,-0.15,0.83,-37.06,4.06,27.37,0.43,-0.57,-0.63,-0.29,1301
2385,5.72,-1.52,-0.22,-0.04,0.14,0.6,-36.38,4.06,29.0,0.43,-0.58,-0.63,-0.29,1302
2386,7.41,-0.11,-4.61,-1.03,0.69,0.19,-36.38,4.06,29.0,0.43,-0.58,-0.62,-0.3,1303
2387,7.41,-0.11,-4.61,-1.03,0.69,0.19,-36.38,4.06,29.0,0.43,-0.58,-0.62,-0.31,1304
2388,9.36,0.2,-8.78,-1.37,0.62,0.06,-36.38,4.06,29.0,0.43,-0.58,-0.62,-0.31,1305
2389,10.79,-0.31,-9.7,-1.89,0.34,0.09,-35.38,4.75,28.5,0.42,-0.59,-0.61,-0.32,1306
2390,11.13,-1.7,-7.63,-1.89,0.34,0.09,-35.38,4.75,28.5,0.42,-0.59,-0.61,-0.32,1307
2391,11.67,-1.4,-8.68,-1.83,0.42,0.72,-35.38,4.75,28.5,0.42,-0.6,-0.6,-0.33,1308
2392,12.16,-0.61,-9.85,-1.83,0.42,0.72,-35.38,4.75,28.5,0.42,-0.6,-0.6,-0.33,1309
2393,11.58,0.68,-9.32,-1.87,0.35,0.81,-35.38,4.75,28.5,0.41,-0.61,-0.59,-0.34,1310
2394,9.47,3.27,-5.32,-1.7,0.52,0.63,-35.38,4.75,28.5,0.41,-0.61,-0.58,-0.34,1311
2395,8.63,3.73,-3.06,-1.24,0.8,0.35,-36.06,3.69,26.87,0.41,-0.61,-0.58,-0.35,1312
2396,8.05,3.66,-1.11,-0.7,0.99,0.21,-36.06,3.69,26.87,0.41,-0.61,-0.57,-0.36,1313
2397,6.6,1.81,1.35,-0.31,1.01,0.26,-36.06,3.69,26.87,0.41,-0.61,-0.57,-0.36,1314
2398,6.6,1.81,1.35,-0.04,0.94,0.49,-36.06,3.69,26.87,0.42,-0.61,-0.57,-0.36,1315
2399,1.19,-1.38,6.16,0.21,1.32,0.86,-36.06,3.69,26.87,0.42,-0.61,-0.56,-0.36,1316
2400,30.41,-2.22,-11.17,-1.89,-0.55,0.53,-36.88,2.87,27.69,0.42,-0.62,-0.55,-0.37,1317
2401,30.41,-2.22,-11.17,-1.89,-0.55,0.53,-36.88,2.87,27.69,0.4,-0.63,-0.55,-0.37,1318
2402,32.34,5.8,-1.76,-3.95,0.38,-0.18,-36.88,2.87,27.69,0.39,-0.64,-0.54,-0.38,1319
2403,17.81,11.02,-3.36,-3.43,3.17,-0.15,-36.88,2.87,27.69,0.39,-0.64,-0.53,-0.4,1320
2404,8.41,13.66,-3.96,-1.42,3.58,0.88,-38.19,3.0,25.69,0.4,-0.64,-0.52,-0.41,1321
2405,8.41,13.66,-3.96,1.22,2.49,1.61,-38.19,3.0,25.69,0.41,-0.63,-0.51,-0.41,1322
2406,1.16,-0.17,7.58,3.76,1.32,1.7,-38.19,3.0,25.69,0.45,-0.62,-0.52,-0.39,1323
2407,-0.34,-7.04,11.16,5.3,0.28,1.61,-38.19,3.0,25.69,0.45,-0.62,-0.52,-0.39,1324
2408,-0.34,-7.04,11.16,5.29,-0.54,1.35,-38.19,3.0,25.69,0.46,-0.61,-0.52,-0.37,1325
2409,3.6,-16.46,2.34,3.76,-0.74,0.84,-40.06,1.19,22.87,0.48,-0.61,-0.53,-0.36,1326
2410,3.6,-16.46,2.34,3.76,-0.74,0.84,-40.06,1.19,22.87,0.48,-0.6,-0.53,-0.35,1327
2411,8.28,-17.45,1.59,0.4,0.86,0.5,-40.06,1.19,22.87,0.49,-0.6,-0.53,-0.35,1328
2412,11.26,-10.36,3.36,-0.27,1.54,0.74,-40.06,1.19,22.87,0.49,-0.6,-0.52,-0.35,1329
2413,11.16,-5.43,3.41,-0.8,1.94,0.68,-40.06,1.19,22.87,0.49,-0.6,-0.51,-0.36,1330
2414,10.52,-1.39,2.62,-1.25,2.14,0.46,-39.69,8.19,21.69,0.5,-0.6,-0.5,-0.37,1331
2415,10.06,3.5,1.57,-1.54,2.23,0.3,-39.69,8.19,21.69,0.5,-0.6,-0.49,-0.39,1332
2416,10.22,4.2,1.33,-1.56,2.26,0.21,-39.69,8.19,21.69,0.5,-0.6,-0.49,-0.39,1333
2417,10.22,4.2,1.33,-1.11,2.19,0.19,-39.69,8.19,21.69,0.5,-0.6,-0.48,-0.4,1334
2418,9.57,2.89,0.97,-0.25,2.03,0.28,-39.69,8.19,21.69,0.5,-0.6,-0.47,-0.4,1335
2419,9.57,2.89,0.97,-0.25,2.03,0.28,-42.0,8.56,18.06,0.51,-0.6,-0.47,-0.41,1336
2420,7.5,-2.09,0.39,1.16,1.67,0.56,-42.0,8.56,18.06,0.52,-0.59,-0.46,-0.41,1337
2421,7.35,-3.33,0.0,1.21,1.55,0.63,-42.0,8.56,18.06,0.53,-0.59,-0.46,-0.41,1338
2422,7.43,-3.94,-0.48,1.1,1.47,0.67,-42.0,8.56,18.06,0.54,-0.58,-0.45,-0.41,1339
2423,8.0,-3.66,-1.07,1.0,1.41,0.72,-42.0,8.56,18.06,0.54,-0.58,-0.45,-0.41,1340
2424,8.51,-3.17,-1.13,0.97,1.38,0.75,-42.5,9.19,13.69,0.56,-0.57,-0.44,-0.41,1341
2425,9.13,-2.64,-1.2,0.94,1.41,0.77,-42.5,9.19,13.69,0.56,-0.57,-0.44,-0.41,1342
2426,9.7,-2.24,-1.27,0.94,1.46,0.75,-42.5,9.19,13.69,0.57,-0.57,-0.43,-0.41,1343
2427,10.07,-2.44,-1.04,0.98,1.52,0.68,-42.5,9.19,13.69,0.57,-0.57,-0.43,-0.41,1344
2428,9.84,-3.02,-1.0,0.97,1.57,0.57,-42.5,9.19,13.69,0.58,-0.56,-0.43,-0.41,1345
2429,9.47,-3.53,-0.95,0.86,1.61,0.45,-43.87,11.38,11.38,0.58,-0.56,-0.43,-0.41,1346
2430,9.47,-3.53,-0.95,0.7,1.63,0.38,-43.87,11.38,11.38,0.59,-0.55,-0.42,-0.41,1347
2431,8.87,-3.27,-0.17,0.56,1.66,0.35,-43.87,11.38,11.38,0.6,-0.54,-0.41,-0.42,1348
2432,8.85,-2.7,0.11,0.48,1.67,0.38,-43.87,11.38,11.38,0.6,-0.54,-0.41,-0.42,1349
2433,8.79,-2.03,0.34,0.45,1.61,0.44,-43.87,11.38,11.38,0.61,-0.54,-0.4,-0.42,1350
2434,8.65,-0.9,0.62,0.44,1.51,0.48,-43.5,14.06,6.87,0.61,-0.54,-0.4,-0.42,1351
2435,8.65,-0.83,0.98,0.49,1.44,0.49,-43.5,14.06,6.87,0.62,-0.53,-0.39,-0.42,1352
2436,8.71,-1.1,1.44,0.63,1.4,0.46,-43.5,14.06,6.87,0.62,-0.53,-0.39,-0.42,1353
2437,8.86,-1.54,1.92,0.8,1.36,0.42,-43.5,14.06,6.87,0.63,-0.53,-0.39,-0.42,1354
2438,8.96,-2.25,2.46,0.92,1.29,0.39,-43.5,14.06,6.87,0.63,-0.52,-0.39,-0.42,1355
2439,8.9,-2.29,2.49,0.99,1.23,0.38,-44.25,14.0,4.19,0.64,-0.52,-0.38,-0.43,1356
2440,8.84,-2.12,2.44,1.02,1.21,0.4,-44.25,14.0,4.19,0.65,-0.51,-0.38,-0.43,1357
2441,8.81,-1.77,2.27,1.04,1.2,0.42,-44.25,14.0,4.19,0.65,-0.51,-0.38,-0.43,1358
2442,8.81,-1.77,2.27,1.11,1.19,0.43,-44.25,14.0,4.19,0.65,-0.5,-0.38,-0.42,1359
2443,8.67,-1.85,2.12,1.35,1.06,0.37,-44.56,15.38,-1.0,0.66,-0.49,-0.37,-0.42,1360
2444,8.69,-2.2,1.92,1.43,0.99,0.35,-44.56,15.38,-1.0,0.67,-0.48,-0.37,-0.42,1361
2445,8.78,-2.52,1.83,1.45,0.95,0.37,-44.56,15.38,-1.0,0.68,-0.47,-0.37,-0.42,1362
2446,8.89,-2.73,1.78,1.48,0.96,0.4,-44.56,15.38,-1.0,0.68,-0.47,-0.37,-0.42,1363
2447,8.89,-2.73,1.78,1.58,0.93,0.41,-44.56,15.38,-1.0,0.69,-0.47,-0.37,-0.42,1364
2448,9.2,-3.57,1.24,1.67,0.88,0.39,-44.38,16.19,-3.75,0.69,-0.46,-0.37,-0.42,1365
2449,9.2,-3.57,1.24,1.67,0.88,0.39,-44.38,16.19,-3.75,0.7,-0.45,-0.37,-0.41,1366
2450,9.91,-3.27,1.2,1.74,0.78,0.33,-44.38,16.19,-3.75,0.71,-0.45,-0.37,-0.41,1367
2451,10.07,-2.73,1.13,1.77,0.69,0.3,-44.38,16.19,-3.75,0.71,-0.44,-0.37,-0.41,1368
2452,9.72,-1.98,1.2,1.8,0.55,0.23,-44.38,16.19,-3.75,0.72,-0.43,-0.37,-0.4,1369
2453,9.73,-1.5,0.95,1.77,0.47,0.19,-42.88,16.19,-6.5,0.72,-0.43,-0.37,-0.4,1370
2454,9.75,-1.2,0.86,1.69,0.42,0.18,-42.88,16.19,-6.5,0.73,-0.41,-0.37,-0.4,1371
2455,9.85,-1.12,0.79,1.65,0.38,0.14,-42.88,16.19,-6.5,0.73,-0.41,-0.37,-0.4,1372
2456,10.36,-1.11,0.12,1.69,0.35,0.06,-42.88,16.19,-6.5,0.73,-0.41,-0.37,-0.4,1373
2457,10.74,-0.97,-0.68,1.73,0.31,-0.03,-42.88,16.19,-6.5,0.74,-0.4,-0.38,-0.39,1374
2458,10.74,-0.97,-0.68,1.74,0.28,-0.09,-41.75,16.87,-9.19,0.74,-0.39,-0.38,-0.39,1375
2459,11.32,-0.38,-2.51,1.72,0.23,-0.13,-41.75,16.87,-9.19,0.75,-0.39,-0.38,-0.39,1376
2460,12.54,0.22,-5.09,1.75,0.14,-0.18,-41.75,16.87,-9.19,0.75,-0.38,-0.38,-0.39,1377
2461,14.35,-0.42,-6.79,1.85,-0.1,-0.26,-41.75,16.87,-9.19,0.75,-0.37,-0.4,-0.38,1378
2462,17.35,-1.59,-8.51,1.88,-0.67,-0.39,-41.75,16.87,-9.19,0.75,-0.37,-0.4,-0.38,1379
2463,19.37,-3.5,-9.18,1.8,-1.51,-0.48,-42.19,15.75,-12.37,0.75,-0.36,-0.42,-0.37,1380
2464,15.72,-3.16,-7.24,1.72,-2.28,-0.59,-42.19,15.75,-12.37,0.75,-0.36,-0.42,-0.37,1381
2465,12.02,-2.58,-4.82,1.42,-2.51,-1.23,-42.19,15.75,-12.37,0.74,-0.35,-0.44,-0.36,1382
2466,10.88,-2.14,-3.99,1.42,-2.51,-1.23,-42.19,15.75,-12.37,0.74,-0.35,-0.44,-0.36,1383
2467,13.46,-2.89,-1.52,0.95,-2.47,-1.24,-42.19,15.75,-12.37,0.73,-0.35,-0.46,-0.36,1384
2468,15.22,-3.38,0.6,0.53,-2.67,-1.03,-42.88,14.38,-10.5,0.73,-0.35,-0.47,-0.36,1385
2469,15.09,-4.18,4.17,0.26,-2.91,-0.9,-42.88,14.38,-10.5,0.72,-0.35,-0.48,-0.36,1386
2470,14.76,-5.35,6.72,0.59,-2.87,-0.76,-42.88,14.38,-10.5,0.71,-0.35,-0.51,-0.35,1387
2471,16.15,-4.94,7.52,1.11,-2.75,-0.48,-42.88,14.38,-10.5,0.71,-0.35,-0.51,-0.35,1388
2472,16.88,-4.17,7.07,0.62,-2.79,-0.14,-46.56,11.75,-6.87,0.69,-0.36,-0.53,-0.34,1389
2473,17.1,-3.7,5.93,0.62,-2.79,-0.14,-46.56,11.75,-6.87,0.69,-0.36,-0.53,-0.34,1390
2474,16.51,-3.99,5.81,-0.55,-3.23,0.04,-46.56,11.75,-6.87,0.68,-0.37,-0.55,-0.33,1391
2475,12.66,-3.93,5.7,-0.55,-3.23,0.04,-46.56,11.75,-6.87,0.68,-0.37,-0.55,-0.33,1392
2476,11.79,-2.79,5.23,-0.47,-3.0,0.16,-46.56,11.75,-6.87,0.67,-0.37,-0.56,-0.32,1393
2477,11.49,-1.8,4.9,-0.44,-2.83,0.1,-46.56,11.75,-6.87,0.66,-0.38,-0.56,-0.32,1394
2478,11.02,-1.83,4.43,-0.55,-2.81,0.02,-46.5,11.88,-1.56,0.65,-0.39,-0.57,-0.31,1395
2479,10.69,-2.21,4.3,-0.59,-2.84,0.1,-46.5,11.88,-1.56,0.63,-0.4,-0.59,-0.31,1396
2480,10.24,-2.3,4.29,-0.64,-2.8,0.25,-46.5,11.88,-1.56,0.63,-0.4,-0.59,-0.31,1397
2481,10.24,-2.3,4.29,-0.74,-2.72,0.35,-46.5,11.88,-1.56,0.62,-0.41,-0.59,-0.3,1398
2482,8.96,-2.89,4.25,-0.82,-2.63,0.36,-46.5,11.88,-1.56,0.62,-0.41,-0.6,-0.3,1399
2483,8.96,-2.89,4.25,-0.95,-2.54,0.32,-46.75,12.88,3.87,0.61,-0.42,-0.61,-0.29,1400
2484,8.69,-3.41,3.75,-1.15,-2.5,0.28,-46.75,12.88,3.87,0.6,-0.43,-0.61,-0.29,1401
2485,8.56,-3.37,3.64,-1.5,-2.45,0.29,-46.75,12.88,3.87,0.59,-0.44,-0.62,-0.29,1402
2486,8.1,-2.83,4.12,-2.05,-2.13,0.22,-46.75,12.88,3.87,0.57,-0.45,-0.62,-0.29,1403
2487,7.91,-2.54,4.18,-2.21,-2.06,0.13,-45.19,14.69,10.5,0.56,-0.46,-0.62,-0.29,1404
2488,7.66,-2.36,4.18,-2.39,-2.04,0.05,-45.19,14.69,10.5,0.53,-0.48,-0.63,-0.3,1405
2489,6.95,-2.2,4.03,-2.59,-2.01,0.03,-45.19,14.69,10.5,0.53,-0.48,-0.63,-0.3,1406
2490,6.95,-2.2,4.03,-2.74,-1.95,0.03,-45.19,14.69,10.5,0.52,-0.49,-0.63,-0.3,1407
2491,5.92,-2.15,3.84,-2.8,-1.87,0.01,-45.19,14.69,10.5,0.51,-0.5,-0.63,-0.3,1408
2492,5.92,-2.15,3.84,-2.8,-1.87,0.01,-44.0,13.56,18.0,0.5,-0.51,-0.63,-0.31,1409
2493,5.2,-1.15,3.14,-2.75,-1.63,0.01,-44.0,13.56,18.0,0.48,-0.52,-0.63,-0.31,1410
2494,5.33,-0.72,2.63,-2.6,-1.53,0.03,-44.0,13.56,18.0,0.47,-0.53,-0.63,-0.32,1411
2495,5.58,-0.33,2.33,-2.42,-1.47,0.05,-44.0,13.56,18.0,0.45,-0.54,-0.63,-0.32,1412
2496,6.05,0.08,2.0,-2.22,-1.4,0.07,-44.0,13.56,18.0,0.45,-0.54,-0.63,-0.32,1413
2497,6.31,0.18,1.82,-1.99,-1.29,0.12,-42.06,11.75,22.0,0.44,-0.56,-0.63,-0.33,1414
2498,6.59,0.21,1.57,-1.73,-1.12,0.19,-42.06,11.75,22.0,0.44,-0.56,-0.63,-0.33,1415
2499,6.88,0.42,1.17,-1.14,-0.79,0.38,-42.06,11.75,22.0,0.42,-0.57,-0.62,-0.33,1416
2500,6.85,1.35,0.07,-0.76,-0.68,0.47,-42.06,11.75,22.0,0.42,-0.58,-0.62,-0.33,1417
2501,6.52,1.36,-0.1,-0.36,-0.61,0.57,-40.56,8.69,27.5,0.42,-0.58,-0.62,-0.33,1418
2502,6.14,1.08,0.0,-0.04,-0.56,0.66,-40.56,8.69,27.5,0.42,-0.58,-0.62,-0.32,1419
2503,5.76,0.01,0.05,0.19,-0.46,0.74,-40.56,8.69,27.5,0.42,-0.58,-0.62,-0.32,1420
2504,5.98,-0.68,-0.11,0.34,-0.31,0.8,-40.56,8.69,27.5,0.42,-0.58,-0.62,-0.32,1421
2505,6.44,-1.3,-0.44,0.37,-0.15,0.81,-40.56,8.69,27.5,0.42,-0.58,-0.62,-0.31,1422
2506,6.44,-1.3,-0.44,0.26,-0.04,0.75,-39.38,9.88,28.56,0.42,-0.59,-0.62,-0.31,1423
2507,7.7,-1.29,-2.22,-0.01,0.03,0.61,-39.38,9.88,28.56,0.42,-0.59,-0.61,-0.31,1424
2508,7.81,-0.92,-3.11,-0.4,0.1,0.43,-39.38,9.88,28.56,0.42,-0.59,-0.61,-0.31,1425
2509,8.27,-0.56,-4.84,-1.21,0.32,0.2,-39.38,9.88,28.56,0.42,-0.6,-0.61,-0.32,1426
2510,9.18,-0.52,-5.79,-1.21,0.32,0.2,-39.38,9.88,28.56,0.42,-0.6,-0.61,-0.32,1427
2511,9.6,-0.89,-5.55,-1.05,0.38,0.38,-38.69,12.0,29.37,0.42,-0.6,-0.6,-0.32,1428
2512,9.65,-1.34,-5.15,-0.73,0.51,0.65,-38.69,12.0,29.37,0.42,-0.6,-0.6,-0.32,1429
2513,9.52,-1.73,-5.19,-0.41,0.68,0.94,-38.69,12.0,29.37,0.42,-0.6,-0.59,-0.32,1430
2514,9.05,-1.47,-5.29,-0.29,0.82,1.11,-38.69,12.0,29.37,0.43,-0.61,-0.58,-0.33,1431
2515,8.52,-0.84,-4.22,-0.34,0.99,1.06,-38.69,12.0,29.37,0.43,-0.61,-0.58,-0.33,1432
2516,7.89,-0.28,-2.73,-0.49,1.31,0.87,-39.06,10.5,30.5,0.44,-0.61,-0.57,-0.34,1433
2517,7.26,0.04,-1.2,-0.67,1.7,0.74,-39.06,10.5,30.5,0.44,-0.61,-0.57,-0.34,1434
2518,6.29,-0.16,0.67,-0.88,2.24,0.84,-39.06,10.5,30.5,0.45,-0.61,-0.55,-0.35,1435
2519,5.64,-0.86,1.74,-0.88,2.24,0.84,-39.06,10.5,30.5,0.45,-0.61,-0.55,-0.35,1436
2520,4.75,-1.71,3.13,-0.99,2.41,0.94,-39.06,10.5,30.5,0.45,-0.61,-0.54,-0.36,1437
2521,4.47,-2.47,4.14,-1.17,2.66,0.99,-40.19,11.69,26.87,0.46,-0.61,-0.53,-0.37,1438
2522,17.93,-3.36,-0.14,-1.76,2.51,0.83,-40.19,11.69,26.87,0.46,-0.61,-0.52,-0.38,1439
2523,35.84,-2.68,-12.38,-3.1,0.48,0.35,-40.19,11.69,26.87,0.43,-0.63,-0.51,-0.39,1440
2524,36.17,0.65,-5.95,-4.49,-1.99,-0.09,-40.19,11.69,26.87,0.43,-0.63,-0.51,-0.39,1441
2525,28.06,12.02,-3.31,-2.42,2.21,-0.77,-43.06,12.75,25.25,0.41,-0.64,-0.5,-0.42,1442
2526,24.47,15.29,-7.27,-2.42,2.21,-0.77,-43.06,12.75,25.25,0.41,-0.64,-0.5,-0.42,1443
2527,17.16,14.62,-6.44,2.21,1.05,0.21,-43.06,12.75,25.25,0.43,-0.63,-0.5,-0.42,1444
2528,8.07,12.42,-3.09,2.21,1.05,0.21,-43.06,12.75,25.25,0.43,-0.63,-0.5,-0.42,1445
2529,-3.62,1.89,-0.22,2.72,1.23,0.24,-43.06,12.75,25.25,0.44,-0.62,-0.5,-0.41,1446
2530,-6.81,-3.92,5.6,2.64,1.3,0.54,-43.06,12.75,25.25,0.45,-0.61,-0.5,-0.41,1447
2531,-4.93,-9.05,6.34,2.95,1.32,1.24,-43.87,8.06,25.56,0.47,-0.61,-0.5,-0.4,1448
2532,1.41,-13.69,2.38,2.83,-0.44,1.43,-43.87,8.06,25.56,0.48,-0.61,-0.51,-0.38,1449
2533,6.06,-17.38,-2.47,2.69,-2.51,1.12,-43.87,8.06,25.56,0.48,-0.61,-0.51,-0.38,1450
2534,7.79,-15.81,-2.1,2.3,-1.98,0.77,-43.87,8.06,25.56,0.49,-0.61,-0.52,-0.36,1451
2535,9.37,-12.42,0.14,1.45,-0.1,0.45,-43.87,8.06,25.56,0.49,-0.6,-0.52,-0.36,1452
2536,9.37,-12.42,0.14,0.83,1.25,0.32,-44.19,13.5,22.75,0.5,-0.6,-0.52,-0.35,1453
2537,9.38,-4.69,3.48,0.42,1.69,0.22,-44.19,13.5,22.75,0.51,-0.59,-0.52,-0.36,1454
2538,9.13,-2.6,3.19,0.25,1.72,0.1,-44.19,13.5,22.75,0.51,-0.59,-0.51,-0.36,1455
2539,9.09,-0.65,2.68,-0.05,1.59,0.08,-44.19,13.5,22.75,0.52,-0.58,-0.5,-0.37,1456
2540,9.35,0.57,2.55,-0.54,1.62,0.09,-44.19,13.5,22.75,0.52,-0.58,-0.5,-0.37,1457
2541,8.93,-0.13,3.31,-0.64,1.76,0.08,-43.0,16.37,22.37,0.53,-0.58,-0.49,-0.38,1458
2542,8.4,-1.16,3.51,-0.28,1.8,0.1,-43.0,16.37,22.37,0.53,-0.58,-0.49,-0.38,1459
2543,7.88,-2.14,2.96,-0.05,1.88,0.39,-43.0,16.37,22.37,0.54,-0.57,-0.48,-0.39,1460
2544,8.13,-1.78,2.46,-0.05,1.88,0.39,-43.0,16.37,22.37,0.54,-0.57,-0.48,-0.39,1461
2545,8.27,-1.35,1.96,-0.01,1.93,0.55,-44.06,16.0,19.56,0.55,-0.56,-0.47,-0.4,1462
2546,8.37,-1.09,1.76,0.28,1.93,0.66,-44.06,16.0,19.56,0.55,-0.56,-0.47,-0.4,1463
2547,9.38,-1.65,0.65,1.04,1.82,0.76,-44.06,16.0,19.56,0.57,-0.55,-0.46,-0.4,1464
2548,9.38,-1.65,0.65,1.04,1.82,0.76,-44.06,16.0,19.56,0.58,-0.55,-0.45,-0.4,1465
2549,9.58,-1.92,0.25,1.2,1.76,0.74,-44.06,16.0,19.56,0.58,-0.55,-0.45,-0.4,1466
2550,9.64,-2.24,-0.16,1.22,1.76,0.7,-45.25,16.87,14.38,0.59,-0.54,-0.45,-0.4,1467
2551,9.65,-3.11,-0.9,1.15,1.79,0.68,-45.25,16.87,14.38,0.6,-0.53,-0.45,-0.4,1468
2552,9.61,-3.35,-1.36,1.01,1.79,0.66,-45.25,16.87,14.38,0.61,-0.52,-0.44,-0.4,1469
2553,9.41,-3.36,-1.69,0.85,1.76,0.61,-45.25,16.87,14.38,0.61,-0.52,-0.44,-0.4,1470
2554,9.41,-3.36,-1.69,0.7,1.74,0.57,-45.25,16.87,14.38,0.62,-0.52,-0.43,-0.4,1471
2555,9.03,-1.35,-1.96,0.59,1.74,0.57,-46.0,18.75,9.56,0.63,-0.51,-0.43,-0.4,1472
