Timestamp, AccelX, AccelY, AccelZ, GyroX, GyroY, GyroZ, MagX, MagY, MagZ, QuatW, QuatX, QuatY, QuatZ,TimeAligned
1625,9.74,-3.59,0.02,-0.21,-0.2,-0.17,-35.88,17.06,13.38,0.73,-0.14,-0.66,0.03,542
1626,8.98,-2.38,0.66,-0.68,-0.08,-0.24,-35.88,17.06,13.38,0.73,-0.14,-0.66,0.03,543
1627,8.69,-1.48,1.13,-0.77,-0.0,-0.27,-35.88,17.06,13.38,0.73,-0.14,-0.66,0.02,544
1628,8.88,-2.01,1.03,-0.77,-0.0,-0.27,-35.88,17.06,13.38,0.73,-0.14,-0.66,0.02,545
1629,9.14,-2.71,0.96,-0.62,-0.04,-0.24,-35.88,17.06,13.38,0.73,-0.14,-0.67,0.02,546
1630,9.25,-2.96,0.91,-0.53,-0.04,-0.18,-35.88,17.06,13.38,0.73,-0.15,-0.67,0.02,547
1631,9.12,-2.87,0.89,-0.48,-0.03,-0.16,-36.5,17.37,14.5,0.73,-0.15,-0.67,0.01,548
1632,8.86,-2.89,1.07,-0.42,-0.0,-0.17,-36.5,17.37,14.5,0.73,-0.15,-0.67,0.01,549
1633,8.99,-3.14,1.14,-0.28,-0.01,-0.16,-36.5,17.37,14.5,0.73,-0.15,-0.67,0.01,550
1634,9.2,-3.31,1.35,-0.17,-0.03,-0.14,-36.5,17.37,14.5,0.73,-0.15,-0.67,0.01,551
1635,9.53,-3.29,1.44,-0.11,-0.06,-0.15,-36.5,17.37,14.5,0.73,-0.15,-0.67,0.01,552
1636,9.53,-3.29,1.44,-0.1,-0.08,-0.18,-37.0,17.87,13.69,0.73,-0.15,-0.67,0.01,553
1637,10.04,-1.75,1.54,-0.11,-0.09,-0.19,-37.0,17.87,13.69,0.73,-0.15,-0.67,0.01,554
1638,9.97,-1.24,1.54,-0.05,-0.1,-0.19,-37.0,17.87,13.69,0.73,-0.15,-0.67,0.01,555
1639,9.73,-1.14,1.33,0.23,-0.15,-0.15,-37.0,17.87,13.69,0.73,-0.15,-0.67,0.01,556
1640,9.61,-1.46,1.12,0.23,-0.15,-0.15,-37.0,17.87,13.69,0.73,-0.15,-0.67,0.01,557
1641,9.56,-1.83,0.92,0.32,-0.17,-0.13,-36.25,17.37,14.25,0.73,-0.14,-0.67,0.01,558
1642,9.56,-2.11,0.78,0.29,-0.17,-0.13,-36.25,17.37,14.25,0.73,-0.14,-0.67,0.01,559
1643,9.75,-2.62,0.12,0.14,-0.14,-0.15,-36.25,17.37,14.25,0.73,-0.14,-0.67,0.01,560
1644,9.79,-2.65,0.08,0.07,-0.11,-0.15,-36.25,17.37,14.25,0.73,-0.14,-0.67,0.01,561
1645,9.73,-2.71,-0.11,0.03,-0.09,-0.15,-35.5,16.0,13.88,0.73,-0.14,-0.67,0.01,562
1646,9.54,-2.51,-0.19,-0.03,-0.05,-0.15,-35.5,16.0,13.88,0.73,-0.14,-0.67,0.01,563
1647,9.51,-2.34,-0.18,-0.1,-0.01,-0.15,-35.5,16.0,13.88,0.73,-0.14,-0.67,0.0,564
1648,9.58,-2.21,-0.1,-0.14,0.01,-0.15,-35.5,16.0,13.88,0.73,-0.14,-0.67,0.0,565
1649,9.73,-1.84,-0.05,-0.17,0.05,-0.15,-36.88,15.5,13.06,0.73,-0.14,-0.67,0.0,566
1650,9.75,-1.54,0.12,-0.17,0.05,-0.15,-36.88,15.5,13.06,0.73,-0.14,-0.67,0.0,567
1651,9.76,-1.34,0.27,-0.17,0.09,-0.15,-36.88,15.5,13.06,0.73,-0.14,-0.67,0.0,568
1652,9.7,-1.27,0.38,-0.17,0.09,-0.15,-36.88,15.5,13.06,0.73,-0.14,-0.67,0.0,569
1653,9.56,-1.2,0.8,-0.13,0.1,-0.12,-36.88,15.5,13.06,0.73,-0.14,-0.67,-0.0,570
1654,9.47,-1.37,0.91,-0.06,0.11,-0.1,-36.88,15.5,13.06,0.73,-0.14,-0.67,-0.0,571
1655,9.4,-1.57,0.96,0.01,0.11,-0.09,-36.19,15.5,15.0,0.73,-0.14,-0.67,-0.0,572
1656,9.43,-1.73,1.03,0.02,0.11,-0.09,-36.19,15.5,15.0,0.73,-0.14,-0.67,-0.0,573
1657,9.69,-1.84,1.35,0.0,0.11,-0.09,-36.19,15.5,15.0,0.73,-0.14,-0.67,-0.0,574
1658,9.81,-1.83,1.44,0.0,0.09,-0.08,-36.19,15.5,15.0,0.73,-0.14,-0.67,-0.0,575
1659,9.82,-1.86,1.45,0.02,0.07,-0.08,-36.19,15.5,15.0,0.73,-0.14,-0.67,-0.0,576
1660,9.82,-1.86,1.45,0.05,0.06,-0.07,-36.5,14.87,14.56,0.73,-0.14,-0.67,-0.0,577
1661,9.47,-2.03,1.48,0.08,0.04,-0.06,-36.5,14.87,14.56,0.73,-0.14,-0.67,-0.0,578
1662,9.54,-2.03,1.45,0.08,0.03,-0.06,-36.5,14.87,14.56,0.73,-0.14,-0.67,-0.0,579
1663,9.6,-1.97,1.31,0.1,0.0,-0.05,-36.5,14.87,14.56,0.73,-0.13,-0.67,-0.0,580
1664,9.55,-1.72,1.07,0.1,0.0,-0.05,-36.5,14.87,14.56,0.73,-0.13,-0.67,-0.0,581
1665,9.49,-1.71,0.95,0.1,-0.0,-0.04,-36.56,14.87,13.06,0.73,-0.13,-0.67,-0.0,582
1666,9.46,-1.68,0.86,0.1,0.0,-0.03,-36.56,14.87,13.06,0.73,-0.13,-0.67,-0.0,583
1667,9.52,-1.68,0.7,0.07,0.01,-0.03,-36.56,14.87,13.06,0.73,-0.13,-0.67,-0.0,584
1668,9.67,-1.67,0.69,0.05,0.02,-0.02,-36.56,14.87,13.06,0.73,-0.13,-0.67,-0.0,585
1669,9.71,-1.67,0.8,0.03,0.03,-0.02,-36.56,14.87,13.06,0.73,-0.13,-0.67,-0.0,586
1670,9.74,-1.71,0.97,0.04,0.04,-0.01,-37.38,16.0,14.56,0.73,-0.13,-0.67,-0.0,587
1671,9.66,-1.72,1.02,0.05,0.04,-0.0,-37.38,16.0,14.56,0.73,-0.13,-0.67,-0.0,588
1672,9.43,-1.72,1.0,0.07,0.04,0.01,-37.38,16.0,14.56,0.73,-0.13,-0.67,-0.0,589
1673,9.4,-1.77,0.97,0.08,0.04,0.02,-37.38,16.0,14.56,0.73,-0.13,-0.67,-0.0,590
1674,9.42,-1.82,0.95,0.1,0.04,0.03,-37.38,16.0,14.56,0.73,-0.13,-0.67,-0.0,591
1675,9.65,-1.97,0.99,0.12,0.04,0.03,-36.88,15.56,13.5,0.73,-0.13,-0.67,-0.0,592
1676,9.71,-2.07,1.03,0.13,0.04,0.03,-36.88,15.56,13.5,0.73,-0.13,-0.67,-0.0,593
1677,9.7,-2.14,1.07,0.13,0.04,0.04,-36.88,15.56,13.5,0.73,-0.13,-0.67,0.0,594
1678,9.67,-2.12,1.19,0.1,0.04,0.04,-36.88,15.56,13.5,0.73,-0.13,-0.67,0.0,595
1679,9.59,-1.9,1.29,0.06,0.04,0.03,-36.88,15.56,13.5,0.73,-0.13,-0.67,0.0,596
1680,9.5,-1.79,1.25,0.04,0.03,0.04,-36.88,14.56,13.88,0.73,-0.13,-0.67,0.0,597
1681,9.5,-1.79,1.25,0.03,0.02,0.05,-36.88,14.56,13.88,0.73,-0.13,-0.67,0.0,598
1682,9.39,-1.69,1.23,0.03,0.02,0.05,-36.88,14.56,13.88,0.73,-0.13,-0.67,0.0,599
1683,9.58,-1.8,1.19,0.03,0.01,0.05,-36.88,14.56,13.88,0.73,-0.13,-0.67,0.0,600
1684,9.58,-1.8,1.19,0.04,0.01,0.05,-36.88,14.56,13.88,0.73,-0.13,-0.67,0.0,601
1685,9.55,-1.87,1.17,0.04,0.0,0.05,-36.19,15.56,13.5,0.73,-0.13,-0.67,0.0,602
1686,9.54,-2.1,1.15,0.03,-0.01,0.05,-36.19,15.56,13.5,0.73,-0.13,-0.67,0.0,603
1687,9.55,-2.17,1.14,0.03,-0.01,0.05,-36.19,15.56,13.5,0.73,-0.13,-0.67,0.0,604
1688,9.56,-2.18,1.14,0.02,-0.02,0.05,-36.19,15.56,13.5,0.73,-0.13,-0.67,0.0,605
1689,9.53,-2.14,1.15,0.01,-0.02,0.04,-36.88,15.56,14.56,0.73,-0.13,-0.67,0.0,606
1690,9.5,-1.96,1.05,-0.01,-0.02,0.04,-36.88,15.56,14.56,0.73,-0.13,-0.67,0.0,607
1691,9.53,-1.86,1.02,0.0,-0.03,0.05,-36.88,15.56,14.56,0.73,-0.13,-0.67,0.0,608
1692,9.58,-1.86,0.98,0.0,-0.03,0.05,-36.88,15.56,14.56,0.73,-0.13,-0.67,0.0,609
1693,9.61,-1.96,1.0,0.02,-0.03,0.05,-36.88,15.56,14.56,0.73,-0.13,-0.67,0.0,610
1694,9.52,-2.1,1.0,0.02,-0.03,0.05,-36.88,15.56,14.56,0.73,-0.13,-0.67,0.0,611
1695,9.52,-2.1,1.0,-0.01,-0.02,0.05,-36.5,16.0,13.5,0.73,-0.13,-0.67,0.0,612
1696,9.46,-2.06,0.99,-0.05,-0.02,0.04,-36.5,16.0,13.5,0.73,-0.13,-0.67,0.01,613
1697,9.55,-1.99,1.03,-0.09,-0.02,0.04,-36.5,16.0,13.5,0.73,-0.13,-0.67,0.0,614
1698,9.54,-1.97,1.08,-0.09,-0.02,0.03,-36.5,16.0,13.5,0.73,-0.13,-0.67,0.0,615
1699,9.53,-1.96,1.1,-0.09,-0.02,0.03,-36.5,16.0,13.5,0.73,-0.13,-0.67,0.0,616
1700,9.51,-2.04,1.02,-0.05,-0.04,0.04,-37.25,16.37,13.88,0.73,-0.13,-0.67,0.0,617
1701,9.51,-2.04,1.02,-0.05,-0.04,0.04,-37.25,16.37,13.88,0.73,-0.13,-0.67,0.0,618
1702,9.51,-2.05,1.02,-0.02,-0.05,0.04,-37.25,16.37,13.88,0.73,-0.13,-0.67,0.0,619
1703,9.54,-2.1,1.02,-0.02,-0.05,0.04,-36.19,16.0,13.88,0.73,-0.13,-0.67,0.0,620
1704,9.55,-2.2,1.01,-0.01,-0.05,0.03,-36.19,16.0,13.88,0.73,-0.13,-0.67,0.0,621
1705,9.54,-2.23,1.0,-0.02,-0.05,0.03,-36.19,16.0,13.88,0.73,-0.13,-0.67,0.01,622
1706,9.52,-2.23,0.98,-0.02,-0.05,0.03,-36.19,16.0,13.88,0.73,-0.13,-0.67,0.01,623
1707,9.49,-2.13,0.99,-0.04,-0.05,0.03,-36.19,16.0,13.88,0.73,-0.14,-0.67,0.01,624
1708,9.5,-2.04,1.0,-0.06,-0.04,0.03,-36.19,16.0,13.88,0.73,-0.14,-0.67,0.01,625
1709,9.5,-2.04,1.0,-0.06,-0.04,0.02,-36.19,16.37,13.5,0.73,-0.14,-0.67,0.01,626
1710,9.5,-1.99,1.0,-0.04,-0.03,0.02,-36.19,16.37,13.5,0.73,-0.14,-0.67,0.01,627
1711,9.5,-2.15,1.01,-0.02,-0.03,0.03,-36.19,16.37,13.5,0.73,-0.14,-0.67,0.01,628
1712,9.52,-2.24,1.01,-0.0,-0.02,0.03,-36.19,16.37,13.5,0.73,-0.14,-0.67,0.01,629
1713,9.56,-2.37,1.05,-0.0,-0.02,0.03,-36.19,16.37,13.5,0.73,-0.14,-0.67,0.01,630
1714,9.61,-2.39,1.05,-0.01,-0.02,0.03,-35.88,16.0,12.69,0.73,-0.14,-0.67,0.01,631
1715,9.51,-2.32,1.08,-0.02,-0.01,0.02,-35.88,16.0,12.69,0.73,-0.14,-0.67,0.01,632
1716,9.51,-2.32,1.08,-0.04,-0.01,0.01,-35.88,16.0,12.69,0.73,-0.14,-0.67,0.01,633
1717,9.41,-2.29,1.03,-0.06,-0.01,0.02,-35.88,16.0,12.69,0.73,-0.14,-0.67,0.01,634
1718,9.46,-2.23,0.99,-0.08,0.0,0.01,-35.88,16.0,12.69,0.73,-0.14,-0.67,0.01,635
1719,9.54,-2.15,0.99,-0.1,0.0,0.01,-36.5,15.56,13.88,0.73,-0.14,-0.67,0.01,636
1720,9.58,-2.16,1.01,-0.11,0.0,0.0,-36.5,15.56,13.88,0.73,-0.14,-0.67,0.0,637
1721,9.61,-2.16,1.01,-0.1,-0.0,0.0,-36.5,15.56,13.88,0.73,-0.14,-0.67,0.0,638
1722,9.56,-2.13,0.98,-0.09,-0.01,0.01,-36.5,15.56,13.88,0.73,-0.14,-0.67,0.0,639
1723,9.56,-2.13,0.98,-0.08,-0.01,0.01,-36.5,15.56,13.88,0.73,-0.14,-0.67,0.0,640
1724,9.44,-2.03,0.91,-0.07,-0.01,0.02,-35.88,15.56,13.88,0.73,-0.14,-0.67,0.0,641
1725,9.44,-2.03,0.91,-0.04,-0.02,0.02,-35.88,15.56,13.88,0.73,-0.14,-0.67,0.0,642
1726,9.5,-2.07,0.75,-0.01,-0.01,0.03,-35.88,15.56,13.88,0.73,-0.14,-0.67,0.0,643
1727,9.53,-2.12,0.73,0.02,-0.01,0.03,-35.88,15.56,13.88,0.73,-0.14,-0.67,0.0,644
1728,9.57,-2.13,0.77,0.04,0.0,0.03,-35.88,15.56,13.88,0.73,-0.14,-0.67,0.0,645
1729,9.57,-2.13,0.77,0.04,0.0,0.03,-36.5,15.56,13.88,0.73,-0.14,-0.67,0.0,646
1730,9.55,-2.23,0.94,0.04,0.01,0.03,-36.5,15.56,13.88,0.73,-0.14,-0.67,0.01,647
1731,9.5,-2.29,0.95,0.03,0.02,0.03,-36.5,15.56,13.88,0.73,-0.14,-0.67,0.01,648
1732,9.49,-2.27,1.03,0.01,0.02,0.03,-36.5,15.56,13.88,0.73,-0.14,-0.67,0.01,649
1733,9.45,-2.27,1.04,-0.01,0.03,0.02,-36.5,15.56,13.88,0.73,-0.14,-0.67,0.01,650
1734,9.43,-2.2,1.02,-0.03,0.02,0.03,-36.19,16.0,14.56,0.73,-0.14,-0.66,0.01,651
1735,9.49,-2.14,1.04,-0.03,0.02,0.03,-36.19,16.0,14.56,0.73,-0.14,-0.66,0.01,652
1736,9.5,-2.17,1.02,-0.02,0.02,0.02,-36.19,16.0,14.56,0.73,-0.14,-0.66,0.01,653
1737,9.51,-2.27,1.02,-0.0,0.01,0.02,-36.19,16.0,14.56,0.73,-0.14,-0.66,0.01,654
1738,9.54,-2.3,1.03,0.01,0.0,0.03,-36.19,16.0,14.56,0.73,-0.14,-0.66,0.01,655
1739,9.54,-2.31,1.04,0.01,0.0,0.02,-36.5,16.37,14.25,0.73,-0.14,-0.66,0.01,656
1740,9.6,-2.25,1.09,-0.0,0.01,0.02,-36.5,16.37,14.25,0.73,-0.14,-0.66,0.01,657
1741,9.54,-2.22,1.06,-0.01,0.0,0.01,-36.5,16.37,14.25,0.73,-0.14,-0.66,0.01,658
1742,9.48,-2.16,1.05,-0.01,-0.0,0.01,-36.5,16.37,14.25,0.73,-0.14,-0.66,0.01,659
1743,9.46,-2.14,1.02,-0.02,-0.01,0.01,-36.5,16.0,13.88,0.73,-0.14,-0.66,0.01,660
1744,9.48,-2.12,1.01,-0.02,-0.0,0.01,-36.5,16.0,13.88,0.73,-0.14,-0.66,0.01,661
1745,9.53,-2.11,0.97,-0.02,-0.0,0.0,-36.5,16.0,13.88,0.73,-0.14,-0.66,0.01,662
1746,9.54,-2.12,0.96,-0.01,0.0,0.01,-36.5,16.0,13.88,0.73,-0.14,-0.66,0.01,663
1747,9.49,-2.16,0.93,-0.0,-0.0,0.01,-36.5,16.0,13.88,0.73,-0.14,-0.66,0.01,664
1748,9.49,-2.17,0.92,0.01,-0.0,0.01,-36.19,16.75,13.06,0.73,-0.14,-0.66,0.01,665
1749,9.5,-2.22,0.9,0.03,-0.01,0.02,-36.19,16.75,13.06,0.73,-0.14,-0.66,0.01,666
1750,9.49,-2.28,0.88,0.04,0.0,0.02,-36.19,16.75,13.06,0.73,-0.14,-0.66,0.01,667
1751,9.54,-2.31,0.91,0.04,0.0,0.02,-36.19,16.75,13.06,0.73,-0.14,-0.66,0.01,668
1752,9.54,-2.32,0.94,0.03,0.01,0.02,-36.19,16.75,13.06,0.73,-0.14,-0.66,0.01,669
1753,9.53,-2.22,0.95,0.02,0.02,0.01,-35.5,16.0,13.5,0.74,-0.14,-0.66,0.01,670
1754,9.48,-2.17,1.01,0.0,0.02,0.01,-35.5,16.0,13.5,0.74,-0.14,-0.66,0.01,671
1755,9.48,-2.17,1.01,0.0,0.02,0.01,-35.5,16.0,13.5,0.74,-0.14,-0.66,0.01,672
1756,9.43,-2.21,1.01,0.0,0.02,0.01,-35.5,16.0,13.5,0.74,-0.14,-0.66,0.01,673
1757,9.49,-2.16,1.03,-0.01,0.02,0.01,-35.5,16.0,13.5,0.74,-0.14,-0.66,0.01,674
1758,9.56,-2.19,1.04,-0.02,0.02,0.01,-36.5,16.75,13.06,0.74,-0.14,-0.66,0.01,675
1759,9.57,-2.21,1.06,-0.01,0.02,0.01,-36.5,16.75,13.06,0.74,-0.14,-0.66,0.01,676
1760,9.57,-2.21,1.06,0.0,0.02,0.01,-36.5,16.75,13.06,0.74,-0.14,-0.66,0.01,677
1761,9.51,-2.31,1.06,0.01,0.01,0.01,-36.5,16.75,13.06,0.74,-0.14,-0.66,0.01,678
1762,9.49,-2.29,1.01,0.01,0.0,0.01,-36.5,16.75,13.06,0.74,-0.14,-0.66,0.01,679
1763,9.5,-2.21,1.02,0.0,-0.0,0.0,-35.88,16.37,11.88,0.74,-0.14,-0.66,0.01,680
1764,9.49,-2.14,0.98,0.01,-0.0,0.01,-35.88,16.37,11.88,0.74,-0.14,-0.66,0.01,681
1765,9.49,-2.13,0.95,0.02,-0.01,0.0,-35.88,16.37,11.88,0.74,-0.14,-0.66,0.01,682
1766,9.5,-2.15,1.0,0.03,-0.0,0.0,-35.88,16.37,11.88,0.74,-0.14,-0.66,0.01,683
1767,9.49,-2.13,0.99,0.03,0.0,0.0,-35.88,16.37,11.88,0.74,-0.14,-0.66,0.01,684
1768,9.5,-2.11,0.98,0.03,-0.0,0.0,-35.88,16.0,13.5,0.74,-0.14,-0.66,0.01,685
1769,9.47,-2.09,0.98,0.02,-0.0,0.0,-35.88,16.0,13.5,0.74,-0.14,-0.66,0.01,686
1770,9.48,-2.09,0.95,0.03,-0.0,0.0,-35.88,16.0,13.5,0.74,-0.14,-0.66,0.01,687
1771,9.52,-2.15,1.0,0.03,0.0,0.0,-35.88,16.0,13.5,0.74,-0.14,-0.66,0.01,688
1772,9.57,-2.24,1.01,0.04,0.01,0.01,-35.88,16.0,13.5,0.74,-0.14,-0.66,0.01,689
1773,9.56,-2.39,1.05,0.04,0.0,0.01,-35.5,16.37,13.5,0.74,-0.14,-0.66,0.01,690
1774,9.56,-2.39,1.05,0.03,0.01,0.0,-35.5,16.37,13.5,0.74,-0.14,-0.66,0.01,691
1775,9.49,-2.38,1.03,0.01,0.01,-0.0,-35.5,16.37,13.5,0.74,-0.14,-0.66,0.01,692
1776,9.47,-2.25,1.01,-0.01,0.01,-0.0,-35.5,16.37,13.5,0.74,-0.14,-0.66,0.01,693
1777,9.47,-2.2,1.05,-0.02,0.01,-0.0,-35.5,16.37,13.5,0.74,-0.14,-0.66,0.01,694
1778,9.52,-2.13,1.02,-0.03,0.01,-0.0,-36.19,16.75,13.06,0.74,-0.14,-0.66,0.01,695
1779,9.56,-2.16,1.01,-0.02,0.01,-0.0,-36.19,16.75,13.06,0.74,-0.14,-0.66,0.01,696
1780,9.55,-2.17,1.04,-0.01,0.01,-0.0,-36.19,16.75,13.06,0.74,-0.14,-0.66,0.01,697
1781,9.55,-2.17,1.04,-0.0,0.01,0.0,-36.19,16.75,13.06,0.74,-0.14,-0.66,0.01,698
1782,9.51,-2.23,1.05,-0.0,0.0,0.0,-36.19,16.75,13.06,0.74,-0.14,-0.66,0.01,699
1783,9.51,-2.23,1.05,-0.01,-0.01,0.0,-35.5,16.0,13.88,0.74,-0.14,-0.66,0.01,700
1784,9.49,-2.24,1.06,-0.01,-0.01,0.0,-35.5,16.0,13.88,0.74,-0.14,-0.66,0.01,701
1785,9.5,-2.25,1.04,-0.0,-0.01,0.0,-35.5,16.0,13.88,0.74,-0.14,-0.66,0.01,702
1786,9.5,-2.26,1.01,-0.01,-0.0,-0.0,-35.5,16.0,13.88,0.74,-0.14,-0.66,0.01,703
1787,9.5,-2.2,1.01,-0.03,0.0,-0.01,-35.88,17.06,14.25,0.74,-0.14,-0.66,0.01,704
1788,9.5,-2.2,1.01,-0.03,0.0,-0.01,-35.88,17.06,14.25,0.74,-0.14,-0.66,0.01,705
1789,9.53,-2.21,0.98,-0.03,-0.0,-0.0,-35.88,17.06,14.25,0.74,-0.14,-0.66,0.01,706
1790,9.53,-2.21,0.98,-0.03,-0.01,0.0,-35.88,17.06,14.25,0.74,-0.14,-0.66,0.01,707
1791,9.51,-2.17,1.02,-0.02,-0.0,0.0,-35.88,17.06,14.25,0.74,-0.14,-0.66,0.01,708
1792,9.51,-2.17,1.02,-0.02,-0.01,0.0,-35.88,16.37,13.06,0.74,-0.14,-0.66,0.01,709
1793,9.47,-2.2,1.02,-0.01,-0.01,0.0,-35.88,16.37,13.06,0.74,-0.14,-0.66,0.01,710
1794,9.52,-2.23,1.04,-0.01,-0.01,0.0,-35.88,16.37,13.06,0.74,-0.14,-0.66,0.01,711
1795,9.55,-2.2,1.05,-0.02,-0.0,0.0,-35.88,16.37,13.06,0.74,-0.14,-0.66,0.01,712
1796,9.55,-2.18,1.04,-0.02,-0.01,-0.0,-35.88,16.37,13.06,0.74,-0.14,-0.66,0.01,713
1797,9.5,-2.16,1.06,-0.0,-0.01,-0.0,-35.5,16.37,12.69,0.74,-0.14,-0.66,0.01,714
1798,9.5,-2.19,1.07,-0.0,-0.01,-0.0,-35.5,16.37,12.69,0.74,-0.14,-0.66,0.01,715
1799,9.5,-2.18,1.02,-0.01,-0.02,0.0,-35.5,16.37,12.69,0.74,-0.14,-0.66,0.01,716
1800,9.5,-2.16,1.0,-0.01,-0.01,0.0,-35.5,16.0,12.69,0.74,-0.14,-0.66,0.01,717
1801,9.5,-2.1,1.01,-0.01,-0.01,0.0,-35.5,16.0,12.69,0.74,-0.14,-0.66,0.01,718
1802,9.53,-2.11,1.0,-0.01,-0.01,-0.0,-35.5,16.0,12.69,0.74,-0.14,-0.66,0.01,719
1803,9.53,-2.14,0.98,0.0,-0.02,0.0,-35.5,16.0,12.69,0.74,-0.14,-0.66,0.01,720
1804,9.49,-2.16,0.98,0.01,-0.02,0.01,-35.5,16.0,12.69,0.74,-0.14,-0.66,0.01,721
1805,9.49,-2.16,0.98,0.02,-0.01,0.01,-35.5,16.0,12.69,0.74,-0.14,-0.66,0.01,722
1806,9.49,-2.22,0.98,0.01,-0.01,0.01,-35.5,16.0,13.06,0.74,-0.14,-0.66,0.01,723
1807,9.51,-2.23,0.94,0.01,-0.01,0.01,-35.5,16.0,13.06,0.74,-0.14,-0.66,0.01,724
1808,9.52,-2.24,0.95,0.0,-0.0,0.01,-35.5,16.0,13.06,0.74,-0.14,-0.66,0.01,725
1809,9.52,-2.2,0.94,0.0,-0.0,0.01,-35.5,16.0,13.06,0.74,-0.14,-0.66,0.01,726
1810,9.51,-2.2,1.0,0.0,0.0,0.01,-35.5,16.0,13.06,0.74,-0.14,-0.66,0.01,727
1811,9.56,-2.23,1.02,0.0,0.0,0.0,-35.5,15.56,13.5,0.74,-0.14,-0.66,0.01,728
1812,9.53,-2.25,1.02,-0.01,0.0,0.0,-35.5,15.56,13.5,0.74,-0.14,-0.66,0.01,729
1813,9.52,-2.28,1.02,-0.03,0.0,0.0,-35.5,15.56,13.5,0.74,-0.14,-0.66,0.01,730
1814,9.49,-2.35,0.99,-0.03,0.0,0.0,-35.5,15.56,13.5,0.74,-0.14,-0.66,0.01,731
1815,9.5,-2.3,1.02,-0.05,0.01,0.0,-35.5,15.56,13.5,0.74,-0.14,-0.66,0.01,732
1816,9.53,-2.25,1.01,-0.06,0.01,0.0,-36.19,16.75,12.69,0.74,-0.14,-0.66,0.01,733
1817,9.51,-2.21,1.02,-0.06,0.01,-0.0,-36.19,16.75,12.69,0.74,-0.14,-0.66,0.01,734
1818,9.5,-2.18,1.02,-0.05,0.02,0.0,-36.19,16.75,12.69,0.74,-0.14,-0.66,0.01,735
1819,9.47,-2.16,1.01,-0.03,0.02,0.0,-36.19,16.75,12.69,0.74,-0.14,-0.66,0.01,736
1820,9.47,-2.14,1.02,-0.01,0.01,0.01,-35.88,15.56,13.06,0.74,-0.14,-0.66,0.01,737
1821,9.49,-2.16,1.03,-0.01,0.01,0.01,-35.88,15.56,13.06,0.74,-0.14,-0.66,0.01,738
1822,9.52,-2.12,1.02,-0.0,0.02,0.01,-35.88,15.56,13.06,0.74,-0.14,-0.66,0.01,739
1823,9.5,-2.18,1.01,0.01,0.02,0.01,-35.88,15.56,13.06,0.74,-0.14,-0.66,0.01,740
1824,9.47,-2.19,1.02,0.02,0.02,0.01,-35.88,15.56,13.06,0.74,-0.14,-0.66,0.01,741
1825,9.47,-2.19,1.02,0.03,0.02,0.01,-35.88,15.56,13.06,0.74,-0.14,-0.66,0.01,742
1826,9.49,-2.25,1.01,0.03,0.02,0.01,-35.88,16.37,12.69,0.74,-0.14,-0.66,0.01,743
1827,9.49,-2.25,1.01,0.02,0.02,0.01,-35.88,16.37,12.69,0.74,-0.14,-0.66,0.01,744
1828,9.49,-2.32,1.01,0.0,0.02,0.0,-35.88,16.37,12.69,0.74,-0.14,-0.66,0.01,745
1829,9.5,-2.28,1.02,-0.01,0.02,-0.0,-35.88,16.37,12.69,0.74,-0.14,-0.66,0.01,746
1830,9.51,-2.12,1.01,-0.01,0.02,-0.0,-35.88,16.37,12.69,0.74,-0.14,-0.66,0.01,747
1831,9.51,-2.14,0.98,0.01,0.01,0.0,-36.19,16.0,13.5,0.74,-0.14,-0.66,0.01,748
1832,9.52,-2.17,0.99,0.04,0.02,0.01,-36.19,16.0,13.5,0.74,-0.14,-0.66,0.01,749
1833,9.5,-2.28,1.01,0.04,0.02,0.01,-36.19,16.0,13.5,0.74,-0.14,-0.66,0.01,750
1834,9.49,-2.29,1.0,0.03,0.02,0.01,-36.19,16.0,13.5,0.74,-0.14,-0.66,0.01,751
1835,9.49,-2.26,1.01,0.02,0.02,0.0,-36.19,16.0,13.5,0.74,-0.14,-0.66,0.01,752
1836,9.51,-2.16,1.04,0.01,0.02,0.0,-35.88,16.75,14.25,0.74,-0.14,-0.66,0.01,753
1837,9.51,-2.2,1.05,0.02,0.02,0.0,-35.88,16.75,14.25,0.74,-0.14,-0.66,0.01,754
1838,9.51,-2.24,1.04,0.03,0.02,0.01,-35.88,16.75,14.25,0.74,-0.14,-0.66,0.01,755
1839,9.51,-2.24,1.04,0.03,0.02,0.01,-35.88,16.75,14.25,0.74,-0.14,-0.66,0.01,756
1840,9.46,-2.3,1.03,0.02,0.02,0.0,-35.88,16.75,14.25,0.74,-0.14,-0.66,0.01,757
1841,9.46,-2.3,1.03,0.02,0.02,0.0,-35.88,16.75,13.5,0.74,-0.14,-0.66,0.01,758
1842,9.51,-2.22,1.07,-0.01,0.03,0.0,-35.88,16.75,13.5,0.74,-0.14,-0.66,0.01,759
1843,9.51,-2.22,1.07,-0.01,0.03,0.0,-35.88,16.75,13.5,0.74,-0.14,-0.66,0.01,760
1844,9.45,-2.2,1.09,0.01,0.02,0.01,-35.88,16.75,13.5,0.74,-0.14,-0.66,0.01,761
1845,9.45,-2.18,1.1,0.01,0.02,0.01,-36.5,16.0,13.5,0.74,-0.14,-0.66,0.01,762
1846,9.47,-2.17,1.07,0.02,0.01,0.01,-36.5,16.0,13.5,0.74,-0.14,-0.66,0.01,763
1847,9.51,-2.17,1.07,0.02,0.01,0.01,-36.5,16.0,13.5,0.74,-0.14,-0.66,0.01,764
1848,9.49,-2.21,1.03,0.02,0.01,0.01,-36.5,16.0,13.5,0.74,-0.14,-0.66,0.01,765
1849,9.49,-2.23,1.11,0.03,0.01,0.01,-36.5,16.0,13.5,0.74,-0.14,-0.66,0.01,766
1850,9.49,-2.23,1.11,0.03,0.01,0.01,-36.19,16.0,13.5,0.74,-0.14,-0.66,0.01,767
1851,9.51,-2.28,1.09,0.01,0.01,0.0,-36.19,16.0,13.5,0.74,-0.14,-0.66,0.01,768
1852,9.53,-2.23,1.08,0.0,0.01,0.01,-36.19,16.0,13.5,0.74,-0.14,-0.66,0.01,769
1853,9.5,-2.25,1.1,0.01,0.01,0.01,-36.19,16.0,13.5,0.74,-0.14,-0.66,0.01,770
1854,9.5,-2.27,1.15,0.01,0.0,0.01,-36.19,16.0,13.5,0.74,-0.14,-0.66,0.01,771
1855,9.5,-2.26,1.16,-0.01,-0.0,0.0,-36.19,16.0,13.06,0.74,-0.14,-0.66,0.01,772
1856,9.5,-2.22,1.14,-0.01,-0.0,0.0,-36.19,16.0,13.06,0.74,-0.14,-0.66,0.01,773
1857,9.5,-2.16,1.09,-0.01,-0.01,0.01,-36.19,16.0,13.06,0.74,-0.14,-0.66,0.01,774
1858,9.46,-2.21,1.03,0.01,-0.01,0.01,-36.19,16.0,13.06,0.74,-0.14,-0.66,0.01,775
1859,9.45,-2.26,1.05,0.01,-0.01,0.01,-36.19,16.0,13.06,0.74,-0.14,-0.66,0.01,776
1860,9.48,-2.27,1.06,0.01,-0.01,0.0,-35.88,16.37,12.69,0.74,-0.14,-0.66,0.01,777
1861,9.52,-2.23,1.08,-0.0,-0.01,-0.0,-35.88,16.37,12.69,0.74,-0.14,-0.66,0.01,778
1862,9.49,-2.19,1.08,-0.0,-0.02,0.0,-35.88,16.37,12.69,0.74,-0.14,-0.66,0.01,779
1863,9.49,-2.17,1.07,0.0,-0.02,0.01,-35.88,16.37,12.69,0.74,-0.14,-0.66,0.01,780
1864,9.48,-2.22,1.07,0.02,-0.03,0.01,-35.88,16.37,12.69,0.74,-0.14,-0.66,0.01,781
1865,9.48,-2.26,1.02,0.01,-0.03,0.01,-36.88,16.75,13.88,0.74,-0.14,-0.66,0.01,782
1866,9.45,-2.27,1.01,0.01,-0.03,0.01,-36.88,16.75,13.88,0.74,-0.14,-0.66,0.01,783
1867,9.46,-2.24,1.01,-0.01,-0.03,0.0,-36.88,16.75,13.88,0.74,-0.14,-0.66,0.01,784
1868,9.48,-2.23,1.0,-0.02,-0.03,0.0,-36.88,16.75,13.88,0.74,-0.14,-0.66,0.01,785
1869,9.48,-2.23,1.0,-0.02,-0.02,0.0,-36.88,16.75,13.88,0.74,-0.14,-0.66,0.01,786
1870,9.5,-2.18,1.0,-0.01,-0.03,0.0,-35.06,16.0,13.06,0.74,-0.14,-0.66,0.01,787
1871,9.5,-2.18,1.0,-0.01,-0.03,0.0,-35.06,16.0,13.06,0.74,-0.14,-0.66,0.01,788
1872,9.46,-2.17,0.96,-0.01,-0.03,0.01,-35.06,16.0,13.06,0.74,-0.14,-0.66,0.01,789
1873,9.45,-2.23,1.01,-0.01,-0.02,0.01,-35.06,16.0,13.06,0.74,-0.14,-0.66,0.01,790
1874,9.5,-2.27,1.01,-0.02,-0.01,0.01,-35.06,16.0,13.06,0.74,-0.14,-0.66,0.01,791
1875,9.54,-2.27,1.04,-0.02,0.01,0.0,-36.88,16.37,12.25,0.74,-0.14,-0.66,0.01,792
1876,9.5,-2.27,1.07,-0.02,0.0,-0.0,-36.88,16.37,12.25,0.74,-0.14,-0.66,0.01,793
1877,9.51,-2.23,1.07,-0.03,0.01,0.0,-36.88,16.37,12.25,0.74,-0.14,-0.66,0.01,794
1878,9.48,-2.2,1.11,-0.01,-0.0,0.01,-36.88,16.37,12.25,0.74,-0.14,-0.66,0.01,795
1879,9.47,-2.21,1.08,-0.01,-0.0,0.01,-36.88,16.37,12.25,0.74,-0.14,-0.66,0.01,796
1880,9.46,-2.23,1.07,0.0,0.0,0.0,-36.88,15.56,12.25,0.74,-0.14,-0.66,0.01,797
1881,9.47,-2.27,1.05,0.0,0.0,0.0,-36.88,15.56,12.25,0.74,-0.14,-0.66,0.01,798
1882,9.49,-2.28,1.05,0.0,0.0,0.0,-36.88,15.56,12.25,0.74,-0.14,-0.66,0.01,799
1883,9.51,-2.26,1.09,-0.01,0.0,0.0,-36.88,15.56,12.25,0.74,-0.14,-0.66,0.01,800
1884,9.52,-2.2,1.11,-0.01,0.0,0.0,-36.88,15.56,12.25,0.74,-0.14,-0.66,0.01,801
1885,9.49,-2.18,1.12,0.0,-0.0,0.0,-36.19,16.75,13.88,0.74,-0.14,-0.66,0.01,802
1886,9.48,-2.18,1.08,0.0,-0.0,0.0,-36.19,16.75,13.88,0.74,-0.14,-0.66,0.01,803
1887,9.45,-2.3,1.01,0.02,-0.01,0.0,-36.19,16.75,13.88,0.74,-0.14,-0.66,0.01,804
1888,9.45,-2.3,1.01,0.02,-0.01,0.0,-36.19,16.75,13.88,0.74,-0.14,-0.66,0.01,805
1889,9.45,-2.26,1.02,0.0,-0.01,0.01,-36.19,16.75,13.88,0.74,-0.14,-0.66,0.01,806
1890,9.46,-2.26,0.99,0.0,-0.0,0.0,-36.5,15.56,13.06,0.74,-0.14,-0.66,0.01,807
1891,9.57,-2.29,1.01,-0.01,0.01,0.0,-36.5,15.56,13.06,0.74,-0.14,-0.66,0.01,808
1892,9.57,-2.33,0.99,-0.02,0.01,0.0,-36.5,15.56,13.06,0.74,-0.14,-0.66,0.01,809
1893,9.55,-2.3,1.01,-0.03,0.01,-0.0,-36.5,15.56,13.06,0.74,-0.14,-0.66,0.01,810
1894,9.5,-2.25,1.02,-0.04,0.01,0.0,-36.5,15.56,13.06,0.74,-0.14,-0.66,0.01,811
1895,9.47,-2.22,1.02,-0.05,0.02,0.0,-36.5,16.37,12.25,0.74,-0.14,-0.66,0.01,812
1896,9.47,-2.2,1.04,-0.05,0.01,-0.0,-36.5,16.37,12.25,0.74,-0.14,-0.66,0.01,813
1897,9.52,-2.18,1.02,-0.04,0.02,-0.0,-36.5,16.37,12.25,0.74,-0.14,-0.66,0.01,814
1898,9.51,-2.19,1.06,-0.03,0.02,0.0,-36.5,16.37,12.25,0.74,-0.14,-0.66,0.01,815
1899,9.51,-2.19,1.06,-0.03,0.02,0.0,-36.5,16.37,12.25,0.74,-0.14,-0.66,0.01,816
1900,9.46,-2.2,1.15,-0.01,0.0,0.0,-36.19,16.0,13.06,0.74,-0.14,-0.66,0.01,817
1901,9.47,-2.22,1.07,-0.01,0.0,0.0,-36.19,16.0,13.06,0.74,-0.14,-0.66,0.01,818
1902,9.46,-2.25,1.04,-0.0,0.0,0.0,-36.19,16.0,13.06,0.74,-0.14,-0.66,0.01,819
1903,9.45,-2.27,1.06,-0.0,-0.0,0.0,-35.88,16.37,12.25,0.74,-0.14,-0.66,0.01,820
1904,9.46,-2.27,1.04,-0.01,-0.0,0.0,-35.88,16.37,12.25,0.74,-0.14,-0.66,0.01,821
1905,9.46,-2.27,1.04,-0.02,0.01,0.0,-35.88,16.37,12.25,0.74,-0.14,-0.66,0.01,822
1906,9.55,-2.21,1.08,-0.02,0.01,-0.0,-35.88,16.37,12.25,0.74,-0.14,-0.66,0.01,823
1907,9.52,-2.19,1.08,-0.01,0.0,0.0,-35.88,16.37,12.25,0.74,-0.14,-0.66,0.01,824
1908,9.46,-2.25,1.08,0.01,-0.01,0.01,-35.88,16.0,13.88,0.74,-0.14,-0.66,0.01,825
1909,9.42,-2.22,1.06,0.01,-0.01,0.01,-35.88,16.0,13.88,0.74,-0.14,-0.66,0.01,826
1910,9.44,-2.24,1.04,0.01,-0.0,0.0,-35.88,16.0,13.88,0.74,-0.14,-0.66,0.01,827
1911,9.47,-2.22,1.04,-0.0,-0.0,0.0,-35.88,16.0,13.88,0.74,-0.14,-0.66,0.01,828
1912,9.54,-2.27,1.03,0.0,-0.0,0.0,-35.88,16.0,13.88,0.74,-0.14,-0.66,0.01,829
1913,9.53,-2.27,1.05,0.0,0.0,0.0,-35.06,16.75,13.88,0.74,-0.14,-0.66,0.01,830
1914,9.51,-2.26,1.04,0.0,0.0,0.0,-35.06,16.75,13.88,0.74,-0.14,-0.66,0.01,831
1915,9.48,-2.27,1.06,-0.0,-0.0,0.0,-35.06,16.75,13.88,0.74,-0.14,-0.66,0.01,832
1916,9.5,-2.25,1.03,0.0,-0.0,0.0,-35.06,16.75,13.88,0.74,-0.14,-0.66,0.01,833
1917,9.44,-2.27,1.03,0.01,-0.0,0.0,-35.06,16.75,13.88,0.74,-0.14,-0.66,0.01,834
1918,9.42,-2.27,1.02,0.01,-0.0,0.0,-35.06,16.75,13.88,0.74,-0.14,-0.66,0.01,835
1919,9.43,-2.26,1.02,-0.0,0.0,0.0,-36.19,16.0,13.88,0.74,-0.14,-0.66,0.01,836
1920,9.54,-2.22,1.07,0.0,0.0,0.0,-36.19,16.0,13.88,0.74,-0.14,-0.66,0.01,837
1921,9.54,-2.22,1.02,0.02,-0.0,0.0,-36.19,16.0,13.88,0.74,-0.14,-0.66,0.01,838
1922,9.49,-2.24,1.02,0.02,-0.0,0.0,-36.19,16.0,13.88,0.74,-0.14,-0.66,0.01,839
1923,9.43,-2.27,1.03,0.02,-0.0,0.0,-36.19,16.0,13.88,0.74,-0.14,-0.66,0.01,840
1924,9.48,-2.27,1.05,0.02,-0.0,0.0,-35.5,16.0,13.88,0.74,-0.14,-0.66,0.01,841
1925,9.51,-2.29,1.06,0.02,0.0,-0.0,-35.5,16.0,13.88,0.74,-0.14,-0.66,0.01,842
1926,9.51,-2.29,1.06,0.01,-0.0,0.0,-35.5,16.0,13.88,0.74,-0.14,-0.66,0.01,843
1927,9.45,-2.24,1.05,0.01,-0.0,0.0,-35.5,16.0,13.88,0.74,-0.14,-0.66,0.01,844
1928,9.47,-2.22,1.08,0.01,-0.01,0.0,-35.5,16.0,13.88,0.74,-0.14,-0.66,0.01,845
1929,9.45,-2.27,1.05,0.0,-0.01,0.0,-35.5,16.37,13.06,0.74,-0.14,-0.66,0.01,846
1930,9.47,-2.21,1.04,-0.0,-0.0,0.01,-35.5,16.37,13.06,0.74,-0.14,-0.66,0.01,847
1931,9.45,-2.24,1.05,0.01,0.0,0.01,-35.5,16.37,13.06,0.74,-0.14,-0.66,0.01,848
1932,9.47,-2.27,1.06,0.01,0.01,-0.0,-35.5,16.37,13.06,0.74,-0.14,-0.66,0.01,849
1933,9.49,-2.25,1.05,0.0,0.01,0.0,-35.5,16.37,13.06,0.74,-0.14,-0.66,0.01,850
1934,9.5,-2.25,1.08,0.0,0.01,0.0,-36.88,16.75,13.06,0.74,-0.14,-0.66,0.01,851
1935,9.48,-2.21,1.05,0.01,0.0,0.0,-36.88,16.75,13.06,0.74,-0.14,-0.66,0.01,852
1936,9.48,-2.21,1.04,0.01,-0.0,0.0,-36.88,16.75,13.06,0.74,-0.14,-0.66,0.01,853
1937,9.49,-2.21,1.05,0.01,0.0,0.0,-36.88,16.75,13.06,0.74,-0.14,-0.66,0.01,854
1938,9.51,-2.26,1.03,0.03,-0.0,0.0,-36.88,16.75,13.06,0.74,-0.14,-0.66,0.01,855
1939,9.45,-2.28,1.02,0.02,0.0,0.0,-35.88,16.37,13.88,0.74,-0.14,-0.66,0.01,856
1940,9.45,-2.31,1.04,0.01,0.01,0.0,-35.88,16.37,13.88,0.74,-0.14,-0.66,0.01,857
1941,9.46,-2.28,1.07,0.0,0.01,0.0,-35.88,16.37,13.88,0.74,-0.14,-0.66,0.01,858
1942,9.53,-2.23,1.14,0.0,0.01,-0.0,-35.88,16.37,13.88,0.74,-0.14,-0.66,0.01,859
1943,9.51,-2.22,1.1,0.01,0.01,-0.01,-35.88,16.37,13.88,0.74,-0.14,-0.66,0.01,860
1944,9.42,-2.23,1.06,0.02,-0.0,0.0,-36.5,16.37,12.25,0.74,-0.14,-0.66,0.01,861
1945,9.46,-2.24,1.05,0.03,-0.01,0.0,-36.5,16.37,12.25,0.74,-0.14,-0.66,0.01,862
1946,9.49,-2.24,1.06,0.03,-0.0,0.0,-36.5,16.37,12.25,0.74,-0.14,-0.66,0.01,863
1947,9.55,-2.29,1.09,0.03,-0.0,0.0,-36.5,16.37,12.25,0.74,-0.14,-0.66,0.01,864
1948,9.55,-2.29,1.09,0.02,0.0,0.0,-35.88,16.37,13.06,0.74,-0.14,-0.66,0.01,865
1949,9.49,-2.27,1.12,0.01,-0.0,0.0,-35.88,16.37,13.06,0.74,-0.14,-0.66,0.01,866
1950,9.45,-2.24,1.14,0.01,-0.01,-0.0,-35.88,16.37,13.06,0.74,-0.14,-0.66,0.01,867
1951,9.47,-2.21,1.12,0.01,-0.01,0.0,-35.88,16.37,13.06,0.74,-0.14,-0.66,0.01,868
1952,9.45,-2.24,1.1,0.02,-0.01,-0.0,-35.88,16.37,13.06,0.74,-0.14,-0.66,0.01,869
1953,9.46,-2.26,1.1,0.02,-0.02,0.0,-35.5,16.37,13.06,0.74,-0.14,-0.66,0.01,870
1954,9.48,-2.27,1.07,0.02,-0.02,0.0,-35.5,16.37,13.06,0.74,-0.14,-0.66,0.01,871
1955,9.51,-2.24,1.09,0.01,-0.01,0.0,-35.5,16.37,13.06,0.74,-0.14,-0.66,0.01,872
1956,9.53,-2.23,1.1,0.01,-0.01,0.0,-35.5,16.37,13.06,0.74,-0.14,-0.66,0.01,873
1957,9.53,-2.21,1.1,0.01,-0.01,-0.0,-35.5,16.37,13.06,0.74,-0.14,-0.66,0.01,874
1958,9.53,-2.21,1.11,0.02,-0.02,-0.0,-35.88,16.37,12.69,0.74,-0.14,-0.66,0.01,875
1959,9.5,-2.29,1.11,0.03,-0.02,0.0,-35.88,16.37,12.69,0.74,-0.14,-0.66,0.01,876
1960,9.5,-2.3,1.1,0.03,-0.03,0.0,-35.88,16.37,12.69,0.74,-0.14,-0.66,0.01,877
1961,9.49,-2.28,1.09,0.02,-0.03,0.0,-35.88,16.37,12.69,0.74,-0.14,-0.66,0.01,878
1962,9.51,-2.28,1.06,0.01,-0.03,-0.0,-35.88,16.37,12.69,0.74,-0.14,-0.66,0.01,879
1963,9.52,-2.2,1.04,-0.01,-0.02,0.0,-35.88,15.25,12.25,0.74,-0.14,-0.66,0.01,880
1964,9.51,-2.18,1.02,-0.01,-0.02,-0.0,-35.88,15.25,12.25,0.74,-0.14,-0.66,0.01,881
1965,9.52,-2.18,1.03,-0.01,-0.03,0.0,-35.88,15.25,12.25,0.74,-0.14,-0.66,0.01,882
1966,9.49,-2.2,1.0,-0.01,-0.03,0.0,-35.88,15.25,12.25,0.74,-0.14,-0.66,0.01,883
1967,9.47,-2.22,1.0,-0.01,-0.03,0.0,-35.88,15.25,12.25,0.74,-0.14,-0.66,0.01,884
1968,9.46,-2.21,1.0,-0.02,-0.02,0.0,-34.69,16.37,12.0,0.74,-0.14,-0.66,0.01,885
1969,9.49,-2.2,1.01,-0.02,-0.01,0.01,-34.69,16.37,12.0,0.74,-0.14,-0.66,0.01,886
1970,9.52,-2.16,0.99,-0.02,-0.02,0.01,-34.69,16.37,12.0,0.74,-0.14,-0.66,0.01,887
1971,9.5,-2.16,0.98,-0.01,-0.01,0.01,-34.69,16.37,12.0,0.74,-0.14,-0.66,0.01,888
1972,9.48,-2.14,0.96,-0.0,-0.01,0.01,-34.69,16.37,12.0,0.74,-0.14,-0.66,0.01,889
1973,9.46,-2.12,0.99,0.0,-0.01,0.01,-35.88,16.75,13.88,0.74,-0.14,-0.66,0.01,890
1974,9.44,-2.21,0.98,0.02,-0.01,0.01,-35.88,16.75,13.88,0.74,-0.14,-0.66,0.01,891
1975,9.48,-2.26,0.99,0.03,-0.0,0.02,-35.88,16.75,13.88,0.74,-0.14,-0.66,0.01,892
1976,9.52,-2.3,1.02,0.03,-0.0,0.02,-35.88,16.75,13.88,0.74,-0.14,-0.66,0.01,893
1977,9.53,-2.34,1.02,0.02,0.0,0.02,-35.88,16.75,13.88,0.74,-0.14,-0.66,0.01,894
1978,9.5,-2.27,1.06,-0.0,0.0,0.01,-36.5,17.06,12.69,0.74,-0.14,-0.66,0.01,895
1979,9.48,-2.24,1.07,-0.01,0.0,0.01,-36.5,17.06,12.69,0.74,-0.14,-0.66,0.01,896
1980,9.48,-2.2,1.03,-0.02,0.0,0.01,-36.5,17.06,12.69,0.74,-0.14,-0.66,0.01,897
1981,9.52,-2.26,1.05,-0.01,0.01,0.01,-36.5,17.06,12.69,0.74,-0.14,-0.66,0.01,898
1982,9.49,-2.27,1.06,-0.01,0.01,0.02,-36.5,17.06,12.69,0.74,-0.14,-0.66,0.01,899
1983,9.47,-2.26,1.05,-0.02,0.01,0.01,-36.19,17.06,13.5,0.74,-0.14,-0.66,0.01,900
1984,9.47,-2.26,1.05,-0.03,0.0,0.01,-36.19,17.06,13.5,0.74,-0.14,-0.66,0.01,901
1985,9.46,-2.28,1.06,-0.02,0.0,0.01,-36.19,17.06,13.5,0.74,-0.14,-0.66,0.01,902
1986,9.48,-2.29,1.06,-0.02,0.0,0.01,-36.19,17.06,13.5,0.74,-0.14,-0.66,0.01,903
1987,9.47,-2.28,1.08,-0.03,-0.0,0.01,-36.88,16.0,13.5,0.74,-0.14,-0.66,0.01,904
1988,9.47,-2.28,1.08,-0.02,-0.01,0.01,-36.88,16.0,13.5,0.74,-0.14,-0.66,0.01,905
1989,9.5,-2.28,1.09,-0.02,-0.0,0.02,-36.88,16.0,13.5,0.74,-0.14,-0.66,0.01,906
1990,9.5,-2.31,1.04,-0.0,-0.01,0.01,-36.88,16.0,13.5,0.74,-0.14,-0.66,0.01,907
1991,9.52,-2.27,1.07,-0.01,-0.02,0.01,-36.5,16.75,12.69,0.74,-0.14,-0.66,0.01,908
1992,9.55,-2.28,1.04,-0.01,-0.02,0.01,-36.5,16.75,12.69,0.74,-0.14,-0.66,0.01,909
1993,9.56,-2.3,1.02,-0.01,-0.02,0.01,-36.5,16.75,12.69,0.74,-0.14,-0.66,0.01,910
1994,9.55,-2.26,1.02,-0.01,-0.02,0.01,-36.5,16.75,12.69,0.74,-0.14,-0.66,0.01,911
1995,9.47,-2.22,0.98,-0.02,-0.02,0.01,-36.5,16.75,12.69,0.74,-0.14,-0.66,0.01,912
1996,9.46,-2.19,0.97,-0.03,-0.02,0.0,-36.5,16.75,12.69,0.74,-0.14,-0.66,0.01,913
1997,9.46,-2.21,0.98,-0.03,-0.01,0.0,-35.06,17.06,12.25,0.74,-0.14,-0.66,0.01,914
1998,9.46,-2.21,0.98,-0.02,-0.0,0.01,-35.06,17.06,12.25,0.74,-0.14,-0.66,0.01,915
1999,9.47,-2.25,0.95,-0.02,-0.0,0.01,-35.06,17.06,12.25,0.74,-0.14,-0.66,0.01,916
2000,9.5,-2.32,0.97,-0.0,0.01,0.01,-35.06,17.06,12.25,0.74,-0.14,-0.66,0.01,917
2001,9.47,-2.34,1.0,0.0,0.01,0.01,-35.88,16.0,12.25,0.74,-0.14,-0.66,0.01,918
2002,9.46,-2.36,1.02,0.0,0.01,0.01,-35.88,16.0,12.25,0.74,-0.14,-0.66,0.01,919
2003,9.49,-2.4,1.01,0.0,0.02,0.01,-35.88,16.0,12.25,0.74,-0.14,-0.66,0.01,920
2004,9.49,-2.4,1.01,0.0,0.02,0.01,-35.88,16.0,12.25,0.74,-0.14,-0.66,0.01,921
2005,9.49,-2.4,1.06,0.0,0.02,0.01,-35.88,16.0,12.25,0.74,-0.14,-0.66,0.01,922
2006,9.49,-2.4,1.06,-0.01,0.02,0.01,-36.19,16.37,12.25,0.74,-0.14,-0.66,0.01,923
2007,9.5,-2.35,1.04,-0.01,0.02,0.01,-36.19,16.37,12.25,0.74,-0.14,-0.66,0.01,924
2008,9.5,-2.35,1.0,-0.01,0.01,0.0,-36.19,16.37,12.25,0.74,-0.14,-0.66,0.01,925
2009,9.5,-2.34,0.99,-0.02,0.03,0.0,-36.19,16.37,12.25,0.74,-0.14,-0.66,0.01,926
2010,9.48,-2.32,1.02,-0.02,0.03,0.0,-36.19,16.37,12.25,0.74,-0.14,-0.66,0.01,927
2011,9.48,-2.28,1.06,-0.03,0.03,-0.0,-35.5,16.0,13.06,0.74,-0.15,-0.66,0.01,928
2012,9.46,-2.3,1.15,-0.03,0.04,-0.01,-35.5,16.0,13.06,0.74,-0.15,-0.66,0.01,929
2013,9.48,-2.32,1.17,-0.03,0.03,-0.0,-35.5,16.0,13.06,0.74,-0.15,-0.66,0.01,930
2014,9.45,-2.34,1.21,-0.02,0.03,-0.0,-35.5,16.0,13.06,0.74,-0.15,-0.66,0.01,931
2015,9.38,-2.35,1.22,-0.02,0.02,0.0,-35.5,16.0,13.06,0.74,-0.15,-0.66,0.01,932
2016,9.42,-2.28,1.23,-0.02,0.02,-0.0,-35.88,16.0,12.69,0.74,-0.15,-0.66,0.01,933
2017,9.47,-2.25,1.18,-0.02,0.01,-0.0,-35.88,16.0,12.69,0.74,-0.15,-0.66,0.01,934
2018,9.46,-2.23,1.16,-0.01,0.0,-0.0,-35.88,16.0,12.69,0.74,-0.15,-0.66,0.01,935
2019,9.47,-2.25,1.14,-0.0,0.01,-0.01,-35.88,16.0,12.69,0.74,-0.15,-0.66,0.01,936
2020,9.47,-2.25,1.14,0.01,0.01,-0.0,-35.88,16.0,12.69,0.74,-0.15,-0.66,0.01,937
2021,9.45,-2.31,1.11,0.01,0.0,-0.01,-35.5,16.0,12.25,0.74,-0.15,-0.66,0.01,938
2022,9.42,-2.22,1.08,0.01,0.0,0.0,-35.5,16.0,12.25,0.74,-0.15,-0.66,0.01,939
2023,9.45,-2.25,1.01,0.03,-0.01,0.0,-35.5,16.0,12.25,0.74,-0.15,-0.66,0.01,940
2024,9.48,-2.26,1.02,0.03,-0.01,0.0,-35.5,16.0,12.25,0.74,-0.15,-0.66,0.01,941
2025,9.5,-2.32,1.02,0.04,-0.01,0.0,-35.5,16.0,12.25,0.74,-0.15,-0.66,0.01,942
2026,9.54,-2.33,1.01,0.04,-0.01,-0.0,-36.88,15.56,13.88,0.74,-0.15,-0.66,0.01,943
2027,9.54,-2.33,1.01,0.04,-0.0,-0.0,-36.88,15.56,13.88,0.74,-0.14,-0.66,0.01,944
2028,9.47,-2.32,1.04,0.04,-0.0,-0.0,-36.88,15.56,13.88,0.74,-0.14,-0.66,0.01,945
2029,9.47,-2.29,1.05,0.03,0.0,-0.0,-36.88,15.56,13.88,0.74,-0.14,-0.66,0.01,946
2030,9.43,-2.27,1.05,0.02,0.01,-0.0,-36.88,17.06,13.88,0.74,-0.14,-0.66,0.01,947
2031,9.45,-2.28,1.06,0.02,0.01,-0.0,-36.88,17.06,13.88,0.74,-0.14,-0.66,0.01,948
2032,9.47,-2.34,1.05,0.02,0.01,-0.0,-36.88,17.06,13.88,0.74,-0.14,-0.66,0.01,949
2033,9.46,-2.35,1.04,0.03,0.02,-0.01,-36.88,17.06,13.88,0.74,-0.14,-0.66,0.01,950
2034,9.47,-2.31,1.08,0.01,0.02,-0.01,-36.88,17.06,13.88,0.74,-0.14,-0.66,0.01,951
2035,9.46,-2.28,1.13,-0.01,0.02,-0.01,-36.19,16.75,13.88,0.74,-0.14,-0.65,0.01,952
2036,9.48,-2.3,1.13,-0.01,0.02,-0.01,-36.19,16.75,13.88,0.74,-0.14,-0.65,0.01,953
2037,9.47,-2.28,1.11,-0.01,0.02,-0.01,-36.19,16.75,13.88,0.74,-0.14,-0.65,0.01,954
2038,9.49,-2.25,1.08,-0.01,0.02,-0.01,-36.19,16.75,13.88,0.74,-0.14,-0.65,0.01,955
2039,9.5,-2.25,1.06,-0.01,0.01,-0.0,-36.19,16.75,13.88,0.74,-0.14,-0.65,0.01,956
2040,9.47,-2.27,1.04,0.01,-0.0,-0.01,-36.19,16.75,13.88,0.74,-0.14,-0.65,0.01,957
2041,9.45,-2.26,1.03,0.02,-0.0,-0.0,-36.19,17.5,13.06,0.74,-0.14,-0.65,0.01,958
2042,9.48,-2.29,1.05,0.02,0.0,-0.0,-36.19,17.5,13.06,0.74,-0.14,-0.65,0.01,959
2043,9.51,-2.22,1.05,0.01,0.01,-0.0,-36.19,17.5,13.06,0.74,-0.14,-0.65,0.01,960
2044,9.51,-2.22,1.05,0.02,0.01,-0.01,-36.19,17.5,13.06,0.74,-0.14,-0.65,0.01,961
2045,9.46,-2.2,1.07,0.02,0.01,-0.01,-36.19,15.56,13.88,0.74,-0.14,-0.65,0.01,962
2046,9.49,-2.21,1.06,0.02,0.01,-0.0,-36.19,15.56,13.88,0.74,-0.14,-0.65,0.01,963
2047,9.48,-2.29,1.02,0.04,-0.01,0.0,-36.19,15.56,13.88,0.74,-0.14,-0.65,0.01,964
2048,9.49,-2.37,1.02,0.04,-0.01,0.0,-36.19,15.56,13.88,0.74,-0.14,-0.65,0.01,965
2049,9.5,-2.33,1.04,0.02,-0.01,0.01,-36.19,15.56,13.88,0.74,-0.14,-0.65,0.01,966
2050,9.5,-2.29,1.06,0.01,-0.01,0.01,-35.06,15.56,13.5,0.74,-0.14,-0.65,0.01,967
2051,9.49,-2.22,1.09,-0.0,-0.01,0.0,-35.06,15.56,13.5,0.74,-0.14,-0.65,0.01,968
2052,9.49,-2.22,1.09,-0.01,-0.0,0.0,-35.06,15.56,13.5,0.74,-0.14,-0.65,0.01,969
2053,9.54,-2.19,1.17,-0.0,-0.0,0.0,-35.06,15.56,13.5,0.74,-0.14,-0.65,0.01,970
2054,9.52,-2.26,1.19,0.01,-0.0,0.0,-35.06,15.56,13.5,0.74,-0.14,-0.65,0.01,971
2055,9.48,-2.29,1.16,0.02,-0.01,0.0,-36.19,16.37,13.5,0.74,-0.14,-0.65,0.01,972
2056,9.46,-2.27,1.16,0.01,-0.01,0.01,-36.19,16.37,13.5,0.74,-0.14,-0.65,0.01,973
2057,9.44,-2.25,1.12,-0.01,-0.01,-0.0,-36.19,16.37,13.5,0.74,-0.14,-0.65,0.01,974
2058,9.43,-2.23,1.11,-0.01,-0.01,-0.0,-36.19,16.37,13.5,0.74,-0.14,-0.65,0.01,975
2059,9.5,-2.22,1.13,-0.01,-0.0,-0.01,-36.19,16.37,13.5,0.74,-0.14,-0.65,0.01,976
2060,9.55,-2.24,1.13,0.01,-0.01,0.0,-35.5,17.5,12.25,0.74,-0.14,-0.65,0.01,977
2061,9.53,-2.25,1.12,0.01,-0.01,0.0,-35.5,17.5,12.25,0.74,-0.14,-0.65,0.01,978
2062,9.49,-2.25,1.09,0.02,-0.01,0.0,-35.5,17.5,12.25,0.74,-0.14,-0.65,0.01,979
2063,9.42,-2.27,1.08,0.02,-0.02,0.0,-35.5,17.5,12.25,0.74,-0.14,-0.65,0.01,980
2064,9.5,-2.24,1.09,0.01,-0.02,0.01,-35.5,17.5,12.25,0.74,-0.14,-0.65,0.01,981
2065,9.51,-2.32,1.09,0.01,-0.02,-0.0,-35.06,16.37,12.0,0.74,-0.14,-0.65,0.01,982
2066,9.52,-2.32,1.05,-0.0,-0.01,0.0,-35.06,16.37,12.0,0.74,-0.14,-0.65,0.01,983
2067,9.51,-2.27,1.05,-0.01,-0.01,0.0,-35.06,16.37,12.0,0.74,-0.14,-0.65,0.01,984
2068,9.5,-2.27,1.06,-0.01,-0.01,-0.0,-35.06,16.37,12.0,0.74,-0.14,-0.65,0.01,985
2069,9.5,-2.21,1.07,-0.01,-0.02,-0.0,-35.06,16.37,12.0,0.74,-0.14,-0.65,0.01,986
2070,9.48,-2.17,1.05,-0.0,-0.02,0.01,-36.5,17.06,13.5,0.74,-0.14,-0.65,0.01,987
2071,9.45,-2.2,1.04,0.01,-0.03,0.01,-36.5,17.06,13.5,0.74,-0.14,-0.65,0.01,988
2072,9.46,-2.23,1.02,0.03,-0.03,0.01,-36.5,17.06,13.5,0.74,-0.14,-0.65,0.01,989
2073,9.48,-2.28,1.03,0.03,-0.01,0.01,-36.5,17.06,13.5,0.74,-0.14,-0.66,0.01,990
2074,9.52,-2.31,1.05,0.02,-0.01,0.0,-36.5,17.06,13.5,0.74,-0.14,-0.66,0.01,991
2075,9.5,-2.27,1.03,0.0,-0.01,0.0,-36.88,17.06,12.69,0.74,-0.14,-0.66,0.01,992
2076,9.51,-2.23,1.03,-0.01,-0.01,0.0,-36.88,17.06,12.69,0.74,-0.14,-0.66,0.01,993
2077,9.48,-2.18,1.01,-0.0,-0.01,0.01,-36.88,17.06,12.69,0.74,-0.14,-0.66,0.01,994
2078,9.46,-2.19,1.03,0.02,-0.0,0.01,-36.88,17.06,12.69,0.74,-0.14,-0.66,0.01,995
2079,9.45,-2.27,1.03,0.04,-0.0,0.01,-36.88,17.06,12.69,0.74,-0.14,-0.66,0.01,996
2080,9.48,-2.34,1.05,0.04,0.0,0.01,-35.5,17.06,12.0,0.74,-0.14,-0.66,0.01,997
2081,9.49,-2.36,1.07,0.02,0.0,0.01,-35.5,17.06,12.0,0.74,-0.14,-0.66,0.01,998
2082,9.48,-2.34,1.06,0.0,0.01,0.01,-35.5,17.06,12.0,0.74,-0.14,-0.65,0.01,999
2083,9.46,-2.31,1.09,-0.01,0.0,0.0,-35.5,17.06,12.0,0.74,-0.14,-0.65,0.01,1000
2084,9.46,-2.26,1.1,-0.01,0.0,0.0,-35.5,17.06,12.0,0.74,-0.14,-0.65,0.01,1001
2085,9.45,-2.29,1.1,-0.01,0.0,0.0,-35.06,16.75,12.69,0.74,-0.14,-0.65,0.01,1002
2086,9.46,-2.35,1.07,-0.01,0.01,0.0,-35.06,16.75,12.69,0.74,-0.14,-0.65,0.01,1003
2087,9.46,-2.32,1.09,-0.02,0.01,0.0,-35.06,16.75,12.69,0.74,-0.14,-0.65,0.01,1004
2088,9.49,-2.3,1.1,-0.02,0.0,0.0,-35.06,16.75,12.69,0.74,-0.14,-0.65,0.01,1005
2089,9.5,-2.3,1.11,-0.03,0.0,0.0,-36.88,16.37,12.69,0.74,-0.14,-0.65,0.01,1006
2090,9.48,-2.3,1.08,-0.02,-0.0,0.0,-36.88,16.37,12.69,0.74,-0.14,-0.65,0.01,1007
2091,9.46,-2.31,1.04,-0.02,0.0,0.0,-36.88,16.37,12.69,0.74,-0.14,-0.65,0.01,1008
2092,9.49,-2.28,1.03,-0.02,0.01,-0.0,-36.88,16.37,12.69,0.74,-0.14,-0.65,0.01,1009
2093,9.51,-2.29,1.03,-0.02,0.01,-0.0,-36.88,16.37,12.69,0.74,-0.14,-0.65,0.01,1010
2094,9.5,-2.31,1.03,-0.02,0.02,0.0,-36.19,17.06,12.69,0.74,-0.14,-0.65,0.01,1011
2095,9.46,-2.25,1.07,-0.02,0.02,0.0,-36.19,17.06,12.69,0.74,-0.14,-0.65,0.01,1012
2096,9.48,-2.24,1.08,-0.02,0.01,0.0,-36.19,17.06,12.69,0.74,-0.14,-0.65,0.01,1013
2097,9.47,-2.27,1.04,-0.02,0.01,0.0,-36.19,17.06,12.69,0.74,-0.14,-0.65,0.01,1014
2098,9.45,-2.25,1.12,-0.02,0.01,0.0,-36.19,17.06,12.69,0.74,-0.14,-0.65,0.01,1015
2099,9.47,-2.3,1.09,-0.02,0.01,0.0,-36.19,16.0,13.88,0.74,-0.14,-0.65,0.01,1016
2100,9.48,-2.28,1.11,-0.03,0.01,0.0,-36.19,16.0,13.88,0.74,-0.14,-0.65,0.01,1017
2101,9.49,-2.22,1.13,-0.04,0.01,0.0,-36.19,16.0,13.88,0.74,-0.14,-0.65,0.01,1018
2102,9.5,-2.27,1.15,-0.04,0.01,0.0,-36.19,16.0,13.88,0.74,-0.14,-0.65,0.01,1019
2103,9.46,-2.3,1.09,-0.02,0.01,0.0,-35.06,15.56,13.5,0.74,-0.14,-0.65,0.01,1020
2104,9.46,-2.3,1.09,-0.02,0.01,0.0,-35.06,15.56,13.5,0.74,-0.14,-0.65,0.01,1021
2105,9.45,-2.3,1.03,-0.02,-0.0,0.0,-35.06,15.56,13.5,0.74,-0.15,-0.65,0.01,1022
2106,9.48,-2.31,1.05,-0.02,-0.0,0.0,-35.06,15.56,13.5,0.74,-0.15,-0.65,0.01,1023
2107,9.49,-2.28,1.08,-0.01,0.0,0.0,-35.5,16.75,13.06,0.74,-0.15,-0.65,0.01,1024
2108,9.5,-2.31,1.07,-0.01,0.0,0.0,-35.5,16.75,13.06,0.74,-0.15,-0.65,0.01,1025
2109,9.48,-2.27,1.14,-0.02,0.01,0.0,-35.5,16.75,13.06,0.74,-0.15,-0.65,0.01,1026
2110,9.47,-2.28,1.11,-0.01,0.01,-0.0,-35.5,16.75,13.06,0.74,-0.15,-0.65,0.01,1027
2111,9.5,-2.3,1.14,-0.0,0.0,0.0,-35.5,16.75,13.06,0.74,-0.15,-0.65,0.01,1028
2112,9.46,-2.29,1.12,0.0,-0.01,0.0,-35.5,16.0,12.75,0.74,-0.15,-0.65,0.01,1029
2113,9.43,-2.31,1.12,0.0,-0.01,0.0,-35.5,16.0,12.75,0.74,-0.15,-0.65,0.01,1030
2114,9.43,-2.3,1.08,-0.0,-0.01,0.0,-35.5,16.0,12.75,0.74,-0.15,-0.65,0.01,1031
2115,9.47,-2.28,1.05,-0.01,-0.01,0.0,-35.5,16.0,12.75,0.74,-0.15,-0.65,0.01,1032
2116,9.52,-2.3,1.03,-0.01,0.0,-0.0,-35.5,16.0,12.75,0.74,-0.15,-0.65,0.01,1033
2117,9.49,-2.31,1.07,-0.02,0.0,-0.0,-35.5,16.0,12.75,0.74,-0.15,-0.65,0.01,1034
2118,9.45,-2.28,1.08,-0.02,0.01,-0.0,-35.5,16.75,13.06,0.74,-0.15,-0.65,0.01,1035
2119,9.45,-2.24,1.1,-0.01,0.01,-0.01,-35.5,16.75,13.06,0.74,-0.15,-0.65,0.01,1036
2120,9.45,-2.24,1.1,-0.01,0.0,-0.01,-35.5,16.75,13.06,0.74,-0.15,-0.65,0.01,1037
2121,9.47,-2.22,1.05,0.01,-0.0,0.01,-35.5,16.75,13.06,0.74,-0.15,-0.65,0.01,1038
2122,9.47,-2.26,1.06,0.02,-0.01,0.0,-35.5,16.75,13.06,0.74,-0.15,-0.65,0.01,1039
2123,9.48,-2.29,1.05,0.03,-0.01,0.0,-35.5,16.37,12.69,0.74,-0.15,-0.65,0.01,1040
2124,9.51,-2.32,1.06,0.03,-0.0,0.0,-35.5,16.37,12.69,0.74,-0.15,-0.65,0.01,1041
2125,9.51,-2.35,1.05,0.01,0.0,0.0,-35.5,16.37,12.69,0.74,-0.15,-0.65,0.01,1042
2126,9.5,-2.32,1.08,0.01,0.01,-0.0,-35.5,16.37,12.69,0.74,-0.15,-0.65,0.01,1043
2127,9.5,-2.32,1.08,0.01,0.0,0.0,-35.5,16.37,12.69,0.74,-0.15,-0.65,0.01,1044
2128,9.47,-2.28,1.11,0.01,-0.0,0.0,-36.88,17.06,12.69,0.74,-0.15,-0.65,0.01,1045
2129,9.48,-2.28,1.07,0.01,-0.0,0.0,-36.88,17.06,12.69,0.74,-0.15,-0.65,0.01,1046
2130,9.48,-2.28,1.07,0.01,0.0,-0.0,-36.88,17.06,12.69,0.74,-0.15,-0.65,0.01,1047
2131,9.48,-2.28,1.0,0.01,0.0,-0.0,-36.88,17.06,12.69,0.74,-0.15,-0.65,0.01,1048
2132,9.46,-2.31,1.0,0.0,0.0,-0.0,-36.88,17.06,12.69,0.74,-0.15,-0.65,0.01,1049
2133,9.51,-2.33,1.01,0.0,0.01,0.0,-36.56,16.37,13.06,0.74,-0.15,-0.65,0.01,1050
2134,9.51,-2.3,1.02,-0.0,0.01,-0.0,-36.56,16.37,13.06,0.74,-0.15,-0.65,0.01,1051
2135,9.47,-2.29,1.04,0.0,0.01,-0.0,-36.56,16.37,13.06,0.74,-0.15,-0.65,0.01,1052
2136,9.44,-2.29,1.07,0.01,0.02,0.0,-36.56,16.37,13.06,0.74,-0.15,-0.65,0.01,1053
2137,9.4,-2.29,1.07,0.01,0.02,0.0,-36.56,16.37,13.06,0.74,-0.15,-0.65,0.01,1054
2138,9.46,-2.3,1.15,0.0,0.02,-0.0,-36.56,17.5,11.5,0.74,-0.15,-0.65,0.01,1055
2139,9.45,-2.29,1.13,-0.0,0.02,-0.0,-36.56,17.5,11.5,0.74,-0.15,-0.65,0.01,1056
2140,9.47,-2.29,1.14,-0.02,0.03,-0.01,-36.56,17.5,11.5,0.74,-0.15,-0.65,0.01,1057
2141,9.45,-2.28,1.14,-0.02,0.03,-0.01,-36.56,17.5,11.5,0.74,-0.15,-0.65,0.01,1058
2142,9.49,-2.27,1.17,-0.02,0.02,-0.01,-36.56,17.5,11.5,0.74,-0.15,-0.65,0.01,1059
2143,9.49,-2.26,1.16,-0.01,0.02,-0.0,-36.19,17.06,14.25,0.74,-0.15,-0.65,0.01,1060
2144,9.46,-2.32,1.13,0.01,0.01,-0.0,-36.19,17.06,14.25,0.74,-0.15,-0.65,0.01,1061
2145,9.46,-2.32,1.13,0.0,0.01,-0.01,-36.19,17.06,14.25,0.74,-0.15,-0.65,0.01,1062
2146,9.42,-2.3,1.06,-0.01,0.02,-0.01,-36.19,17.06,14.25,0.74,-0.15,-0.65,0.01,1063
2147,9.49,-2.26,1.1,-0.01,0.02,-0.0,-35.06,16.37,13.5,0.74,-0.15,-0.65,0.01,1064
2148,9.48,-2.29,1.13,0.01,0.02,-0.01,-35.06,16.37,13.5,0.74,-0.15,-0.65,0.01,1065
2149,9.44,-2.31,1.08,0.03,0.02,-0.01,-35.06,16.37,13.5,0.74,-0.15,-0.65,0.01,1066
2150,9.44,-2.31,1.08,0.01,0.02,-0.0,-35.06,16.37,13.5,0.74,-0.15,-0.65,0.01,1067
2151,9.42,-2.28,1.1,0.01,0.02,-0.0,-35.06,16.37,13.5,0.74,-0.15,-0.65,0.01,1068
2152,9.42,-2.28,1.1,0.01,0.02,-0.01,-35.88,16.37,12.25,0.74,-0.15,-0.65,0.01,1069
2153,9.44,-2.31,1.06,0.02,0.03,-0.01,-35.88,16.37,12.25,0.74,-0.15,-0.65,0.01,1070
2154,9.45,-2.35,1.04,0.0,0.05,-0.01,-35.88,16.37,12.25,0.74,-0.14,-0.65,0.01,1071
2155,9.49,-2.31,1.05,-0.01,0.07,-0.01,-35.88,16.37,12.25,0.74,-0.15,-0.65,0.01,1072
2156,9.47,-2.27,1.07,-0.03,0.08,-0.01,-35.88,16.37,12.25,0.74,-0.15,-0.65,0.01,1073
2157,9.45,-2.21,1.08,-0.04,0.09,-0.02,-36.19,16.37,12.69,0.74,-0.15,-0.65,0.01,1074
2158,9.48,-2.16,1.02,-0.04,0.1,-0.01,-36.19,16.37,12.69,0.74,-0.15,-0.65,0.01,1075
2159,9.38,-2.11,0.92,-0.0,0.13,0.0,-36.19,16.37,12.69,0.75,-0.15,-0.65,0.01,1076
2160,9.29,-2.09,0.78,-0.0,0.13,0.0,-36.19,16.37,12.69,0.75,-0.15,-0.65,0.01,1077
2161,9.19,-2.11,0.63,0.01,0.15,0.0,-36.19,16.37,12.69,0.75,-0.15,-0.65,0.01,1078
2162,9.16,-2.1,0.55,0.02,0.17,0.01,-36.88,16.0,12.75,0.75,-0.15,-0.65,0.01,1079
2163,9.33,-2.0,0.26,0.03,0.2,0.01,-36.88,16.0,12.75,0.75,-0.15,-0.65,0.01,1080
2164,9.45,-1.92,0.23,0.07,0.25,0.02,-36.88,16.0,12.75,0.75,-0.14,-0.65,0.01,1081
2165,9.54,-1.82,0.35,0.13,0.28,0.02,-36.88,16.0,12.75,0.75,-0.14,-0.65,0.01,1082
2166,9.59,-1.82,0.47,0.2,0.3,0.03,-36.88,16.0,12.75,0.75,-0.14,-0.65,0.01,1083
2167,9.49,-2.11,0.6,0.26,0.31,0.04,-36.19,17.06,12.75,0.75,-0.14,-0.64,0.01,1084
2168,9.49,-2.11,0.6,0.28,0.33,0.05,-36.19,17.06,12.75,0.75,-0.14,-0.64,0.01,1085
2169,9.44,-2.3,0.83,0.28,0.34,0.04,-36.19,17.06,12.75,0.75,-0.14,-0.64,0.01,1086
2170,9.41,-2.16,0.92,0.27,0.34,0.04,-36.19,17.06,12.75,0.75,-0.14,-0.64,0.01,1087
2171,9.41,-2.16,0.92,0.26,0.35,0.04,-36.19,17.06,12.75,0.76,-0.14,-0.64,0.01,1088
2172,9.39,-2.09,1.03,0.27,0.35,0.05,-37.69,17.06,11.56,0.76,-0.14,-0.64,0.01,1089
2173,9.39,-2.09,1.03,0.27,0.35,0.05,-37.69,17.06,11.56,0.76,-0.14,-0.64,0.02,1090
2174,9.37,-2.29,1.34,0.29,0.36,0.05,-37.69,17.06,11.56,0.76,-0.14,-0.64,0.02,1091
2175,9.39,-2.4,1.57,0.3,0.36,0.04,-37.69,17.06,11.56,0.76,-0.14,-0.63,0.02,1092
2176,9.38,-2.53,1.78,0.29,0.35,0.03,-37.69,17.06,11.56,0.76,-0.14,-0.63,0.02,1093
2177,9.36,-2.63,2.05,0.3,0.35,0.02,-37.25,16.37,12.06,0.76,-0.13,-0.63,0.02,1094
2178,9.12,-2.87,2.28,0.31,0.33,0.01,-37.25,16.37,12.06,0.77,-0.13,-0.63,0.02,1095
2179,9.03,-2.88,2.37,0.32,0.31,0.01,-37.25,16.37,12.06,0.77,-0.13,-0.63,0.02,1096
2180,9.0,-2.86,2.51,0.32,0.29,-0.01,-37.25,16.37,12.06,0.77,-0.13,-0.63,0.02,1097
2181,9.21,-2.95,2.5,0.33,0.27,-0.01,-37.25,16.37,12.06,0.77,-0.13,-0.63,0.02,1098
2182,9.21,-2.95,2.5,0.32,0.26,-0.03,-38.0,16.25,8.5,0.77,-0.13,-0.63,0.02,1099
2183,9.25,-2.81,2.43,0.31,0.25,-0.04,-38.0,16.25,8.5,0.77,-0.13,-0.62,0.02,1100
2184,9.25,-2.73,2.32,0.3,0.24,-0.06,-38.0,16.25,8.5,0.77,-0.13,-0.62,0.02,1101
2185,9.26,-2.68,2.17,0.3,0.22,-0.09,-38.0,16.25,8.5,0.77,-0.12,-0.62,0.02,1102
2186,9.24,-2.65,2.14,0.3,0.22,-0.09,-38.0,16.25,8.5,0.77,-0.12,-0.62,0.02,1103
2187,9.27,-2.43,2.04,0.23,0.22,-0.13,-37.69,17.56,8.88,0.78,-0.12,-0.62,0.03,1104
2188,9.27,-2.43,2.04,0.23,0.22,-0.13,-37.69,17.56,8.88,0.78,-0.12,-0.62,0.03,1105
2189,9.3,-2.34,2.09,0.22,0.23,-0.14,-37.69,17.56,8.88,0.78,-0.12,-0.62,0.03,1106
2190,9.35,-2.28,2.22,0.21,0.22,-0.15,-38.0,17.19,8.5,0.78,-0.12,-0.62,0.03,1107
2191,9.36,-2.27,2.41,0.21,0.21,-0.16,-38.0,17.19,8.5,0.78,-0.12,-0.62,0.03,1108
2192,9.33,-2.29,2.56,0.21,0.19,-0.15,-38.0,17.19,8.5,0.78,-0.11,-0.62,0.03,1109
2193,9.26,-2.25,2.6,0.21,0.19,-0.15,-38.0,17.19,8.5,0.78,-0.11,-0.62,0.03,1110
2194,9.15,-2.16,2.6,0.21,0.19,-0.17,-38.0,17.19,8.5,0.78,-0.11,-0.61,0.03,1111
2195,9.06,-2.12,2.48,0.21,0.19,-0.18,-38.0,17.19,8.5,0.78,-0.11,-0.61,0.03,1112
2196,9.08,-2.01,2.43,0.23,0.18,-0.18,-36.88,16.87,7.75,0.78,-0.11,-0.61,0.02,1113
2197,9.17,-1.83,2.45,0.25,0.17,-0.18,-36.88,16.87,7.75,0.78,-0.11,-0.61,0.03,1114
2198,9.24,-1.58,2.43,0.28,0.16,-0.18,-36.88,16.87,7.75,0.78,-0.11,-0.61,0.03,1115
2199,9.38,-1.54,2.31,0.35,0.15,-0.19,-36.88,16.87,7.75,0.78,-0.1,-0.61,0.03,1116
2200,9.31,-1.68,2.27,0.49,0.15,-0.18,-37.75,16.87,8.06,0.79,-0.1,-0.61,0.03,1117
2201,9.25,-1.77,2.27,0.5,0.15,-0.17,-37.75,16.87,8.06,0.79,-0.1,-0.61,0.03,1118
2202,9.2,-1.7,2.32,0.51,0.15,-0.16,-37.75,16.87,8.06,0.79,-0.1,-0.61,0.03,1119
2203,9.2,-1.63,2.37,0.53,0.14,-0.16,-37.75,16.87,8.06,0.79,-0.09,-0.61,0.03,1120
2204,9.24,-1.58,2.45,0.54,0.13,-0.17,-37.75,16.87,8.06,0.79,-0.09,-0.61,0.03,1121
2205,9.35,-1.7,2.45,0.55,0.13,-0.17,-38.0,16.75,6.87,0.79,-0.09,-0.61,0.03,1122
2206,9.3,-1.74,2.47,0.51,0.13,-0.17,-38.0,16.75,6.87,0.79,-0.09,-0.61,0.03,1123
2207,9.27,-1.8,2.4,0.46,0.14,-0.17,-38.0,16.75,6.87,0.79,-0.08,-0.61,0.03,1124
2208,9.24,-1.81,2.38,0.39,0.15,-0.17,-38.0,16.75,6.87,0.79,-0.08,-0.61,0.03,1125
2209,9.24,-1.81,2.38,0.32,0.16,-0.16,-38.0,16.75,6.87,0.79,-0.08,-0.61,0.03,1126
2210,9.33,-1.23,2.46,0.29,0.16,-0.16,-38.38,16.37,5.69,0.79,-0.08,-0.61,0.03,1127
2211,9.33,-1.23,2.46,0.29,0.16,-0.16,-38.38,16.37,5.69,0.79,-0.08,-0.61,0.03,1128
2212,9.2,-1.14,2.51,0.35,0.16,-0.16,-38.38,16.37,5.69,0.79,-0.07,-0.6,0.03,1129
2213,9.08,-1.27,2.44,0.37,0.15,-0.14,-38.38,16.37,5.69,0.79,-0.07,-0.6,0.03,1130
2214,9.08,-1.27,2.44,0.34,0.16,-0.14,-38.38,16.37,5.69,0.79,-0.07,-0.6,0.03,1131
2215,9.3,-1.41,2.37,0.3,0.16,-0.15,-38.75,16.06,5.0,0.79,-0.07,-0.6,0.03,1132
2216,9.3,-1.41,2.37,0.3,0.16,-0.15,-38.75,16.06,5.0,0.79,-0.07,-0.6,0.03,1133
2217,9.53,-1.65,2.52,0.13,0.18,-0.15,-38.75,16.06,5.0,0.8,-0.07,-0.6,0.03,1134
2218,9.4,-1.39,2.53,-0.0,0.2,-0.15,-38.75,16.06,5.0,0.8,-0.07,-0.6,0.03,1135
2219,9.22,-1.09,2.56,-0.12,0.22,-0.14,-38.75,16.06,5.0,0.8,-0.07,-0.6,0.03,1136
2220,9.19,-0.41,2.43,-0.19,0.23,-0.13,-37.25,16.25,4.19,0.8,-0.07,-0.6,0.03,1137
2221,9.36,-0.34,2.43,-0.18,0.24,-0.11,-37.25,16.25,4.19,0.8,-0.07,-0.6,0.03,1138
2222,9.45,-0.44,2.46,-0.11,0.23,-0.07,-37.25,16.25,4.19,0.8,-0.07,-0.6,0.03,1139
2223,9.44,-0.62,2.5,-0.05,0.24,-0.04,-37.25,16.25,4.19,0.8,-0.07,-0.6,0.03,1140
2224,9.27,-0.92,2.77,-0.03,0.25,-0.03,-37.25,16.25,4.19,0.8,-0.07,-0.6,0.03,1141
2225,9.27,-0.92,2.77,-0.05,0.25,-0.01,-38.5,15.56,4.56,0.8,-0.07,-0.59,0.03,1142
2226,9.27,-1.14,2.78,-0.12,0.26,-0.01,-38.5,15.56,4.56,0.8,-0.07,-0.59,0.03,1143
2227,9.31,-1.31,2.61,-0.17,0.27,-0.01,-38.5,15.56,4.56,0.8,-0.07,-0.59,0.03,1144
2228,9.35,-1.24,2.53,-0.26,0.28,0.0,-38.5,15.56,4.56,0.8,-0.07,-0.59,0.03,1145
2229,9.34,-1.17,2.33,-0.26,0.28,0.0,-38.5,15.56,4.56,0.8,-0.07,-0.59,0.03,1146
2230,9.27,-1.15,2.13,-0.22,0.29,0.02,-39.19,16.19,5.25,0.81,-0.07,-0.59,0.03,1147
2231,9.15,-1.13,1.87,-0.17,0.3,0.03,-39.19,16.19,5.25,0.81,-0.07,-0.59,0.03,1148
2232,9.17,-1.21,1.83,-0.15,0.32,0.03,-39.19,16.19,5.25,0.81,-0.07,-0.59,0.03,1149
2233,9.19,-1.14,1.91,-0.12,0.34,0.06,-39.19,16.19,5.25,0.81,-0.08,-0.58,0.02,1150
2234,9.2,-0.94,2.08,-0.11,0.36,0.08,-39.19,16.19,5.25,0.81,-0.08,-0.58,0.02,1151
2235,9.05,-0.43,2.55,-0.08,0.38,0.09,-38.38,16.06,4.56,0.81,-0.08,-0.58,0.02,1152
2236,9.04,-0.3,2.8,-0.06,0.4,0.11,-38.38,16.06,4.56,0.81,-0.08,-0.58,0.02,1153
2237,9.04,-0.3,2.8,-0.02,0.4,0.12,-38.38,16.06,4.56,0.81,-0.08,-0.58,0.03,1154
2238,8.94,-0.73,3.25,0.0,0.4,0.13,-38.38,16.06,4.56,0.81,-0.08,-0.58,0.03,1155
2239,8.9,-0.81,3.14,-0.01,0.4,0.13,-38.38,16.06,4.56,0.81,-0.08,-0.58,0.03,1156
2240,8.89,-1.03,3.01,-0.02,0.39,0.13,-38.38,16.0,3.69,0.81,-0.08,-0.57,0.03,1157
2241,8.89,-1.28,2.96,0.0,0.4,0.12,-38.38,16.0,3.69,0.82,-0.08,-0.57,0.03,1158
2242,9.22,-1.72,3.19,-0.01,0.4,0.13,-38.38,16.0,3.69,0.82,-0.08,-0.57,0.03,1159
2243,9.36,-1.86,3.36,-0.03,0.41,0.13,-38.38,16.0,3.69,0.82,-0.08,-0.57,0.03,1160
2244,9.21,-1.83,3.46,-0.11,0.42,0.13,-39.06,15.56,1.69,0.82,-0.08,-0.57,0.03,1161
2245,9.21,-1.83,3.46,-0.11,0.42,0.13,-39.06,15.56,1.69,0.82,-0.08,-0.57,0.03,1162
2246,9.02,-1.39,3.34,-0.2,0.44,0.13,-39.06,15.56,1.69,0.82,-0.08,-0.56,0.03,1163
2247,9.02,-1.39,3.34,-0.2,0.44,0.13,-39.06,15.56,1.69,0.82,-0.08,-0.56,0.03,1164
2248,9.29,-1.1,3.12,-0.26,0.45,0.16,-39.06,15.56,1.69,0.82,-0.09,-0.56,0.03,1165
2249,9.29,-1.1,3.12,-0.26,0.45,0.16,-39.06,15.56,1.69,0.83,-0.09,-0.56,0.03,1166
2250,9.38,-0.93,2.98,-0.29,0.48,0.18,-37.25,16.37,1.06,0.83,-0.09,-0.56,0.03,1167
2251,9.44,-0.98,2.7,-0.3,0.5,0.19,-37.25,16.37,1.06,0.83,-0.09,-0.55,0.03,1168
2252,9.67,-1.03,2.23,-0.31,0.52,0.19,-37.25,16.37,1.06,0.83,-0.1,-0.55,0.03,1169
2253,9.78,-1.1,2.07,-0.32,0.55,0.21,-37.25,16.37,1.06,0.83,-0.1,-0.55,0.03,1170
2254,9.8,-1.21,1.97,-0.32,0.59,0.23,-38.5,17.5,1.25,0.83,-0.1,-0.54,0.02,1171
2255,9.72,-1.32,1.92,-0.31,0.64,0.27,-38.5,17.5,1.25,0.83,-0.1,-0.54,0.02,1172
2256,9.57,-1.8,1.96,-0.26,0.76,0.34,-38.5,17.5,1.25,0.84,-0.1,-0.54,0.03,1173
2257,9.5,-2.1,2.0,-0.26,0.76,0.34,-38.5,17.5,1.25,0.84,-0.1,-0.54,0.03,1174
2258,9.45,-2.19,1.99,-0.26,0.83,0.39,-38.5,17.5,1.25,0.84,-0.11,-0.53,0.03,1175
2259,9.47,-2.26,2.06,-0.26,0.9,0.42,-39.19,16.75,-1.37,0.84,-0.11,-0.53,0.03,1176
2260,9.51,-2.29,1.86,-0.26,0.95,0.45,-39.19,16.75,-1.37,0.84,-0.11,-0.53,0.03,1177
2261,9.53,-2.08,1.97,-0.26,1.0,0.48,-39.19,16.75,-1.37,0.85,-0.11,-0.52,0.03,1178
2262,9.81,-1.93,2.05,-0.3,1.1,0.48,-39.19,16.75,-1.37,0.85,-0.11,-0.52,0.03,1179
2263,9.81,-1.93,2.05,-0.39,1.12,0.45,-39.19,16.75,-1.37,0.85,-0.12,-0.51,0.03,1180
2264,9.78,-2.1,1.62,-0.51,1.21,0.45,-37.06,17.56,-2.06,0.85,-0.12,-0.51,0.03,1181
2265,9.78,-2.1,1.62,-0.63,1.28,0.53,-37.06,17.56,-2.06,0.86,-0.13,-0.5,0.03,1182
2266,11.11,-0.98,1.59,-0.74,1.32,0.58,-37.06,17.56,-2.06,0.86,-0.13,-0.5,0.03,1183
2267,13.22,-0.51,0.8,-0.77,1.38,0.57,-37.06,17.56,-2.06,0.86,-0.13,-0.49,0.03,1184
2268,13.79,-1.63,0.24,-0.55,1.5,0.58,-37.06,17.56,-2.06,0.87,-0.14,-0.48,0.03,1185
2269,13.82,-2.59,-0.25,-0.29,1.67,0.65,-37.25,18.0,-5.75,0.87,-0.14,-0.48,0.03,1186
2270,13.35,-3.04,-0.64,-0.18,1.83,0.67,-37.25,18.0,-5.75,0.88,-0.15,-0.46,0.03,1187
2271,11.95,-3.46,-1.06,-0.22,1.99,0.56,-37.25,18.0,-5.75,0.88,-0.15,-0.46,0.03,1188
2272,11.57,-3.41,-0.97,-0.35,2.14,0.43,-37.25,18.0,-5.75,0.88,-0.15,-0.45,0.03,1189
2273,11.49,-2.98,-0.93,-0.57,2.26,0.35,-37.25,18.0,-5.75,0.88,-0.15,-0.44,0.03,1190
2274,12.18,-1.79,-0.82,-0.84,2.31,0.31,-37.56,19.37,-7.37,0.89,-0.16,-0.43,0.03,1191
2275,12.68,-1.43,0.14,-1.09,2.32,0.26,-37.56,19.37,-7.37,0.9,-0.17,-0.41,0.02,1192
2276,13.01,-1.26,1.77,-1.19,2.33,0.27,-37.56,19.37,-7.37,0.9,-0.17,-0.41,0.02,1193
2277,13.01,-1.26,1.77,-1.17,2.35,0.36,-37.56,19.37,-7.37,0.9,-0.17,-0.4,0.02,1194
2278,11.75,-0.46,5.28,-1.2,2.38,0.39,-37.56,19.37,-7.37,0.9,-0.18,-0.39,0.02,1195
2279,11.75,-0.46,5.28,-1.2,2.38,0.39,-36.06,20.19,-10.88,0.91,-0.19,-0.38,0.01,1196
2280,10.28,-0.29,8.22,-0.95,2.32,0.34,-36.06,20.19,-10.88,0.91,-0.19,-0.37,0.01,1197
2281,9.6,-0.69,8.78,-0.51,2.14,0.41,-36.06,20.19,-10.88,0.91,-0.2,-0.36,0.01,1198
2282,8.13,-1.92,9.02,-0.23,1.97,0.47,-36.06,20.19,-10.88,0.92,-0.2,-0.34,0.01,1199
2283,7.44,-2.59,8.99,0.0,1.81,0.46,-36.06,20.19,-10.88,0.92,-0.2,-0.34,0.01,1200
2284,6.97,-3.02,8.67,0.09,1.62,0.39,-34.19,21.25,-13.56,0.92,-0.2,-0.33,0.01,1201
2285,6.93,-2.99,8.61,0.03,1.42,0.3,-34.19,21.25,-13.56,0.92,-0.2,-0.33,0.01,1202
2286,6.93,-2.99,8.61,-0.04,1.21,0.24,-34.19,21.25,-13.56,0.93,-0.2,-0.32,0.01,1203
2287,6.12,-2.29,8.17,-0.08,0.77,0.19,-34.19,21.25,-13.56,0.93,-0.2,-0.31,0.01,1204
2288,6.12,-2.29,8.17,-0.16,0.54,0.01,-33.0,21.75,-17.25,0.93,-0.2,-0.31,0.01,1205
2289,6.35,-1.93,6.43,0.05,0.22,-0.17,-33.0,21.75,-17.25,0.93,-0.2,-0.31,0.01,1206
2290,6.26,-2.0,7.0,0.39,-0.13,-0.21,-33.0,21.75,-17.25,0.93,-0.2,-0.31,0.01,1207
2291,5.96,-2.03,7.38,0.67,-0.45,-0.18,-33.0,21.75,-17.25,0.93,-0.19,-0.31,0.01,1208
2292,5.26,-2.45,7.55,0.81,-0.73,-0.19,-33.0,21.75,-17.25,0.93,-0.19,-0.31,0.01,1209
2293,5.11,-2.72,7.65,0.91,-1.01,-0.29,-32.88,20.75,-18.5,0.93,-0.18,-0.33,0.01,1210
2294,4.99,-2.89,7.72,0.94,-1.29,-0.4,-32.88,20.75,-18.5,0.93,-0.18,-0.33,0.01,1211
2295,4.74,-3.11,7.53,0.86,-1.54,-0.53,-32.88,20.75,-18.5,0.93,-0.18,-0.33,0.01,1212
2296,4.63,-3.17,7.42,0.74,-1.77,-0.64,-32.88,20.75,-18.5,0.92,-0.17,-0.35,0.01,1213
2297,4.61,-3.23,7.3,0.64,-1.99,-0.72,-32.88,20.75,-18.5,0.92,-0.17,-0.35,0.01,1214
2298,4.71,-3.28,7.16,0.55,-2.2,-0.79,-34.38,20.19,-18.0,0.92,-0.16,-0.36,0.01,1215
2299,4.97,-3.39,6.63,0.43,-2.39,-0.86,-34.38,20.19,-18.0,0.91,-0.16,-0.37,0.01,1216
2300,4.99,-3.11,6.41,0.02,-2.96,-1.03,-34.38,20.19,-18.0,0.9,-0.15,-0.41,0.0,1217
2301,4.99,-3.11,6.41,0.02,-2.96,-1.03,-34.38,20.19,-18.0,0.9,-0.15,-0.41,0.0,1218
2302,4.81,-2.76,6.3,-0.04,-3.27,-1.13,-37.5,19.06,-13.06,0.89,-0.15,-0.44,-0.0,1219
2303,4.84,-2.67,6.25,-0.04,-3.27,-1.13,-37.5,19.06,-13.06,0.88,-0.15,-0.46,-0.0,1220
2304,4.94,-2.61,6.04,0.01,-3.41,-1.19,-37.5,19.06,-13.06,0.88,-0.15,-0.46,-0.0,1221
2305,5.25,-2.72,5.9,0.21,-3.69,-1.28,-37.5,19.06,-13.06,0.86,-0.14,-0.49,-0.01,1222
2306,5.41,-2.82,5.89,0.21,-3.69,-1.28,-37.5,19.06,-13.06,0.86,-0.14,-0.49,-0.01,1223
2307,5.64,-2.92,5.75,0.31,-3.81,-1.3,-40.69,16.19,-8.75,0.84,-0.13,-0.52,-0.01,1224
2308,5.86,-2.92,5.74,0.37,-3.92,-1.31,-40.69,16.19,-8.75,0.84,-0.13,-0.52,-0.01,1225
2309,6.28,-2.94,5.73,0.39,-4.03,-1.33,-40.69,16.19,-8.75,0.83,-0.13,-0.54,-0.02,1226
2310,6.44,-2.96,5.65,0.38,-4.13,-1.32,-40.69,16.19,-8.75,0.81,-0.12,-0.57,-0.02,1227
2311,6.6,-3.03,5.44,0.34,-4.22,-1.3,-40.69,16.19,-8.75,0.81,-0.12,-0.57,-0.02,1228
2312,6.68,-3.1,5.27,0.26,-4.31,-1.28,-44.25,14.19,-1.25,0.79,-0.11,-0.61,-0.02,1229
2313,6.72,-3.0,4.87,0.16,-4.39,-1.25,-44.25,14.19,-1.25,0.79,-0.11,-0.61,-0.02,1230
2314,6.72,-3.0,4.87,-0.01,-4.45,-1.2,-44.25,14.19,-1.25,0.77,-0.11,-0.63,-0.03,1231
2315,7.18,-2.73,4.46,-0.18,-4.47,-1.18,-44.25,14.19,-1.25,0.74,-0.1,-0.66,-0.03,1232
2316,8.22,-2.55,4.22,-0.3,-4.47,-1.15,-44.25,14.19,-1.25,0.74,-0.1,-0.66,-0.03,1233
2317,8.74,-2.45,3.99,-0.38,-4.47,-1.13,-44.25,12.19,7.69,0.73,-0.1,-0.68,-0.03,1234
2318,9.12,-2.32,3.62,-0.42,-4.46,-1.12,-44.25,12.19,7.69,0.71,-0.1,-0.69,-0.04,1235
2319,9.37,-2.16,3.31,-0.46,-4.42,-1.12,-44.25,12.19,7.69,0.68,-0.1,-0.72,-0.04,1236
2320,9.5,-1.92,2.71,-0.41,-4.36,-1.12,-44.25,12.19,7.69,0.68,-0.1,-0.72,-0.04,1237
2321,9.44,-1.67,1.72,-0.24,-4.27,-1.09,-44.25,12.19,7.69,0.67,-0.09,-0.74,-0.05,1238
2322,9.34,-1.32,1.23,-0.06,-4.13,-1.04,-43.25,10.88,17.87,0.65,-0.09,-0.75,-0.05,1239
2323,9.19,-1.25,0.15,0.16,-3.95,-0.98,-43.25,10.88,17.87,0.64,-0.09,-0.76,-0.05,1240
2324,8.75,-1.24,-1.52,0.4,-3.71,-0.9,-43.25,10.88,17.87,0.61,-0.08,-0.79,-0.05,1241
2325,8.42,-1.12,-2.68,0.57,-3.41,-0.78,-43.25,10.88,17.87,0.61,-0.08,-0.79,-0.05,1242
2326,7.88,-0.91,-4.09,0.47,-2.48,-0.56,-40.06,9.69,24.06,0.59,-0.07,-0.8,-0.04,1243
2327,6.45,-0.39,-7.28,0.47,-2.48,-0.56,-40.06,9.69,24.06,0.59,-0.07,-0.8,-0.04,1244
2328,5.76,0.02,-7.79,0.48,-1.09,-0.22,-40.06,9.69,24.06,0.58,-0.07,-0.81,-0.04,1245
2329,5.39,0.33,-7.3,0.48,-1.09,-0.22,-40.06,9.69,24.06,0.58,-0.07,-0.81,-0.04,1246
2330,5.23,0.39,-6.02,0.69,-0.33,-0.03,-40.06,9.69,24.06,0.58,-0.07,-0.81,-0.04,1247
2331,5.42,-0.04,-2.23,1.0,0.36,0.11,-40.06,9.69,24.06,0.58,-0.06,-0.81,-0.03,1248
2332,5.69,-0.55,-0.41,1.34,0.98,0.22,-36.06,9.5,27.75,0.58,-0.06,-0.81,-0.03,1249
2333,6.0,-1.02,1.05,1.64,1.48,0.34,-36.06,9.5,27.75,0.6,-0.05,-0.8,-0.01,1250
2334,6.22,-1.35,2.32,1.78,1.9,0.41,-36.06,9.5,27.75,0.6,-0.05,-0.8,-0.01,1251
2335,6.42,-3.37,3.9,1.87,2.3,0.42,-36.06,9.5,27.75,0.61,-0.05,-0.79,-0.01,1252
2336,7.68,-3.79,2.82,1.72,2.73,0.45,-36.06,9.5,27.75,0.62,-0.05,-0.78,0.0,1253
2337,7.68,-3.79,2.82,0.58,2.08,0.27,-37.25,12.5,25.37,0.63,-0.05,-0.78,0.0,1254
2338,21.64,-0.48,-6.73,0.58,2.08,0.27,-37.25,12.5,25.37,0.63,-0.05,-0.77,0.01,1255
2339,26.06,1.96,-4.85,-0.05,0.69,-0.67,-37.25,12.5,25.37,0.64,-0.04,-0.77,0.0,1256
2340,26.83,6.06,-0.89,0.22,1.05,-0.16,-37.25,12.5,25.37,0.65,-0.04,-0.76,0.01,1257
2341,21.61,7.68,1.89,1.91,2.24,0.7,-37.25,12.5,25.37,0.65,-0.04,-0.76,0.01,1258
2342,10.36,-0.61,0.23,3.73,2.68,0.88,-39.25,13.38,21.75,0.67,-0.02,-0.74,0.04,1259
2343,3.22,-9.41,4.54,2.44,2.1,0.16,-39.25,13.38,21.75,0.69,-0.0,-0.73,0.06,1260
2344,2.24,-12.4,7.31,2.44,2.1,0.16,-39.25,13.38,21.75,0.69,-0.0,-0.72,0.07,1261
2345,5.22,-11.02,7.95,0.97,1.94,0.39,-39.25,13.38,21.75,0.69,-0.0,-0.72,0.07,1262
2346,6.51,-7.91,7.49,-0.63,1.81,0.1,-41.06,16.0,17.06,0.7,-0.01,-0.71,0.07,1263
2347,7.54,-4.34,6.64,-1.71,1.69,-0.28,-41.06,16.0,17.06,0.7,-0.01,-0.71,0.06,1264
2348,9.0,-0.76,6.11,-2.11,1.53,-0.37,-41.06,16.0,17.06,0.71,-0.02,-0.7,0.04,1265
2349,11.13,4.46,6.14,-1.75,1.35,-0.25,-41.06,16.0,17.06,0.71,-0.02,-0.7,0.04,1266
2350,11.32,5.4,5.95,-1.03,1.19,-0.1,-41.06,16.0,17.06,0.72,-0.03,-0.69,0.04,1267
2351,11.18,5.09,5.36,-0.28,1.06,-0.08,-41.75,16.56,13.5,0.72,-0.03,-0.69,0.04,1268
2352,11.18,5.09,5.36,0.27,0.95,-0.16,-41.75,16.56,13.5,0.72,-0.03,-0.69,0.04,1269
2353,10.4,-0.86,1.85,0.42,0.87,-0.16,-41.75,16.56,13.5,0.73,-0.02,-0.68,0.04,1270
2354,9.91,-1.93,1.54,0.31,0.83,-0.02,-41.75,16.56,13.5,0.73,-0.02,-0.68,0.04,1271
2355,9.91,-1.93,1.54,0.19,0.81,0.1,-41.75,16.56,13.5,0.73,-0.02,-0.68,0.04,1272
2356,9.64,-0.41,1.22,0.26,0.77,0.03,-42.88,15.06,10.25,0.74,-0.02,-0.68,0.04,1273
2357,9.64,-0.41,1.22,0.26,0.77,0.03,-42.88,15.06,10.25,0.74,-0.02,-0.67,0.04,1274
2358,10.34,-1.77,0.73,0.33,0.73,-0.02,-42.88,15.06,10.25,0.74,-0.02,-0.67,0.04,1275
2359,10.41,-2.19,0.65,0.06,0.76,0.0,-42.88,15.06,10.25,0.74,-0.02,-0.67,0.04,1276
2360,9.54,-1.64,0.54,-0.32,0.81,-0.03,-42.88,15.06,10.25,0.75,-0.02,-0.66,0.04,1277
2361,9.12,-1.0,0.57,-0.66,0.84,-0.06,-45.06,15.25,9.5,0.75,-0.02,-0.66,0.04,1278
2362,9.05,-0.31,0.54,-0.84,0.86,-0.05,-45.06,15.25,9.5,0.75,-0.03,-0.66,0.03,1279
2363,9.48,0.47,0.63,-0.84,0.86,-0.04,-45.06,15.25,9.5,0.75,-0.03,-0.66,0.03,1280
2364,9.67,0.57,0.72,-0.75,0.86,-0.02,-45.06,15.25,9.5,0.76,-0.03,-0.65,0.03,1281
2365,9.71,0.61,0.75,-0.67,0.86,0.01,-45.06,15.25,9.5,0.76,-0.03,-0.65,0.03,1282
2366,9.71,0.61,0.75,-0.58,0.87,0.03,-44.25,15.25,8.0,0.76,-0.04,-0.65,0.03,1283
2367,9.49,0.23,0.88,-0.48,0.87,0.07,-44.25,15.25,8.0,0.77,-0.04,-0.64,0.02,1284
2368,9.41,0.29,0.93,-0.42,0.87,0.09,-44.25,15.25,8.0,0.77,-0.04,-0.64,0.02,1285
2369,9.41,0.29,0.93,-0.32,0.89,0.11,-44.25,15.25,8.0,0.77,-0.04,-0.64,0.02,1286
2370,9.31,0.44,1.22,-0.17,0.91,0.14,-44.25,15.25,8.0,0.77,-0.04,-0.63,0.02,1287
2371,9.31,0.44,1.22,-0.17,0.91,0.14,-44.25,15.25,8.0,0.77,-0.04,-0.63,0.02,1288
2372,9.1,-0.49,1.99,0.14,0.92,0.21,-44.56,15.69,6.0,0.78,-0.04,-0.63,0.03,1289
2373,9.04,-1.04,2.01,0.17,0.94,0.23,-44.56,15.69,6.0,0.78,-0.04,-0.62,0.03,1290
2374,8.85,-1.59,1.88,0.15,0.95,0.23,-44.56,15.69,6.0,0.79,-0.05,-0.62,0.03,1291
2375,8.8,-1.54,1.82,0.06,0.98,0.21,-44.56,15.69,6.0,0.79,-0.05,-0.62,0.03,1292
2376,8.84,-1.28,1.86,-0.02,1.02,0.18,-45.25,16.0,5.0,0.79,-0.05,-0.61,0.03,1293
2377,8.95,-1.13,2.07,-0.05,1.05,0.17,-45.25,16.0,5.0,0.79,-0.05,-0.61,0.03,1294
2378,8.95,-1.13,2.07,-0.06,1.07,0.18,-45.25,16.0,5.0,0.8,-0.05,-0.6,0.03,1295
2379,9.3,-1.28,2.52,-0.13,1.09,0.19,-45.25,16.0,5.0,0.8,-0.05,-0.6,0.03,1296
2380,9.41,-1.22,2.57,-0.23,1.11,0.18,-45.25,16.0,5.0,0.8,-0.05,-0.6,0.03,1297
2381,9.51,-1.14,2.52,-0.32,1.12,0.17,-44.56,16.0,2.56,0.8,-0.05,-0.59,0.03,1298
2382,9.56,-1.09,2.19,-0.39,1.14,0.17,-44.56,16.0,2.56,0.81,-0.05,-0.59,0.03,1299
2383,9.63,-1.14,1.98,-0.46,1.18,0.17,-44.56,16.0,2.56,0.81,-0.06,-0.58,0.03,1300
2384,9.64,-1.2,1.9,-0.51,1.23,0.18,-44.56,16.0,2.56,0.81,-0.06,-0.58,0.03,1301
2385,9.78,-1.48,1.76,-0.57,1.28,0.2,-44.56,16.0,2.56,0.82,-0.06,-0.57,0.02,1302
2386,9.91,-1.09,1.7,-0.73,1.36,0.21,-46.5,17.5,-0.19,0.83,-0.07,-0.56,0.02,1303
2387,9.95,-0.76,1.71,-0.74,1.41,0.24,-46.5,17.5,-0.19,0.83,-0.07,-0.56,0.02,1304
2388,9.95,-0.76,1.71,-0.74,1.48,0.26,-46.5,17.5,-0.19,0.83,-0.08,-0.55,0.02,1305
2389,9.83,-0.73,1.51,-0.75,1.56,0.29,-46.5,17.5,-0.19,0.84,-0.08,-0.54,0.02,1306
2390,9.83,-0.73,1.51,-0.75,1.56,0.29,-45.25,16.87,-1.56,0.84,-0.09,-0.54,0.02,1307
2391,9.8,-0.64,1.76,-0.86,1.73,0.38,-45.25,16.87,-1.56,0.85,-0.1,-0.52,0.01,1308
2392,9.83,-1.4,1.82,-0.83,1.79,0.46,-45.25,16.87,-1.56,0.85,-0.1,-0.52,0.01,1309
2393,9.82,-2.14,1.76,-0.59,1.87,0.61,-45.25,16.87,-1.56,0.86,-0.1,-0.51,0.01,1310
2394,9.82,-2.53,1.64,-0.59,1.87,0.61,-45.25,16.87,-1.56,0.86,-0.1,-0.51,0.01,1311
2395,9.86,-2.56,1.07,-0.58,1.92,0.58,-43.5,18.0,-5.75,0.86,-0.11,-0.49,0.01,1312
2396,10.01,-2.55,0.72,-0.6,1.98,0.55,-43.5,18.0,-5.75,0.86,-0.11,-0.49,0.01,1313
2397,10.18,-2.58,0.23,-0.63,2.04,0.56,-43.5,18.0,-5.75,0.87,-0.12,-0.48,0.01,1314
2398,10.39,-2.61,-0.26,-0.67,2.13,0.55,-43.5,18.0,-5.75,0.88,-0.12,-0.46,0.01,1315
2399,11.25,-2.5,-0.67,-0.78,2.24,0.5,-43.5,18.0,-5.75,0.88,-0.12,-0.46,0.01,1316
2400,15.36,-0.66,-2.04,-1.33,2.74,0.3,-42.19,19.25,-7.87,0.89,-0.14,-0.43,0.0,1317
2401,15.36,-0.66,-2.04,-1.33,2.74,0.3,-42.19,19.25,-7.87,0.9,-0.15,-0.42,-0.0,1318
2402,18.95,-1.72,-4.28,-1.44,2.92,0.3,-42.19,19.25,-7.87,0.9,-0.15,-0.42,-0.0,1319
2403,19.91,-2.1,-4.13,-1.95,3.07,0.19,-40.56,20.06,-12.56,0.91,-0.17,-0.39,-0.01,1320
2404,19.91,-2.1,-4.13,-1.95,3.07,0.19,-40.56,20.06,-12.56,0.91,-0.17,-0.39,-0.01,1321
2405,17.42,1.02,0.07,-2.7,3.24,0.62,-40.56,20.06,-12.56,0.91,-0.19,-0.36,-0.02,1322
2406,15.76,2.59,1.36,-2.7,3.24,0.62,-40.56,20.06,-12.56,0.92,-0.2,-0.34,-0.02,1323
2407,14.45,4.58,7.55,-2.58,3.22,0.8,-40.56,20.06,-12.56,0.92,-0.2,-0.34,-0.02,1324
2408,13.62,4.72,10.53,-1.54,2.88,0.98,-37.38,22.87,-17.0,0.92,-0.21,-0.32,-0.02,1325
2409,12.56,1.56,13.62,-0.73,2.48,1.06,-37.38,22.87,-17.0,0.92,-0.21,-0.32,-0.02,1326
2410,12.15,-0.57,11.31,-0.12,1.96,1.02,-37.38,22.87,-17.0,0.93,-0.22,-0.3,-0.02,1327
2411,11.19,-2.53,9.48,0.5,1.39,0.94,-37.38,22.87,-17.0,0.93,-0.22,-0.3,-0.02,1328
2412,9.34,-3.76,10.1,0.93,0.84,0.83,-37.38,22.87,-17.0,0.93,-0.21,-0.3,-0.01,1329
2413,5.53,-3.46,11.03,1.04,0.54,0.77,-37.38,22.87,-17.0,0.93,-0.21,-0.29,-0.01,1330
2414,3.87,-3.08,13.29,0.91,0.49,0.65,-33.19,25.5,-21.06,0.93,-0.21,-0.29,-0.01,1331
2415,2.8,-3.58,11.69,0.97,0.49,0.51,-33.19,25.5,-21.06,0.94,-0.2,-0.29,-0.0,1332
2416,3.85,-3.89,6.85,0.63,0.33,0.26,-33.19,25.5,-21.06,0.94,-0.2,-0.29,-0.0,1333
2417,3.85,-3.89,6.85,0.45,-0.22,-0.03,-33.19,25.5,-21.06,0.94,-0.2,-0.29,-0.0,1334
2418,6.38,-4.03,6.93,0.55,-0.84,-0.15,-33.19,25.5,-21.06,0.94,-0.2,-0.29,0.0,1335
2419,6.38,-4.03,6.93,0.57,-1.37,-0.15,-32.19,26.06,-23.0,0.94,-0.19,-0.3,0.0,1336
2420,4.45,-2.31,7.86,0.58,-1.77,-0.2,-32.19,26.06,-23.0,0.93,-0.19,-0.32,0.0,1337
2421,3.31,-1.91,8.04,0.7,-2.11,-0.3,-32.19,26.06,-23.0,0.93,-0.19,-0.32,0.0,1338
2422,2.54,-1.78,8.28,1.07,-2.63,-0.57,-32.19,26.06,-23.0,0.92,-0.17,-0.34,0.01,1339
2423,2.27,-1.87,8.49,1.07,-2.63,-0.57,-32.19,26.06,-23.0,0.92,-0.17,-0.34,0.01,1340
2424,3.12,-3.06,8.28,1.19,-2.83,-0.68,-33.06,25.25,-22.0,0.92,-0.16,-0.37,0.01,1341
2425,3.54,-3.61,7.93,1.27,-3.07,-0.77,-33.06,25.25,-22.0,0.92,-0.16,-0.37,0.01,1342
2426,3.74,-3.87,7.47,1.24,-3.31,-0.86,-33.06,25.25,-22.0,0.91,-0.15,-0.38,0.01,1343
2427,3.9,-4.09,7.69,1.14,-3.57,-0.93,-33.06,25.25,-22.0,0.9,-0.14,-0.42,0.01,1344
2428,3.71,-4.2,7.94,0.98,-3.84,-0.99,-33.06,25.25,-22.0,0.9,-0.14,-0.42,0.01,1345
2429,3.65,-4.12,7.85,0.72,-4.04,-1.03,-37.75,24.5,-19.25,0.88,-0.13,-0.45,0.01,1346
2430,3.68,-4.07,7.93,0.49,-4.27,-1.08,-37.75,24.5,-19.25,0.88,-0.13,-0.45,0.01,1347
2431,3.96,-3.84,7.57,-0.02,-4.63,-1.23,-37.75,24.5,-19.25,0.86,-0.12,-0.49,0.01,1348
2432,4.3,-3.66,7.47,-0.02,-4.63,-1.23,-37.75,24.5,-19.25,0.86,-0.12,-0.49,0.01,1349
2433,4.61,-3.49,7.49,-0.25,-4.8,-1.3,-37.75,24.5,-19.25,0.85,-0.12,-0.51,0.0,1350
2434,4.9,-3.36,7.45,-0.4,-4.92,-1.34,-42.88,21.56,-12.56,0.84,-0.12,-0.53,0.0,1351
2435,5.5,-2.92,7.16,-0.48,-5.02,-1.39,-42.88,21.56,-12.56,0.82,-0.12,-0.55,-0.0,1352
2436,5.78,-2.7,7.02,-0.49,-5.06,-1.46,-42.88,21.56,-12.56,0.79,-0.11,-0.6,-0.01,1353
2437,6.03,-2.54,6.48,-0.44,-5.08,-1.52,-42.88,21.56,-12.56,0.79,-0.11,-0.6,-0.01,1354
2438,6.3,-2.33,6.05,-0.3,-5.1,-1.54,-46.19,19.06,-2.25,0.76,-0.11,-0.64,-0.02,1355
2439,6.79,-2.13,5.48,-0.3,-5.1,-1.54,-46.19,19.06,-2.25,0.76,-0.11,-0.64,-0.02,1356
2440,7.1,-2.16,5.56,-0.08,-5.15,-1.37,-46.19,19.06,-2.25,0.73,-0.1,-0.67,-0.03,1357
2441,7.46,-2.23,5.64,-0.08,-5.15,-1.37,-46.19,19.06,-2.25,0.73,-0.1,-0.67,-0.03,1358
2442,8.49,-2.4,4.43,-0.1,-4.97,-1.28,-46.19,19.06,-2.25,0.7,-0.09,-0.71,-0.03,1359
2443,8.49,-2.4,4.43,-0.1,-4.97,-1.28,-46.19,19.06,-2.25,0.68,-0.09,-0.73,-0.03,1360
2444,9.03,-2.63,3.83,-0.08,-4.7,-1.11,-47.56,15.5,10.06,0.66,-0.09,-0.74,-0.03,1361
2445,9.03,-2.63,3.83,-0.12,-4.45,-1.05,-47.56,15.5,10.06,0.65,-0.09,-0.76,-0.04,1362
2446,9.38,-2.44,1.18,-0.08,-4.12,-1.0,-47.56,15.5,10.06,0.62,-0.08,-0.78,-0.04,1363
2447,8.97,-2.26,0.67,0.05,-3.74,-0.9,-47.56,15.5,10.06,0.62,-0.08,-0.78,-0.04,1364
2448,8.32,-2.01,0.09,0.22,-3.31,-0.74,-44.75,13.06,19.37,0.6,-0.08,-0.79,-0.04,1365
2449,6.67,-1.27,-1.28,0.34,-2.79,-0.56,-44.75,13.06,19.37,0.59,-0.07,-0.8,-0.04,1366
2450,5.91,-0.78,-1.92,0.37,-2.21,-0.39,-44.75,13.06,19.37,0.58,-0.07,-0.81,-0.04,1367
2451,5.4,-0.46,-2.29,0.44,-1.59,-0.22,-44.75,13.06,19.37,0.58,-0.07,-0.81,-0.04,1368
2452,5.08,-0.81,-2.2,0.63,-0.92,-0.05,-44.75,13.06,19.37,0.57,-0.07,-0.81,-0.03,1369
2453,4.88,-1.14,-1.79,0.86,-0.21,0.09,-39.19,11.0,26.25,0.57,-0.07,-0.82,-0.03,1370
2454,4.56,-1.57,-1.03,1.04,0.51,0.2,-39.19,11.0,26.25,0.58,-0.06,-0.81,-0.03,1371
2455,4.28,-2.05,-0.12,1.07,1.23,0.33,-39.19,11.0,26.25,0.59,-0.06,-0.81,-0.02,1372
2456,4.9,-1.95,3.32,0.96,1.84,0.5,-39.19,11.0,26.25,0.59,-0.06,-0.81,-0.02,1373
2457,4.9,-1.95,3.32,0.97,2.12,0.58,-39.19,11.0,26.25,0.6,-0.06,-0.8,-0.01,1374
2458,5.76,-1.86,5.92,1.2,2.19,0.5,-38.25,10.19,27.06,0.61,-0.06,-0.79,-0.01,1375
2459,5.76,-1.86,5.92,1.45,2.18,0.51,-38.25,10.19,27.06,0.62,-0.06,-0.79,0.0,1376
2460,11.28,-3.17,-3.2,1.58,1.9,0.53,-38.25,10.19,27.06,0.63,-0.05,-0.78,0.01,1377
2461,17.95,-0.86,-11.66,1.25,0.8,0.04,-38.25,10.19,27.06,0.63,-0.05,-0.78,0.01,1378
2462,24.88,2.4,-8.62,0.51,-0.63,-1.31,-38.25,10.19,27.06,0.62,-0.04,-0.78,0.01,1379
2463,33.08,8.5,2.22,0.2,-0.6,-1.45,-40.88,13.38,23.56,0.62,-0.04,-0.78,0.01,1380
2464,26.28,7.12,0.71,0.64,1.1,-0.25,-40.88,13.38,23.56,0.64,-0.03,-0.77,0.02,1381
2465,18.18,2.31,-2.52,3.14,2.33,0.84,-40.88,13.38,23.56,0.64,-0.03,-0.77,0.02,1382
2466,10.08,-3.62,-1.69,4.03,2.56,0.79,-40.88,13.38,23.56,0.65,-0.02,-0.76,0.04,1383
2467,-1.12,-13.54,4.9,3.04,2.48,0.07,-40.88,13.38,23.56,0.65,-0.01,-0.75,0.05,1384
2468,-1.29,-15.57,6.23,2.27,2.3,-0.1,-42.38,14.19,20.88,0.66,-0.0,-0.75,0.06,1385
2469,1.24,-13.79,7.15,1.09,2.11,0.3,-42.38,14.19,20.88,0.68,-0.01,-0.73,0.06,1386
2470,4.42,-9.84,8.07,-0.72,1.86,0.23,-42.38,14.19,20.88,0.68,-0.01,-0.73,0.06,1387
2471,4.42,-9.84,8.07,-2.18,1.68,-0.21,-42.38,14.19,20.88,0.68,-0.01,-0.73,0.05,1388
2472,12.39,2.08,7.51,-2.95,1.55,-0.38,-42.38,14.19,20.88,0.69,-0.02,-0.72,0.04,1389
2473,12.39,2.08,7.51,-2.95,1.55,-0.38,-45.19,17.56,15.25,0.69,-0.03,-0.72,0.03,1390
2474,12.25,7.57,6.58,-1.64,1.23,-0.21,-45.19,17.56,15.25,0.7,-0.03,-0.72,0.02,1391
2475,11.01,6.51,5.48,-0.69,1.13,-0.09,-45.19,17.56,15.25,0.7,-0.04,-0.71,0.02,1392
2476,10.01,3.06,3.92,0.21,1.0,-0.1,-45.19,17.56,15.25,0.71,-0.03,-0.71,0.02,1393
2477,9.83,-0.12,2.19,0.57,0.85,-0.17,-45.19,17.56,15.25,0.71,-0.03,-0.71,0.02,1394
2478,9.35,-3.45,0.52,0.47,0.74,-0.14,-46.69,15.69,13.0,0.71,-0.03,-0.7,0.02,1395
2479,8.86,-3.02,0.53,0.24,0.69,0.05,-46.69,15.69,13.0,0.71,-0.03,-0.7,0.02,1396
2480,8.95,-1.75,0.33,-0.01,0.68,0.15,-46.69,15.69,13.0,0.71,-0.03,-0.7,0.02,1397
2481,9.52,-1.14,-0.21,-0.11,0.65,0.0,-46.69,15.69,13.0,0.72,-0.03,-0.69,0.02,1398
2482,10.72,-1.06,-0.96,-0.14,0.65,-0.05,-46.69,15.69,13.0,0.72,-0.03,-0.69,0.02,1399
2483,10.61,-0.69,-1.16,-0.21,0.69,0.03,-46.69,16.06,11.5,0.72,-0.03,-0.69,0.02,1400
2484,9.92,-0.45,-1.26,-0.38,0.76,0.04,-46.69,16.06,11.5,0.72,-0.03,-0.69,0.02,1401
2485,8.77,0.12,-1.16,-0.83,0.84,0.02,-46.69,16.06,11.5,0.73,-0.04,-0.68,0.01,1402
2486,8.89,0.59,-0.95,-0.97,0.87,0.0,-46.69,16.06,11.5,0.73,-0.04,-0.68,0.01,1403
2487,9.04,0.94,-0.8,-0.96,0.89,0.01,-46.88,15.0,11.0,0.74,-0.05,-0.67,0.01,1404
2488,9.16,0.67,-0.87,-0.84,0.91,0.04,-46.88,15.0,11.0,0.74,-0.05,-0.67,0.01,1405
2489,9.26,0.39,-0.75,-0.68,0.95,0.07,-46.88,15.0,11.0,0.74,-0.05,-0.67,0.01,1406
2490,9.38,0.0,-0.59,-0.54,1.0,0.09,-46.88,15.0,11.0,0.75,-0.06,-0.66,0.0,1407
2491,9.45,-0.43,-0.41,-0.46,1.05,0.1,-46.88,15.0,11.0,0.75,-0.06,-0.66,0.0,1408
2492,9.56,-0.19,0.59,-0.49,1.13,0.12,-47.19,15.0,8.56,0.75,-0.06,-0.65,-0.0,1409
2493,9.62,0.2,1.13,-0.51,1.19,0.15,-47.19,15.0,8.56,0.75,-0.06,-0.65,-0.0,1410
2494,9.57,0.45,1.54,-0.25,1.2,0.2,-47.19,15.0,8.56,0.76,-0.07,-0.65,-0.0,1411
2495,9.04,0.06,2.23,-0.25,1.2,0.2,-47.19,15.0,8.56,0.76,-0.07,-0.65,-0.0,1412
2496,8.8,-0.52,2.32,-0.08,1.19,0.23,-47.19,15.0,8.56,0.76,-0.07,-0.64,-0.0,1413
2497,8.71,-1.0,2.28,0.03,1.16,0.27,-46.88,14.56,5.87,0.77,-0.07,-0.64,-0.0,1414
2498,8.76,-1.02,2.2,0.05,1.12,0.26,-46.88,14.56,5.87,0.77,-0.07,-0.63,-0.0,1415
2499,9.05,0.0,2.25,0.02,1.11,0.22,-46.88,14.56,5.87,0.78,-0.07,-0.62,0.0,1416
2500,9.46,0.91,2.35,0.15,1.07,0.19,-46.88,14.56,5.87,0.78,-0.07,-0.62,0.0,1417
2501,9.4,0.84,2.29,0.37,1.03,0.21,-46.88,15.25,3.56,0.78,-0.07,-0.62,0.0,1418
2502,8.94,-0.49,1.76,0.59,1.03,0.23,-46.88,15.25,3.56,0.79,-0.06,-0.61,0.01,1419
2503,8.82,-1.1,1.49,0.65,1.03,0.23,-46.88,15.25,3.56,0.79,-0.06,-0.61,0.01,1420
2504,8.87,-1.5,1.3,0.57,1.06,0.24,-46.88,15.25,3.56,0.79,-0.06,-0.6,0.01,1421
2505,9.19,-1.93,1.2,0.38,1.12,0.23,-46.88,15.25,3.56,0.8,-0.06,-0.6,0.01,1422
2506,9.45,-1.99,1.47,0.2,1.22,0.21,-47.56,15.25,0.0,0.8,-0.06,-0.59,0.01,1423
2507,9.74,-1.95,1.65,-0.0,1.3,0.21,-47.56,15.25,0.0,0.81,-0.06,-0.58,0.01,1424
2508,9.94,-1.91,1.79,-0.17,1.36,0.22,-47.56,15.25,0.0,0.81,-0.06,-0.58,0.01,1425
2509,9.94,-1.91,1.79,-0.31,1.42,0.23,-47.56,15.25,0.0,0.81,-0.07,-0.58,0.01,1426
2510,9.83,-1.17,2.17,-0.4,1.46,0.22,-47.56,15.25,0.0,0.82,-0.07,-0.57,0.01,1427
2511,9.83,-1.17,2.17,-0.45,1.52,0.24,-47.25,15.69,-1.5,0.82,-0.07,-0.57,0.01,1428
2512,9.83,-1.41,2.39,-0.52,1.59,0.28,-47.25,15.69,-1.5,0.83,-0.07,-0.56,0.01,1429
2513,10.3,-1.18,2.64,-0.62,1.66,0.3,-47.25,15.69,-1.5,0.83,-0.08,-0.55,0.01,1430
2514,10.5,-1.18,2.7,-0.72,1.72,0.27,-47.25,15.69,-1.5,0.84,-0.09,-0.54,0.01,1431
2515,10.61,-1.32,2.57,-0.79,1.77,0.27,-47.25,15.69,-1.5,0.84,-0.09,-0.54,0.01,1432
2516,10.64,-1.17,2.39,-0.84,1.8,0.3,-46.69,17.19,-5.06,0.85,-0.09,-0.52,0.0,1433
2517,10.31,-1.26,1.7,-0.85,1.83,0.31,-46.69,17.19,-5.06,0.85,-0.09,-0.52,0.0,1434
2518,10.14,-2.09,1.31,-0.78,1.87,0.39,-46.69,17.19,-5.06,0.85,-0.1,-0.52,0.0,1435
2519,10.16,-2.73,1.09,-0.6,1.91,0.55,-46.69,17.19,-5.06,0.86,-0.11,-0.5,0.0,1436
2520,10.68,-2.73,0.57,-0.5,1.94,0.65,-46.69,17.19,-5.06,0.86,-0.11,-0.5,0.0,1437
2521,11.1,-2.73,0.16,-0.5,2.01,0.62,-47.69,17.5,-8.56,0.86,-0.11,-0.49,0.0,1438
2522,11.53,-2.81,-0.35,-0.55,2.11,0.56,-47.69,17.5,-8.56,0.87,-0.11,-0.48,0.0,1439
2523,11.86,-2.81,-0.92,-0.63,2.24,0.54,-47.69,17.5,-8.56,0.88,-0.12,-0.46,0.0,1440
2524,12.47,-2.43,-1.38,-0.77,2.38,0.5,-47.69,17.5,-8.56,0.88,-0.12,-0.46,0.0,1441
2525,13.18,-1.07,-1.8,-1.08,2.5,0.41,-47.69,17.5,-8.56,0.88,-0.13,-0.45,-0.0,1442
2526,14.22,-0.4,-2.36,-1.44,2.62,0.31,-45.19,17.87,-12.06,0.89,-0.13,-0.44,-0.01,1443
2527,15.36,-0.88,-2.89,-1.51,2.79,0.25,-45.19,17.87,-12.06,0.89,-0.14,-0.43,-0.01,1444
2528,17.42,-2.17,-6.16,-1.56,2.99,0.18,-45.19,17.87,-12.06,0.9,-0.15,-0.4,-0.02,1445
2529,17.95,-2.08,-5.96,-1.83,3.13,0.04,-45.19,17.87,-12.06,0.9,-0.15,-0.4,-0.02,1446
2530,17.95,-2.08,-5.96,-2.31,3.25,-0.05,-45.19,17.87,-12.06,0.91,-0.16,-0.39,-0.03,1447
2531,16.75,1.71,1.82,-2.84,3.36,0.12,-43.0,20.75,-15.5,0.91,-0.18,-0.37,-0.03,1448
2532,16.75,1.71,1.82,-3.29,3.46,0.42,-43.0,20.75,-15.5,0.91,-0.19,-0.35,-0.04,1449
2533,16.05,5.86,8.64,-3.46,3.49,0.66,-43.0,20.75,-15.5,0.92,-0.22,-0.32,-0.05,1450
2534,16.06,6.0,10.86,-2.64,3.11,0.78,-43.0,20.75,-15.5,0.92,-0.22,-0.32,-0.05,1451
2535,14.44,2.02,13.59,-1.38,2.49,0.94,-39.19,24.19,-18.69,0.92,-0.23,-0.3,-0.05,1452
2536,12.64,-0.34,11.54,-0.33,1.74,1.15,-39.19,24.19,-18.69,0.92,-0.23,-0.3,-0.05,1453
2537,10.09,-1.92,12.14,0.41,1.12,1.22,-39.19,24.19,-18.69,0.93,-0.23,-0.29,-0.04,1454
2538,7.63,-2.91,11.66,0.89,0.75,1.11,-39.19,24.19,-18.69,0.93,-0.23,-0.29,-0.04,1455
2539,4.49,-3.36,13.96,1.07,0.63,0.93,-39.19,24.19,-18.69,0.93,-0.22,-0.29,-0.03,1456
2540,3.64,-3.85,11.77,1.27,0.43,0.75,-39.19,24.19,-18.69,0.93,-0.22,-0.28,-0.03,1457
2541,3.91,-3.74,8.55,1.23,0.38,0.6,-36.25,25.88,-21.5,0.94,-0.21,-0.28,-0.02,1458
2542,6.14,-3.5,7.16,0.79,-0.05,0.31,-36.25,25.88,-21.5,0.94,-0.21,-0.28,-0.02,1459
2543,6.76,-2.38,8.3,0.91,-1.25,0.12,-36.25,25.88,-21.5,0.94,-0.2,-0.29,-0.02,1460
2544,6.76,-2.38,8.3,1.0,-1.7,0.1,-36.25,25.88,-21.5,0.93,-0.2,-0.3,-0.01,1461
2545,3.18,-2.02,8.37,1.12,-2.05,0.03,-35.06,25.69,-23.38,0.93,-0.19,-0.31,-0.01,1462
2546,3.18,-2.02,8.37,1.31,-2.33,-0.08,-35.06,25.69,-23.38,0.93,-0.19,-0.32,-0.01,1463
2547,2.55,-2.76,8.89,1.56,-2.6,-0.19,-35.06,25.69,-23.38,0.92,-0.17,-0.34,0.0,1464
2548,2.73,-3.37,8.9,1.7,-2.84,-0.31,-35.06,25.69,-23.38,0.92,-0.17,-0.34,0.0,1465
2549,3.02,-4.48,8.37,1.68,-3.08,-0.46,-38.0,24.06,-20.56,0.92,-0.16,-0.37,0.01,1466
2550,2.94,-4.71,8.13,1.56,-3.34,-0.59,-38.0,24.06,-20.56,0.92,-0.16,-0.37,0.01,1467
2551,2.92,-4.76,7.86,1.35,-3.59,-0.7,-38.0,24.06,-20.56,0.9,-0.14,-0.41,0.01,1468
2552,2.96,-5.22,8.16,1.05,-3.84,-0.81,-38.0,24.06,-20.56,0.9,-0.14,-0.41,0.01,1469
2553,2.97,-5.2,8.07,0.74,-4.06,-0.9,-38.0,24.06,-20.56,0.9,-0.14,-0.42,0.01,1470
2554,2.99,-5.04,7.78,0.41,-4.27,-0.95,-38.0,24.06,-20.56,0.89,-0.13,-0.44,0.01,1471
2555,3.07,-4.81,7.88,0.1,-4.49,-1.03,-41.88,21.87,-15.0,0.88,-0.13,-0.46,0.01,1472
2556,3.41,-4.26,7.95,-0.2,-4.67,-1.13,-41.88,21.87,-15.0,0.85,-0.13,-0.5,0.0,1473
2557,3.68,-4.05,7.76,-0.47,-4.83,-1.23,-41.88,21.87,-15.0,0.85,-0.13,-0.5,0.0,1474
2558,3.95,-3.79,7.47,-0.7,-4.94,-1.33,-41.88,21.87,-15.0,0.84,-0.13,-0.52,-0.0,1475
2559,4.19,-3.29,7.34,-0.9,-5.04,-1.43,-41.88,21.87,-15.0,0.83,-0.13,-0.55,-0.01,1476
2560,4.19,-3.29,7.34,-0.9,-5.04,-1.43,-46.25,19.37,-6.06,0.81,-0.13,-0.57,-0.01,1477
2561,5.14,-2.3,7.38,-0.94,-5.21,-1.64,-46.25,19.37,-6.06,0.78,-0.12,-0.61,-0.02,1478
2562,5.67,-2.09,7.47,-0.81,-5.24,-1.69,-46.25,19.37,-6.06,0.78,-0.12,-0.61,-0.02,1479
2563,6.38,-2.11,6.31,-0.5,-5.27,-1.7,-46.25,19.37,-6.06,0.75,-0.12,-0.65,-0.03,1480
2564,6.54,-2.11,6.04,-0.5,-5.27,-1.7,-46.25,19.37,-6.06,0.75,-0.12,-0.65,-0.03,1481
2565,6.59,-2.05,6.14,-0.48,-5.21,-1.67,-49.06,18.87,6.0,0.71,-0.11,-0.69,-0.04,1482
2566,6.81,-1.85,5.96,-0.44,-5.15,-1.55,-49.06,18.87,6.0,0.71,-0.11,-0.69,-0.04,1483
2567,7.65,-1.72,5.36,-0.38,-5.06,-1.42,-49.06,18.87,6.0,0.7,-0.11,-0.71,-0.04,1484
2568,8.0,-1.91,4.93,-0.18,-4.97,-1.33,-49.06,18.87,6.0,0.66,-0.11,-0.74,-0.05,1485
2569,8.25,-2.19,4.4,0.1,-4.82,-1.22,-49.06,18.87,6.0,0.66,-0.11,-0.74,-0.05,1486
2570,8.48,-2.5,3.53,0.34,-4.61,-1.1,-45.56,15.69,18.5,0.63,-0.1,-0.77,-0.05,1487
2571,8.5,-2.85,1.7,0.55,-4.33,-1.0,-45.56,15.69,18.5,0.63,-0.1,-0.77,-0.05,1488
2572,8.37,-2.74,1.25,0.82,-3.61,-0.83,-45.56,15.69,18.5,0.6,-0.09,-0.79,-0.04,1489
2573,8.15,-2.42,1.01,0.82,-3.61,-0.83,-45.56,15.69,18.5,0.6,-0.09,-0.79,-0.04,1490
2574,7.55,-1.44,-1.2,0.97,-3.18,-0.73,-45.56,15.69,18.5,0.59,-0.08,-0.8,-0.04,1491
2575,6.95,-0.97,-2.47,1.04,-2.67,-0.65,-42.06,13.19,24.75,0.58,-0.08,-0.81,-0.04,1492
2576,6.29,-0.81,-3.11,0.99,-2.03,-0.56,-42.06,13.19,24.75,0.57,-0.07,-0.82,-0.03,1493
2577,5.85,-1.03,-3.76,0.92,-1.28,-0.36,-42.06,13.19,24.75,0.56,-0.07,-0.82,-0.03,1494
2578,5.38,-1.01,-2.89,0.84,-0.48,-0.04,-42.06,13.19,24.75,0.56,-0.07,-0.82,-0.03,1495
2579,5.11,-1.01,-1.8,0.76,0.31,0.19,-42.06,13.19,24.75,0.57,-0.07,-0.82,-0.02,1496
2580,4.77,-0.9,-0.55,0.83,1.03,0.28,-38.19,11.69,27.56,0.57,-0.06,-0.82,-0.02,1497
2581,4.77,-0.9,-0.55,0.96,1.67,0.32,-38.19,11.69,27.56,0.58,-0.06,-0.81,-0.02,1498
2582,3.85,-2.04,2.72,1.2,2.35,0.38,-38.19,11.69,27.56,0.6,-0.06,-0.8,-0.01,1499
2583,5.2,-2.86,2.27,1.22,3.07,0.53,-38.19,11.69,27.56,0.6,-0.06,-0.8,-0.01,1500
2584,11.09,-3.24,-1.3,0.89,3.41,0.72,-39.69,11.75,24.37,0.62,-0.06,-0.78,0.0,1501
2585,32.35,2.45,-7.27,0.42,0.13,-1.04,-39.69,11.75,24.37,0.62,-0.05,-0.78,-0.0,1502
2586,31.9,6.72,0.69,0.56,-0.19,-1.35,-39.69,11.75,24.37,0.62,-0.05,-0.78,-0.0,1503
2587,31.9,6.72,0.69,0.86,1.37,0.05,-39.69,11.75,24.37,0.63,-0.04,-0.78,0.0,1504
2588,8.66,-0.51,-1.42,2.73,2.84,1.0,-39.69,11.75,24.37,0.64,-0.04,-0.77,0.01,1505
2589,8.66,-0.51,-1.42,2.73,2.84,1.0,-40.5,11.06,21.69,0.65,-0.03,-0.76,0.03,1506
2590,-1.25,-11.56,5.86,3.94,2.81,0.2,-40.5,11.06,21.69,0.66,-0.02,-0.75,0.05,1507
2591,-1.23,-14.65,8.07,3.05,2.55,-0.09,-40.5,11.06,21.69,0.67,-0.01,-0.74,0.06,1508
2592,4.64,-10.79,8.28,1.83,2.37,0.3,-40.5,11.06,21.69,0.69,-0.01,-0.73,0.07,1509
2593,6.67,-7.31,8.39,-0.23,2.21,0.33,-40.5,11.06,21.69,0.69,-0.01,-0.73,0.07,1510
2594,8.35,-3.48,8.36,-2.07,2.07,-0.18,-42.19,13.06,14.19,0.7,-0.02,-0.71,0.05,1511
2595,10.27,0.3,8.05,-3.12,1.95,-0.43,-42.19,13.06,14.19,0.7,-0.02,-0.71,0.05,1512
2596,10.27,0.3,8.05,-3.23,1.78,-0.34,-42.19,13.06,14.19,0.7,-0.03,-0.71,0.03,1513
2597,12.24,7.23,7.94,-2.64,1.61,-0.23,-42.19,13.06,14.19,0.71,-0.05,-0.7,0.02,1514
2598,11.97,7.31,7.1,-1.79,1.47,-0.06,-42.19,13.06,14.19,0.71,-0.05,-0.7,0.02,1515
2599,10.5,3.4,4.32,-0.64,1.31,0.03,-43.5,12.56,11.69,0.72,-0.05,-0.69,0.02,1516
2600,9.27,-0.45,2.89,1.08,0.97,0.06,-43.5,12.56,11.69,0.73,-0.04,-0.68,0.02,1517
2601,8.85,-1.16,2.57,1.37,0.86,0.18,-43.5,12.56,11.69,0.73,-0.04,-0.68,0.02,1518
2602,8.85,-1.16,2.57,1.44,0.78,0.24,-43.5,12.56,11.69,0.73,-0.04,-0.68,0.03,1519
2603,9.65,-2.76,1.57,1.42,0.71,0.14,-44.88,11.25,9.25,0.73,-0.03,-0.68,0.03,1520
2604,9.65,-2.76,1.57,1.23,0.67,0.06,-44.88,11.25,9.25,0.74,-0.03,-0.67,0.04,1521
2605,10.25,-3.99,0.85,0.82,0.67,0.07,-44.88,11.25,9.25,0.74,-0.03,-0.67,0.04,1522
2606,9.51,-2.76,0.28,0.23,0.71,0.09,-44.88,11.25,9.25,0.74,-0.03,-0.67,0.04,1523
2607,9.11,-1.59,0.21,-0.36,0.76,0.05,-44.88,11.25,9.25,0.75,-0.03,-0.66,0.04,1524
2608,9.06,-0.57,0.02,-0.96,0.81,-0.04,-44.5,12.06,7.69,0.75,-0.03,-0.66,0.04,1525
2609,9.43,0.47,-0.17,-0.96,0.81,-0.04,-44.5,12.06,7.69,0.75,-0.04,-0.66,0.03,1526
2610,9.63,0.54,-0.2,-0.88,0.81,-0.04,-44.5,12.06,7.69,0.75,-0.04,-0.66,0.03,1527
2611,9.75,0.32,-0.07,-0.68,0.82,-0.02,-44.5,12.06,7.69,0.75,-0.04,-0.66,0.03,1528
2612,9.7,0.17,0.08,-0.45,0.82,0.03,-44.5,12.06,7.69,0.76,-0.04,-0.65,0.03,1529
2613,9.37,0.01,0.27,-0.12,0.83,0.09,-44.88,11.56,6.75,0.76,-0.04,-0.65,0.03,1530
2614,9.11,-0.08,0.3,-0.12,0.83,0.09,-44.88,11.56,6.75,0.76,-0.05,-0.64,0.03,1531
2615,9.06,-0.02,0.27,-0.02,0.9,0.1,-44.88,11.56,6.75,0.76,-0.05,-0.64,0.03,1532
2616,9.06,-0.02,0.27,-0.03,0.96,0.11,-44.88,11.56,6.75,0.77,-0.05,-0.64,0.03,1533
2617,9.5,-0.13,0.74,-0.02,1.03,0.15,-44.88,11.56,6.75,0.77,-0.05,-0.64,0.03,1534
2618,9.5,-0.13,0.74,-0.02,1.03,0.15,-45.88,12.19,4.87,0.77,-0.05,-0.63,0.03,1535
2619,9.39,-0.79,1.52,0.09,1.11,0.22,-45.88,12.19,4.87,0.78,-0.05,-0.63,0.03,1536
2620,9.12,-1.28,2.14,0.08,1.14,0.23,-45.88,12.19,4.87,0.78,-0.05,-0.62,0.03,1537
2621,9.01,-1.42,2.33,0.08,1.14,0.23,-45.88,12.19,4.87,0.79,-0.05,-0.61,0.03,1538
2622,8.98,-1.34,2.53,0.02,1.16,0.21,-45.88,12.19,4.87,0.79,-0.05,-0.61,0.03,1539
2623,9.12,-1.14,2.67,-0.04,1.17,0.2,-45.56,11.88,2.5,0.79,-0.05,-0.6,0.03,1540
2624,9.61,-1.07,2.71,-0.09,1.16,0.19,-45.56,11.88,2.5,0.79,-0.05,-0.6,0.03,1541
2625,9.61,-1.07,2.71,-0.15,1.18,0.17,-45.56,11.88,2.5,0.8,-0.05,-0.6,0.03,1542
2626,9.9,-1.04,2.47,-0.22,1.2,0.17,-45.56,11.88,2.5,0.8,-0.06,-0.59,0.03,1543
2627,9.91,-1.18,2.25,-0.32,1.23,0.19,-45.56,11.88,2.5,0.8,-0.06,-0.59,0.03,1544
2628,9.94,-1.28,1.66,-0.41,1.27,0.22,-46.56,12.56,1.25,0.81,-0.06,-0.59,0.03,1545
2629,10.09,-1.25,1.38,-0.49,1.33,0.22,-46.56,12.56,1.25,0.81,-0.06,-0.58,0.03,1546
2630,10.38,-1.25,1.19,-0.57,1.42,0.22,-46.56,12.56,1.25,0.82,-0.07,-0.57,0.03,1547
2631,11.05,-1.06,1.19,-0.68,1.51,0.22,-46.56,12.56,1.25,0.82,-0.07,-0.57,0.03,1548
2632,11.26,-0.93,1.09,-0.79,1.6,0.24,-46.56,12.56,1.25,0.82,-0.07,-0.56,0.02,1549
2633,11.21,-0.84,1.0,-0.83,1.69,0.29,-46.19,13.56,-1.37,0.83,-0.08,-0.56,0.02,1550
2634,11.0,-1.08,0.98,-0.85,1.78,0.34,-46.19,13.56,-1.37,0.83,-0.08,-0.55,0.02,1551
2635,10.39,-1.07,0.4,-0.89,1.88,0.38,-46.19,13.56,-1.37,0.84,-0.09,-0.53,0.02,1552
2636,9.98,-1.41,0.13,-0.88,1.96,0.46,-46.19,13.56,-1.37,0.84,-0.09,-0.53,0.02,1553
2637,9.98,-1.41,0.13,-0.74,2.02,0.61,-46.19,13.56,-1.37,0.85,-0.1,-0.52,0.02,1554
2638,9.79,-2.68,-0.19,-0.68,2.09,0.69,-45.88,14.25,-4.56,0.85,-0.1,-0.52,0.02,1555
2639,9.79,-2.68,-0.19,-0.68,2.09,0.69,-45.88,14.25,-4.56,0.86,-0.1,-0.51,0.02,1556
2640,10.7,-2.45,-0.71,-0.78,2.29,0.59,-45.88,14.25,-4.56,0.86,-0.11,-0.5,0.02,1557
2641,11.15,-2.95,-0.97,-0.87,2.47,0.57,-45.88,14.25,-4.56,0.87,-0.11,-0.49,0.02,1558
2642,11.84,-3.67,-1.63,-1.01,2.63,0.54,-45.88,14.25,-4.56,0.88,-0.13,-0.46,0.01,1559
2643,12.08,-3.95,-1.81,-1.24,2.79,0.44,-46.06,15.38,-9.25,0.88,-0.13,-0.46,0.01,1560
2644,12.93,-2.57,-2.19,-2.17,3.03,0.08,-46.06,15.38,-9.25,0.89,-0.16,-0.42,-0.01,1561
2645,15.22,-1.5,-4.3,-2.54,3.14,-0.05,-46.06,15.38,-9.25,0.89,-0.16,-0.42,-0.01,1562
2646,16.82,-1.16,-5.57,-3.01,3.24,-0.14,-46.06,15.38,-9.25,0.9,-0.17,-0.41,-0.02,1563
2647,18.52,-0.61,-5.09,-3.37,3.33,-0.18,-44.25,18.0,-11.69,0.9,-0.18,-0.4,-0.03,1564
2648,18.52,-0.61,-5.09,-3.73,3.48,-0.02,-44.25,18.0,-11.69,0.9,-0.2,-0.38,-0.04,1565
2649,20.69,5.13,1.25,-4.04,3.57,0.32,-44.25,18.0,-11.69,0.91,-0.23,-0.35,-0.05,1566
2650,19.52,8.25,7.98,-3.71,3.35,0.61,-44.25,18.0,-11.69,0.91,-0.23,-0.35,-0.05,1567
2651,17.32,8.43,11.13,-2.17,2.8,0.86,-40.69,20.0,-16.69,0.91,-0.25,-0.32,-0.05,1568
2652,12.22,3.28,13.48,-0.96,2.22,1.13,-40.69,20.0,-16.69,0.91,-0.25,-0.32,-0.05,1569
2653,11.56,0.57,10.39,0.84,1.29,1.12,-40.69,20.0,-16.69,0.92,-0.25,-0.3,-0.05,1570
2654,10.91,-1.74,10.4,0.84,1.29,1.12,-40.69,20.0,-16.69,0.92,-0.25,-0.3,-0.05,1571
2655,9.78,-3.38,11.02,1.66,0.68,0.94,-40.69,20.0,-16.69,0.92,-0.24,-0.3,-0.04,1572
2656,6.64,-3.95,15.08,1.81,0.49,0.8,-40.69,20.0,-16.69,0.92,-0.23,-0.3,-0.04,1573
2657,4.25,-4.9,15.79,2.02,0.56,0.76,-37.75,24.75,-21.0,0.93,-0.23,-0.29,-0.03,1574
2658,3.49,-5.03,10.83,1.67,0.79,0.68,-37.75,24.75,-21.0,0.93,-0.21,-0.29,-0.02,1575
2659,4.09,-4.87,6.99,1.12,0.32,0.33,-37.75,24.75,-21.0,0.93,-0.21,-0.29,-0.02,1576
2660,6.36,-5.57,7.29,1.12,-0.51,0.03,-37.75,24.75,-21.0,0.93,-0.21,-0.29,-0.02,1577
2661,6.85,-4.99,7.48,0.96,-1.13,-0.05,-37.75,24.75,-21.0,0.93,-0.2,-0.3,-0.02,1578
2662,6.85,-4.99,7.48,0.96,-1.13,-0.05,-35.56,24.5,-24.5,0.93,-0.2,-0.3,-0.02,1579
2663,3.33,-2.54,8.02,0.65,-2.03,-0.15,-35.56,24.5,-24.5,0.93,-0.19,-0.32,-0.01,1580
2664,2.14,-2.05,8.2,0.82,-2.36,-0.27,-35.56,24.5,-24.5,0.93,-0.19,-0.32,-0.01,1581
2665,1.45,-1.85,8.37,1.31,-2.83,-0.6,-35.56,24.5,-24.5,0.92,-0.18,-0.35,-0.01,1582
2666,1.31,-2.2,8.57,1.31,-2.83,-0.6,-35.56,24.5,-24.5,0.92,-0.18,-0.35,-0.01,1583
2667,2.37,-3.74,8.38,1.48,-3.03,-0.75,-38.5,23.19,-21.37,0.91,-0.17,-0.38,-0.0,1584
2668,2.79,-4.29,8.39,1.54,-3.3,-0.88,-38.5,23.19,-21.37,0.91,-0.17,-0.38,-0.0,1585
2669,3.03,-4.41,7.82,1.47,-3.54,-0.98,-38.5,23.19,-21.37,0.9,-0.16,-0.4,-0.0,1586
2670,3.01,-4.38,7.62,1.28,-3.77,-1.1,-38.5,23.19,-21.37,0.89,-0.14,-0.43,-0.0,1587
2671,2.77,-4.55,8.0,1.06,-3.99,-1.2,-38.5,23.19,-21.37,0.89,-0.14,-0.43,-0.0,1588
2672,2.78,-4.6,7.9,0.82,-4.21,-1.29,-42.88,21.06,-16.25,0.87,-0.13,-0.47,-0.0,1589
2673,3.02,-4.53,7.83,0.59,-4.44,-1.38,-42.88,21.06,-16.25,0.87,-0.13,-0.47,-0.0,1590
2674,3.67,-4.38,8.23,0.06,-4.86,-1.54,-42.88,21.06,-16.25,0.85,-0.12,-0.51,-0.01,1591
2675,3.94,-4.27,8.29,0.06,-4.86,-1.54,-42.88,21.06,-16.25,0.84,-0.12,-0.53,-0.01,1592
2676,4.17,-4.08,8.28,-0.36,-5.0,-1.61,-42.88,21.06,-16.25,0.84,-0.12,-0.53,-0.01,1593
2677,4.36,-3.83,8.01,-0.79,-5.09,-1.68,-46.0,18.06,-8.75,0.82,-0.12,-0.55,-0.02,1594
2678,4.86,-2.77,7.76,-1.21,-5.17,-1.8,-46.0,18.06,-8.75,0.81,-0.12,-0.58,-0.03,1595
2679,5.25,-1.93,7.83,-1.47,-5.26,-1.93,-46.0,18.06,-8.75,0.78,-0.12,-0.62,-0.05,1596
2680,5.64,-1.2,7.67,-1.51,-5.32,-2.05,-46.0,18.06,-8.75,0.78,-0.12,-0.62,-0.05,1597
2681,5.94,-0.64,7.4,-1.4,-5.32,-2.15,-46.0,18.06,-8.75,0.76,-0.12,-0.64,-0.05,1598
2682,6.39,-0.48,6.9,-1.12,-5.34,-2.16,-47.19,13.25,3.0,0.74,-0.12,-0.66,-0.06,1599
2683,6.39,-0.48,6.9,-0.79,-5.33,-2.08,-47.19,13.25,3.0,0.72,-0.12,-0.68,-0.07,1600
2684,7.23,-0.66,5.66,-0.48,-5.29,-1.99,-47.19,13.25,3.0,0.68,-0.11,-0.72,-0.08,1601
2685,7.81,-0.84,5.22,-0.17,-5.22,-1.89,-47.19,13.25,3.0,0.68,-0.11,-0.72,-0.08,1602
2686,9.4,-1.77,3.21,0.55,-4.83,-1.3,-46.06,7.87,15.56,0.63,-0.1,-0.77,-0.08,1603
2687,9.4,-1.77,3.21,0.55,-4.83,-1.3,-46.06,7.87,15.56,0.61,-0.09,-0.78,-0.08,1604
2688,9.16,-1.83,1.61,0.69,-4.57,-1.12,-46.06,7.87,15.56,0.61,-0.09,-0.78,-0.08,1605
2689,8.64,-1.61,0.33,1.34,-3.84,-0.68,-46.06,7.87,15.56,0.58,-0.08,-0.81,-0.07,1606
2690,7.86,-1.02,-1.51,1.34,-3.84,-0.68,-46.06,7.87,15.56,0.58,-0.08,-0.81,-0.07,1607
2691,7.01,-0.63,-2.94,2.3,-2.65,-0.35,-39.69,4.37,26.19,0.56,-0.07,-0.82,-0.06,1608
2692,5.51,-0.81,-5.57,2.3,-2.65,-0.35,-39.69,4.37,26.19,0.56,-0.07,-0.82,-0.06,1609
2693,5.32,-0.64,-6.48,2.51,-1.84,-0.2,-39.69,4.37,26.19,0.55,-0.06,-0.83,-0.05,1610
2694,5.41,-0.78,-6.42,2.54,-0.93,-0.12,-39.69,4.37,26.19,0.55,-0.05,-0.83,-0.03,1611
2695,5.46,-1.4,-5.39,2.5,-0.03,0.05,-39.69,4.37,26.19,0.55,-0.05,-0.83,-0.03,1612
2696,5.27,-2.3,-2.12,2.27,0.81,0.27,-34.0,5.19,31.0,0.56,-0.04,-0.83,-0.01,1613
2697,4.89,-2.6,-0.58,1.9,1.55,0.36,-34.0,5.19,31.0,0.56,-0.04,-0.83,-0.01,1614
2698,4.89,-2.6,-0.58,1.5,2.18,0.27,-34.0,5.19,31.0,0.57,-0.04,-0.82,-0.0,1615
2699,4.15,-2.15,3.03,1.13,2.74,0.07,-34.0,5.19,31.0,0.59,-0.03,-0.8,0.0,1616
2700,5.27,-2.84,4.73,0.14,3.86,0.04,-33.19,8.69,29.56,0.61,-0.03,-0.79,0.01,1617
2701,9.47,-1.64,4.13,-0.48,3.49,0.3,-33.19,8.69,29.56,0.62,-0.04,-0.78,0.0,1618
2702,21.45,-0.51,-15.1,-0.42,1.74,-0.12,-33.19,8.69,29.56,0.63,-0.03,-0.78,-0.0,1619
2703,29.01,0.43,-8.27,-0.25,0.39,-0.84,-33.19,8.69,29.56,0.63,-0.03,-0.78,-0.0,1620
2704,33.96,3.18,-1.61,1.2,0.14,0.24,-33.19,8.69,29.56,0.63,-0.03,-0.78,0.0,1621
2705,28.81,7.51,7.01,2.0,1.91,1.4,-38.69,10.69,23.38,0.64,-0.03,-0.77,0.01,1622
2706,28.81,7.51,7.01,4.41,3.12,1.25,-38.69,10.69,23.38,0.65,-0.02,-0.76,0.03,1623
2707,3.62,-1.74,1.72,5.65,3.03,0.62,-38.69,10.69,23.38,0.67,0.01,-0.74,0.07,1624
2708,-1.2,-6.61,5.27,4.83,2.82,-0.13,-38.69,10.69,23.38,0.67,0.01,-0.74,0.07,1625
2709,-1.2,-6.61,5.27,3.79,2.56,-0.41,-38.69,10.69,23.38,0.68,0.02,-0.73,0.09,1626
2710,1.92,-13.75,9.81,2.14,2.38,0.02,-40.19,12.56,19.56,0.69,0.03,-0.72,0.09,1627
2711,1.92,-13.75,9.81,2.14,2.38,0.02,-40.19,12.56,19.56,0.7,0.03,-0.71,0.09,1628
2712,6.6,-6.42,9.09,-2.41,2.11,-0.32,-40.19,12.56,19.56,0.7,0.02,-0.71,0.08,1629
2713,10.68,0.1,7.89,-3.9,1.99,-0.72,-40.19,12.56,19.56,0.71,0.01,-0.7,0.07,1630
2714,12.73,2.75,7.69,-4.36,1.88,-0.67,-40.19,12.56,19.56,0.72,-0.01,-0.69,0.05,1631
2715,13.91,5.01,7.59,-4.13,1.71,-0.26,-42.0,15.06,14.19,0.72,-0.02,-0.69,0.04,1632
2716,13.98,7.46,7.64,-3.18,1.5,0.21,-42.0,15.06,14.19,0.73,-0.04,-0.68,0.02,1633
2717,11.44,9.89,5.72,-1.57,1.36,0.4,-42.0,15.06,14.19,0.73,-0.04,-0.68,0.02,1634
2718,9.64,8.23,4.85,0.29,1.22,0.29,-42.0,15.06,14.19,0.74,-0.04,-0.68,0.02,1635
2719,8.56,4.54,4.04,1.91,1.09,0.2,-42.0,15.06,14.19,0.74,-0.03,-0.67,0.03,1636
2720,8.56,4.54,4.04,2.76,0.97,0.22,-43.75,12.69,11.38,0.74,-0.03,-0.67,0.04,1637
2721,8.84,-3.69,2.9,2.96,0.87,0.27,-43.75,12.69,11.38,0.75,-0.01,-0.66,0.06,1638
2722,9.38,-4.89,2.75,2.65,0.81,0.29,-43.75,12.69,11.38,0.75,-0.01,-0.66,0.06,1639
2723,9.94,-5.59,2.42,0.93,0.83,0.12,-43.75,12.69,11.38,0.75,0.0,-0.65,0.07,1640
2724,10.26,-4.96,2.02,0.93,0.83,0.12,-43.75,12.69,11.38,0.75,0.0,-0.65,0.07,1641
2725,9.89,-3.56,2.05,0.04,0.87,0.08,-44.88,13.56,8.69,0.76,-0.0,-0.65,0.07,1642
2726,9.38,-1.9,2.1,-0.59,0.89,0.07,-44.88,13.56,8.69,0.76,-0.0,-0.65,0.07,1643
2727,9.06,-0.68,2.03,-0.88,0.88,0.05,-44.88,13.56,8.69,0.76,-0.01,-0.64,0.07,1644
2728,9.18,0.22,1.93,-0.87,0.86,0.04,-44.88,13.56,8.69,0.77,-0.01,-0.64,0.06,1645
2729,9.37,0.15,1.8,-0.73,0.82,0.06,-44.88,13.56,8.69,0.77,-0.01,-0.64,0.06,1646
2730,9.5,-0.13,1.79,-0.53,0.8,0.06,-45.69,15.0,6.25,0.77,-0.02,-0.63,0.06,1647
2731,9.45,-0.49,1.84,-0.35,0.79,0.07,-45.69,15.0,6.25,0.77,-0.02,-0.63,0.06,1648
2732,9.31,-0.64,1.85,-0.21,0.79,0.08,-45.69,15.0,6.25,0.78,-0.02,-0.63,0.06,1649
2733,9.14,-0.72,1.91,-0.21,0.79,0.08,-45.69,15.0,6.25,0.78,-0.02,-0.63,0.06,1650
2734,9.08,-0.68,1.91,-0.19,0.8,0.08,-45.69,15.0,6.25,0.78,-0.02,-0.62,0.06,1651
2735,9.01,-0.51,1.72,-0.18,0.8,0.08,-46.0,14.56,4.37,0.78,-0.02,-0.62,0.06,1652
2736,9.04,-0.26,1.57,-0.18,0.81,0.09,-46.0,14.56,4.37,0.78,-0.02,-0.62,0.06,1653
2737,9.04,-0.36,1.44,-0.13,0.82,0.09,-46.0,14.56,4.37,0.79,-0.02,-0.61,0.06,1654
2738,9.11,-0.51,1.44,-0.09,0.85,0.11,-46.0,14.56,4.37,0.79,-0.02,-0.61,0.06,1655
2739,9.11,-0.51,1.44,-0.03,0.88,0.13,-46.0,14.56,4.37,0.79,-0.03,-0.61,0.06,1656
2740,9.14,-1.18,1.45,0.02,0.92,0.14,-45.25,14.69,3.87,0.79,-0.03,-0.6,0.06,1657
2741,9.14,-1.18,1.45,0.04,0.95,0.15,-45.25,14.69,3.87,0.8,-0.03,-0.6,0.06,1658
2742,8.84,-1.56,0.84,-0.02,1.02,0.15,-45.25,14.69,3.87,0.8,-0.03,-0.59,0.06,1659
2743,8.87,-1.14,0.83,-0.16,1.09,0.12,-45.25,14.69,3.87,0.8,-0.03,-0.59,0.06,1660
2744,9.17,-0.71,0.9,-0.32,1.24,0.12,-45.25,14.25,0.37,0.74,-0.31,-0.49,-0.34,1661
2745,9.56,-0.67,1.01,-0.36,1.33,0.14,-45.25,14.25,0.37,0.74,-0.31,-0.49,-0.34,1662
2746,9.68,-0.71,1.01,-0.51,1.49,0.15,-45.25,14.25,0.37,0.75,-0.31,-0.48,-0.34,1663
2747,9.73,-0.81,1.04,-0.51,1.49,0.15,-45.25,14.25,0.37,0.75,-0.31,-0.48,-0.34,1664
2748,9.83,-0.92,1.0,-0.61,1.59,0.15,-45.25,14.25,0.37,0.75,-0.31,-0.47,-0.35,1665
2749,10.28,-1.19,0.96,-0.74,1.7,0.14,-45.25,15.75,-0.37,0.75,-0.31,-0.46,-0.35,1666
2750,10.52,-1.37,1.0,-0.84,1.82,0.15,-45.25,15.75,-0.37,0.76,-0.31,-0.46,-0.35,1667
2751,10.67,-1.62,1.04,-0.92,1.93,0.2,-45.25,15.75,-0.37,0.76,-0.31,-0.44,-0.36,1668
2752,10.45,-1.64,1.28,-0.95,2.03,0.26,-45.25,15.75,-0.37,0.76,-0.31,-0.44,-0.36,1669
2753,10.22,-1.16,1.05,-1.05,2.18,0.27,-44.5,15.06,-5.06,0.77,-0.31,-0.42,-0.37,1670
2754,9.94,-1.17,1.0,-1.05,2.18,0.27,-44.5,15.06,-5.06,0.77,-0.31,-0.42,-0.37,1671
2755,9.65,-1.62,0.75,-0.83,2.34,0.46,-44.5,15.06,-5.06,0.78,-0.31,-0.4,-0.38,1672
2756,9.39,-3.15,0.81,-0.83,2.34,0.46,-44.5,15.06,-5.06,0.78,-0.31,-0.4,-0.38,1673
2757,9.47,-3.25,0.69,-0.66,2.42,0.53,-44.5,15.06,-5.06,0.78,-0.31,-0.38,-0.38,1674
2758,9.81,-3.07,0.78,-0.64,2.52,0.47,-44.5,15.06,-5.06,0.79,-0.3,-0.36,-0.39,1675
2759,10.29,-3.12,0.67,-0.69,2.6,0.36,-43.5,16.19,-9.38,0.79,-0.3,-0.36,-0.39,1676
2760,11.63,-3.79,0.35,-0.77,2.72,0.29,-43.5,16.19,-9.38,0.8,-0.3,-0.34,-0.4,1677
2761,12.5,-3.72,0.32,-0.93,2.86,0.21,-43.5,16.19,-9.38,0.8,-0.3,-0.34,-0.4,1678
2762,13.76,-2.65,-0.29,-1.33,2.95,0.1,-43.5,16.19,-9.38,0.8,-0.3,-0.32,-0.4,1679
2763,15.38,-2.03,-0.66,-1.75,3.01,-0.03,-43.5,16.19,-9.38,0.8,-0.3,-0.31,-0.41,1680
2764,15.38,-2.03,-0.66,-2.04,3.16,-0.14,-41.37,17.25,-14.87,0.81,-0.3,-0.29,-0.42,1681
2765,22.38,-2.23,-4.07,-2.41,3.29,-0.32,-41.37,17.25,-14.87,0.81,-0.31,-0.25,-0.44,1682
2766,23.54,-1.96,-2.7,-2.83,3.35,-0.4,-41.37,17.25,-14.87,0.81,-0.31,-0.25,-0.44,1683
2767,19.7,1.54,2.39,-3.43,3.35,0.33,-41.37,17.25,-14.87,0.8,-0.32,-0.21,-0.45,1684
2768,16.39,3.34,4.6,-3.43,3.35,0.33,-41.37,17.25,-14.87,0.8,-0.32,-0.21,-0.45,1685
2769,13.47,4.75,10.39,-3.41,3.28,0.48,-38.06,18.56,-18.37,0.8,-0.33,-0.18,-0.47,1686
2770,11.53,4.58,15.06,-2.64,2.65,0.59,-38.06,18.56,-18.37,0.8,-0.33,-0.18,-0.47,1687
2771,10.06,1.2,13.03,-1.73,1.98,0.79,-38.06,18.56,-18.37,0.8,-0.34,-0.16,-0.47,1688
2772,9.94,-0.56,11.76,-1.22,1.61,0.76,-38.06,18.56,-18.37,0.8,-0.34,-0.15,-0.47,1689
2773,8.89,-2.03,12.28,-0.34,0.97,0.62,-38.06,18.56,-18.37,0.8,-0.34,-0.15,-0.47,1690
2774,7.56,-2.47,12.27,0.51,0.48,0.61,-34.75,22.19,-21.69,0.81,-0.33,-0.15,-0.46,1691
2775,3.6,-2.82,14.01,0.81,0.28,0.57,-34.75,22.19,-21.69,0.81,-0.33,-0.15,-0.46,1692
2776,2.48,-3.08,10.13,0.69,0.03,0.28,-34.75,22.19,-21.69,0.81,-0.32,-0.15,-0.46,1693
2777,2.63,-2.94,7.35,0.69,0.03,0.28,-34.75,22.19,-21.69,0.81,-0.32,-0.15,-0.46,1694
2778,4.76,-3.27,7.32,0.73,-0.58,0.05,-34.75,22.19,-21.69,0.82,-0.32,-0.15,-0.46,1695
2779,5.4,-2.82,7.59,0.98,-1.21,-0.03,-33.38,23.38,-23.0,0.82,-0.32,-0.16,-0.45,1696
2780,5.23,-2.41,7.43,1.0,-1.65,-0.06,-33.38,23.38,-23.0,0.82,-0.32,-0.17,-0.45,1697
2781,4.45,-1.98,7.14,1.01,-2.0,-0.11,-33.38,23.38,-23.0,0.82,-0.32,-0.19,-0.44,1698
2782,2.62,-1.69,7.43,1.21,-2.35,-0.16,-33.38,23.38,-23.0,0.82,-0.32,-0.19,-0.44,1699
2783,2.1,-2.1,7.91,1.55,-2.66,-0.21,-32.69,23.0,-23.69,0.81,-0.32,-0.22,-0.43,1700
2784,2.31,-2.79,7.82,1.77,-2.84,-0.29,-32.69,23.0,-23.69,0.81,-0.32,-0.22,-0.43,1701
2785,2.95,-3.51,7.55,1.81,-3.26,-0.49,-32.69,23.0,-23.69,0.81,-0.32,-0.25,-0.42,1702
2786,3.96,-4.31,7.45,1.66,-3.5,-0.58,-32.69,23.0,-23.69,0.8,-0.32,-0.29,-0.41,1703
2787,3.9,-4.14,7.49,1.42,-3.72,-0.64,-32.69,23.0,-23.69,0.8,-0.32,-0.29,-0.41,1704
2788,3.78,-4.09,7.73,1.18,-3.93,-0.72,-34.88,19.19,-19.19,0.79,-0.32,-0.33,-0.4,1705
2789,3.9,-4.11,7.68,0.97,-4.13,-0.81,-34.88,19.19,-19.19,0.79,-0.32,-0.33,-0.4,1706
2790,4.16,-4.07,7.48,0.37,-4.53,-0.99,-34.88,19.19,-19.19,0.77,-0.33,-0.37,-0.39,1707
2791,4.53,-3.96,7.45,0.37,-4.53,-0.99,-34.88,19.19,-19.19,0.77,-0.33,-0.37,-0.39,1708
2792,4.95,-3.47,7.45,0.0,-4.72,-1.04,-34.88,19.19,-19.19,0.76,-0.34,-0.38,-0.39,1709
2793,5.05,-3.01,6.9,-0.37,-4.83,-1.09,-39.25,16.69,-14.75,0.75,-0.35,-0.4,-0.39,1710
2794,5.22,-2.33,6.78,-0.72,-4.89,-1.19,-39.25,16.69,-14.75,0.74,-0.36,-0.42,-0.39,1711
2795,5.34,-1.81,6.67,-0.83,-4.99,-1.32,-39.25,16.69,-14.75,0.71,-0.38,-0.46,-0.38,1712
2796,5.79,-1.25,6.14,-0.65,-5.05,-1.4,-39.25,16.69,-14.75,0.71,-0.38,-0.46,-0.38,1713
2797,6.07,-1.15,6.03,-0.43,-5.05,-1.46,-39.25,16.69,-14.75,0.7,-0.38,-0.48,-0.38,1714
2798,6.37,-1.28,6.16,-0.11,-5.08,-1.48,-43.69,14.19,-4.19,0.68,-0.39,-0.5,-0.37,1715
2799,6.37,-1.28,6.16,0.25,-5.11,-1.38,-43.69,14.19,-4.19,0.67,-0.39,-0.52,-0.37,1716
2800,7.8,-3.08,5.82,0.44,-5.15,-1.22,-43.69,14.19,-4.19,0.62,-0.41,-0.57,-0.34,1717
2801,8.27,-3.2,5.67,0.44,-5.15,-1.22,-43.69,14.19,-4.19,0.62,-0.41,-0.57,-0.34,1718
2802,9.05,-2.98,5.07,0.36,-5.18,-1.16,-44.0,12.0,6.5,0.59,-0.42,-0.61,-0.33,1719
2803,9.23,-2.66,4.44,0.16,-5.1,-1.08,-44.0,12.0,6.5,0.59,-0.42,-0.61,-0.33,1720
2804,9.04,-2.29,3.96,-0.09,-4.94,-1.0,-44.0,12.0,6.5,0.57,-0.42,-0.63,-0.32,1721
2805,8.72,-2.02,3.24,-0.17,-4.72,-0.9,-44.0,12.0,6.5,0.54,-0.43,-0.65,-0.31,1722
2806,8.03,-1.92,0.72,-0.03,-4.46,-0.82,-44.0,12.0,6.5,0.54,-0.43,-0.65,-0.31,1723
2807,7.74,-1.93,-0.61,0.21,-4.11,-0.81,-41.5,9.5,17.0,0.52,-0.43,-0.68,-0.29,1724
2808,7.25,-1.98,-1.61,0.46,-3.67,-0.81,-41.5,9.5,17.0,0.52,-0.43,-0.68,-0.29,1725
2809,6.16,-1.68,-4.21,0.67,-3.11,-0.74,-41.5,9.5,17.0,0.5,-0.43,-0.7,-0.28,1726
2810,5.74,-1.11,-4.9,0.66,-2.4,-0.59,-41.5,9.5,17.0,0.5,-0.43,-0.7,-0.28,1727
2811,5.33,-0.58,-5.04,0.57,-1.59,-0.45,-41.5,9.5,17.0,0.49,-0.43,-0.7,-0.28,1728
2812,5.03,-0.35,-4.4,0.51,-0.75,-0.31,-37.5,7.25,23.75,0.49,-0.43,-0.7,-0.28,1729
2813,4.61,-1.09,-1.67,0.5,0.08,-0.17,-37.5,7.25,23.75,0.49,-0.43,-0.71,-0.27,1730
2814,4.49,-1.72,-0.22,0.54,0.84,-0.03,-37.5,7.25,23.75,0.5,-0.42,-0.7,-0.27,1731
2815,4.37,-2.18,1.0,0.58,1.54,0.07,-37.5,7.25,23.75,0.5,-0.42,-0.7,-0.27,1732
2816,4.37,-2.18,1.0,0.5,2.23,0.13,-37.5,7.25,23.75,0.51,-0.42,-0.7,-0.28,1733
2817,4.96,-1.29,6.53,0.22,2.89,0.19,-34.88,7.19,25.69,0.52,-0.42,-0.69,-0.28,1734
2818,4.96,-1.29,6.53,0.08,3.19,0.38,-34.88,7.19,25.69,0.53,-0.41,-0.68,-0.29,1735
2819,7.66,-0.9,6.27,0.74,2.85,0.46,-34.88,7.19,25.69,0.54,-0.41,-0.67,-0.29,1736
2820,17.45,-1.24,-14.72,1.33,2.26,0.31,-34.88,7.19,25.69,0.55,-0.4,-0.67,-0.29,1737
2821,24.66,-0.32,-11.25,1.37,0.85,-0.19,-34.88,7.19,25.69,0.56,-0.39,-0.67,-0.28,1738
2822,32.08,0.04,-6.05,1.88,-0.51,-1.03,-39.19,7.56,19.87,0.56,-0.39,-0.67,-0.28,1739
2823,35.56,4.31,4.86,2.32,-0.15,-0.33,-39.19,7.56,19.87,0.58,-0.38,-0.67,-0.27,1740
2824,17.44,1.61,-1.57,2.28,1.91,0.47,-39.19,7.56,19.87,0.58,-0.38,-0.67,-0.27,1741
2825,9.09,-2.89,-1.43,4.39,2.88,0.46,-39.19,7.56,19.87,0.59,-0.36,-0.67,-0.26,1742
2826,1.95,-7.96,0.83,4.49,3.03,0.21,-39.19,7.56,19.87,0.61,-0.34,-0.67,-0.25,1743
2827,1.95,-7.96,0.83,3.34,2.91,-0.24,-40.88,9.0,18.25,0.63,-0.33,-0.66,-0.24,1744
2828,0.39,-14.63,8.87,2.05,2.77,-0.22,-40.88,9.0,18.25,0.65,-0.32,-0.65,-0.25,1745
2829,3.99,-11.21,9.47,0.29,2.54,0.07,-40.88,9.0,18.25,0.65,-0.32,-0.65,-0.25,1746
2830,6.16,-7.63,9.61,-4.05,2.18,-0.66,-40.88,9.0,18.25,0.65,-0.33,-0.63,-0.27,1747
2831,9.65,0.59,9.54,-4.05,2.18,-0.66,-40.88,9.0,18.25,0.65,-0.33,-0.63,-0.27,1748
2832,11.21,4.66,8.99,-5.08,2.07,-0.69,-42.69,11.69,11.19,0.64,-0.35,-0.61,-0.31,1749
2833,12.11,7.85,9.1,-4.91,1.86,-0.46,-42.69,11.69,11.19,0.64,-0.35,-0.61,-0.31,1750
2834,12.79,10.55,9.22,-4.16,1.64,-0.21,-42.69,11.69,11.19,0.64,-0.36,-0.59,-0.33,1751
2835,12.5,9.11,6.6,-2.64,1.45,-0.03,-42.69,11.69,11.19,0.64,-0.36,-0.58,-0.34,1752
2836,11.48,4.97,5.09,-0.56,1.27,-0.0,-42.69,11.69,11.19,0.64,-0.36,-0.58,-0.34,1753
2837,10.42,1.24,4.14,1.01,1.1,0.03,-44.88,10.0,8.56,0.65,-0.35,-0.58,-0.34,1754
2838,9.34,-1.25,3.52,1.76,0.96,0.09,-44.88,10.0,8.56,0.65,-0.35,-0.58,-0.34,1755
2839,9.34,-1.25,3.52,1.94,0.86,0.15,-44.88,10.0,8.56,0.66,-0.35,-0.58,-0.33,1756
2840,8.85,-3.52,2.19,1.78,0.77,0.15,-44.88,10.0,8.56,0.67,-0.33,-0.58,-0.33,1757
2841,9.57,-4.25,1.78,1.38,0.71,0.07,-44.88,10.0,8.56,0.67,-0.33,-0.58,-0.33,1758
2842,10.72,-4.2,1.58,0.78,0.69,0.02,-45.25,9.38,6.19,0.67,-0.33,-0.58,-0.33,1759
2843,9.85,-1.71,1.56,-0.76,0.75,0.01,-45.25,9.38,6.19,0.67,-0.33,-0.57,-0.33,1760
2844,9.21,-0.69,1.46,-1.26,0.77,-0.05,-45.25,9.38,6.19,0.67,-0.33,-0.57,-0.34,1761
2845,9.02,0.66,1.33,-1.48,0.78,-0.07,-45.25,9.38,6.19,0.67,-0.34,-0.56,-0.35,1762
2846,9.17,0.9,1.23,-1.43,0.76,-0.06,-44.5,9.5,3.5,0.67,-0.34,-0.56,-0.35,1763
2847,9.26,0.88,1.13,-1.23,0.74,-0.04,-44.5,9.5,3.5,0.67,-0.34,-0.55,-0.35,1764
2848,9.27,0.71,1.02,-0.95,0.73,-0.03,-44.5,9.5,3.5,0.67,-0.34,-0.55,-0.35,1765
2849,9.26,-0.16,0.89,-0.7,0.72,-0.02,-44.5,9.5,3.5,0.67,-0.35,-0.55,-0.36,1766
2850,9.34,-0.35,0.68,-0.59,0.74,-0.01,-44.5,9.5,3.5,0.68,-0.35,-0.54,-0.36,1767
2851,9.34,-0.35,0.68,-0.58,0.77,0.01,-45.25,8.88,3.06,0.68,-0.35,-0.54,-0.36,1768
2852,9.08,-0.42,0.13,-0.63,0.81,0.02,-45.25,8.88,3.06,0.68,-0.35,-0.53,-0.37,1769
2853,8.76,0.41,0.01,-0.7,0.88,0.03,-45.25,8.88,3.06,0.68,-0.35,-0.53,-0.37,1770
2854,8.76,0.41,0.01,-0.74,0.99,0.04,-45.25,8.88,3.06,0.68,-0.35,-0.53,-0.37,1771
2855,8.83,1.0,0.93,-0.68,1.05,0.08,-45.25,8.88,3.06,0.68,-0.35,-0.52,-0.38,1772
2856,8.83,1.0,0.93,-0.68,1.05,0.08,-46.0,10.0,1.87,0.68,-0.35,-0.52,-0.38,1773
2857,9.12,-0.06,2.07,-0.31,1.1,0.18,-46.0,10.0,1.87,0.69,-0.35,-0.51,-0.38,1774
2858,9.3,-0.5,2.15,-0.19,1.12,0.21,-46.0,10.0,1.87,0.69,-0.35,-0.51,-0.38,1775
2859,9.39,-0.9,2.06,-0.16,1.13,0.23,-46.0,10.0,1.87,0.7,-0.35,-0.5,-0.39,1776
2860,9.16,-0.84,1.71,-0.2,1.15,0.24,-46.0,10.0,1.87,0.7,-0.35,-0.5,-0.39,1777
2861,8.99,-0.58,1.72,-0.31,1.21,0.23,-45.25,9.56,-1.87,0.7,-0.34,-0.49,-0.39,1778
2862,8.97,-0.28,1.72,-0.42,1.28,0.22,-45.25,9.56,-1.87,0.7,-0.34,-0.49,-0.39,1779
2863,8.97,-0.28,1.72,-0.46,1.33,0.25,-45.25,9.56,-1.87,0.7,-0.34,-0.48,-0.39,1780
2864,9.38,-0.28,1.04,-0.43,1.36,0.27,-45.25,9.56,-1.87,0.71,-0.34,-0.47,-0.4,1781
2865,9.44,-0.87,0.81,-0.36,1.4,0.29,-45.25,9.56,-1.87,0.71,-0.34,-0.47,-0.4,1782
2866,9.54,-1.45,0.59,-0.33,1.48,0.32,-44.88,10.25,-4.69,0.72,-0.34,-0.46,-0.4,1783
2867,9.95,-2.15,0.46,-0.42,1.6,0.34,-44.88,10.25,-4.69,0.72,-0.34,-0.46,-0.4,1784
2868,10.14,-1.89,0.54,-0.65,1.73,0.33,-44.88,10.25,-4.69,0.72,-0.34,-0.44,-0.41,1785
2869,10.17,-1.73,0.76,-0.95,1.86,0.31,-44.88,10.25,-4.69,0.72,-0.34,-0.44,-0.41,1786
2870,10.23,-1.71,1.04,-1.15,1.97,0.35,-44.88,10.25,-4.69,0.73,-0.34,-0.43,-0.41,1787
2871,10.19,-1.14,1.28,-1.15,2.05,0.48,-46.06,11.38,-5.87,0.73,-0.34,-0.42,-0.42,1788
2872,10.19,-1.14,1.28,-1.05,2.1,0.59,-46.06,11.38,-5.87,0.73,-0.34,-0.41,-0.42,1789
2873,9.99,-2.0,0.94,-0.88,2.16,0.63,-46.06,11.38,-5.87,0.74,-0.34,-0.39,-0.42,1790
2874,9.93,-2.84,0.76,-0.7,2.23,0.67,-46.06,11.38,-5.87,0.74,-0.34,-0.39,-0.42,1791
2875,10.0,-3.52,0.8,-0.63,2.31,0.73,-45.0,12.75,-10.19,0.75,-0.34,-0.37,-0.43,1792
2876,10.11,-3.65,0.8,-0.66,2.38,0.75,-45.0,12.75,-10.19,0.75,-0.34,-0.37,-0.43,1793
2877,10.33,-3.86,0.79,-0.75,2.45,0.72,-45.0,12.75,-10.19,0.76,-0.34,-0.34,-0.43,1794
2878,11.17,-4.55,-0.08,-0.87,2.5,0.66,-45.0,12.75,-10.19,0.76,-0.34,-0.34,-0.43,1795
2879,11.68,-4.87,-0.79,-1.04,2.55,0.56,-45.0,12.75,-10.19,0.77,-0.34,-0.33,-0.44,1796
2880,12.33,-4.81,-1.73,-1.28,2.63,0.42,-45.0,12.75,-10.19,0.77,-0.34,-0.32,-0.44,1797
2881,13.21,-3.62,-2.56,-1.7,2.72,0.28,-43.19,14.56,-14.06,0.77,-0.34,-0.3,-0.45,1798
2882,16.72,-0.56,-2.9,-2.42,2.8,0.12,-43.19,14.56,-14.06,0.77,-0.35,-0.27,-0.46,1799
2883,19.18,0.34,-2.4,-3.09,2.85,0.01,-43.19,14.56,-14.06,0.77,-0.35,-0.27,-0.46,1800
2884,21.32,1.09,-0.78,-3.82,2.91,0.16,-43.19,14.56,-14.06,0.76,-0.36,-0.23,-0.48,1801
2885,21.9,1.65,1.57,-3.82,2.91,0.16,-43.19,14.56,-14.06,0.76,-0.36,-0.23,-0.48,1802
2886,15.25,5.19,4.81,-2.64,2.59,1.02,-39.88,16.37,-19.56,0.76,-0.38,-0.17,-0.5,1803
2887,13.48,6.0,8.57,-2.64,2.59,1.02,-39.88,16.37,-19.56,0.76,-0.38,-0.16,-0.5,1804
2888,13.43,3.4,11.72,-1.77,2.22,1.05,-39.88,16.37,-19.56,0.76,-0.38,-0.16,-0.5,1805
2889,13.73,1.22,11.55,-0.15,1.53,1.2,-39.88,16.37,-19.56,0.77,-0.37,-0.15,-0.49,1806
2890,12.64,-1.08,12.45,1.49,0.72,1.21,-35.5,21.75,-21.87,0.77,-0.37,-0.15,-0.49,1807
2891,10.79,-2.66,12.6,1.49,0.72,1.21,-35.5,21.75,-21.87,0.79,-0.36,-0.15,-0.48,1808
2892,6.56,-3.04,12.67,2.01,0.42,0.87,-35.5,21.75,-21.87,0.79,-0.36,-0.15,-0.48,1809
2893,4.31,-4.17,14.05,2.04,0.46,0.64,-35.5,21.75,-21.87,0.79,-0.35,-0.15,-0.48,1810
2894,3.35,-4.75,11.55,1.72,0.55,0.47,-35.5,21.75,-21.87,0.8,-0.34,-0.16,-0.48,1811
2895,3.75,-4.73,7.76,1.03,0.17,0.12,-33.69,23.0,-24.37,0.8,-0.34,-0.16,-0.47,1812
2896,6.15,-4.49,6.21,0.77,-0.48,-0.2,-33.69,23.0,-24.37,0.8,-0.33,-0.17,-0.47,1813
2897,7.07,-3.81,6.02,0.63,-1.05,-0.34,-33.69,23.0,-24.37,0.8,-0.33,-0.17,-0.47,1814
2898,6.95,-2.85,6.48,0.66,-1.95,-0.42,-33.69,23.0,-24.37,0.8,-0.34,-0.18,-0.47,1815
2899,4.49,-1.47,7.9,0.66,-1.95,-0.42,-33.69,23.0,-24.37,0.8,-0.34,-0.18,-0.47,1816
2900,4.0,-2.76,7.87,1.23,-2.9,-0.86,-33.25,22.19,-26.69,0.79,-0.34,-0.24,-0.46,1817
2901,4.0,-2.76,7.87,1.23,-2.9,-0.86,-33.25,22.19,-26.69,0.78,-0.34,-0.25,-0.45,1818
2902,4.56,-4.04,8.15,1.15,-3.52,-0.95,-35.56,20.0,-24.0,0.78,-0.34,-0.27,-0.45,1819
2903,4.56,-4.04,8.15,1.15,-3.52,-0.95,-35.56,20.0,-24.0,0.77,-0.35,-0.29,-0.45,1820
2904,3.53,-4.26,8.49,0.84,-4.03,-0.94,-35.56,20.0,-24.0,0.77,-0.35,-0.31,-0.44,1821
2905,3.21,-4.12,8.53,0.66,-4.26,-1.0,-35.56,20.0,-24.0,0.76,-0.36,-0.33,-0.44,1822
2906,3.11,-4.03,8.12,0.47,-4.46,-1.07,-35.56,20.0,-24.0,0.75,-0.36,-0.35,-0.43,1823
2907,3.68,-3.75,8.48,0.28,-4.68,-1.13,-40.38,17.75,-18.19,0.74,-0.37,-0.37,-0.43,1824
2908,3.96,-3.6,8.72,0.14,-4.88,-1.14,-40.38,17.75,-18.19,0.72,-0.39,-0.4,-0.42,1825
2909,4.31,-3.13,8.48,-0.1,-4.99,-1.15,-40.38,17.75,-18.19,0.72,-0.39,-0.4,-0.42,1826
2910,4.64,-2.53,8.5,-0.2,-5.16,-1.36,-40.38,17.75,-18.19,0.69,-0.4,-0.44,-0.41,1827
2911,5.11,-1.71,8.35,-0.2,-5.16,-1.36,-40.38,17.75,-18.19,0.69,-0.4,-0.44,-0.41,1828
2912,5.32,-1.73,7.89,0.05,-5.17,-1.56,-44.69,16.25,-10.69,0.66,-0.42,-0.48,-0.4,1829
2913,5.55,-2.0,7.23,0.05,-5.17,-1.56,-44.69,16.25,-10.69,0.66,-0.42,-0.48,-0.4,1830
2914,5.72,-2.45,6.72,0.17,-5.18,-1.58,-44.69,16.25,-10.69,0.65,-0.42,-0.5,-0.39,1831
2915,6.29,-3.27,6.22,0.21,-5.19,-1.57,-44.69,16.25,-10.69,0.61,-0.43,-0.54,-0.38,1832
2916,6.76,-3.65,6.11,0.2,-5.19,-1.61,-44.69,16.25,-10.69,0.61,-0.43,-0.54,-0.38,1833
2917,7.21,-4.06,5.7,0.16,-5.15,-1.73,-46.37,13.25,1.5,0.58,-0.44,-0.58,-0.37,1834
2918,7.65,-4.15,4.95,0.02,-5.05,-1.87,-46.37,13.25,1.5,0.58,-0.44,-0.58,-0.37,1835
2919,8.12,-3.36,4.34,-0.14,-4.79,-1.91,-46.37,13.25,1.5,0.55,-0.45,-0.61,-0.36,1836
2920,8.36,-2.5,4.15,-0.14,-4.79,-1.91,-46.37,13.25,1.5,0.53,-0.45,-0.63,-0.35,1837
2921,8.64,-1.72,2.91,-0.23,-4.56,-1.87,-46.37,13.25,1.5,0.53,-0.45,-0.63,-0.35,1838
2922,9.16,-0.75,2.66,-0.19,-4.3,-1.82,-45.38,9.56,13.69,0.51,-0.45,-0.64,-0.35,1839
2923,9.33,-0.39,2.22,-0.0,-4.04,-1.61,-45.38,9.56,13.69,0.5,-0.45,-0.66,-0.34,1840
2924,9.25,0.13,1.75,0.1,-3.72,-1.31,-45.38,9.56,13.69,0.47,-0.46,-0.68,-0.33,1841
2925,8.73,0.7,0.15,0.24,-3.3,-1.01,-45.38,9.56,13.69,0.47,-0.46,-0.68,-0.33,1842
2926,6.62,1.17,-2.95,0.53,-2.77,-0.72,-45.38,9.56,13.69,0.46,-0.46,-0.69,-0.33,1843
2927,5.59,0.99,-4.09,1.01,-2.16,-0.43,-40.69,5.0,22.0,0.46,-0.46,-0.69,-0.32,1844
2928,5.59,0.99,-4.09,1.57,-1.46,-0.21,-40.69,5.0,22.0,0.45,-0.45,-0.7,-0.31,1845
2929,4.15,0.33,-5.67,2.07,-0.69,-0.1,-40.69,5.0,22.0,0.46,-0.44,-0.71,-0.3,1846
2930,4.13,-1.25,-3.51,2.45,0.08,0.01,-40.69,5.0,22.0,0.46,-0.44,-0.71,-0.3,1847
2931,4.13,-1.25,-3.51,2.56,0.82,0.2,-40.69,5.0,22.0,0.47,-0.44,-0.71,-0.29,1848
2932,4.62,-3.05,0.07,2.48,1.46,0.37,-38.88,5.56,28.25,0.48,-0.43,-0.71,-0.28,1849
2933,4.62,-3.05,0.07,2.48,1.46,0.37,-38.88,5.56,28.25,0.49,-0.43,-0.71,-0.28,1850
2934,4.65,-4.42,3.26,1.77,2.5,0.36,-38.88,5.56,28.25,0.5,-0.42,-0.7,-0.28,1851
2935,4.55,-4.51,3.87,1.28,3.03,0.32,-38.88,5.56,28.25,0.52,-0.41,-0.7,-0.28,1852
2936,4.77,-4.21,4.34,0.65,3.41,0.4,-38.88,5.56,28.25,0.54,-0.4,-0.68,-0.28,1853
2937,10.65,-3.46,0.76,0.27,3.26,0.46,-40.0,10.0,25.88,0.54,-0.4,-0.68,-0.28,1854
2938,17.7,-2.0,-13.35,0.1,1.67,0.11,-40.0,10.0,25.88,0.55,-0.4,-0.68,-0.29,1855
2939,25.02,-0.12,-14.78,0.06,-0.11,-1.12,-40.0,10.0,25.88,0.55,-0.4,-0.68,-0.29,1856
2940,33.28,0.9,-9.98,0.36,-0.29,-1.07,-40.0,10.0,25.88,0.55,-0.39,-0.68,-0.29,1857
2941,29.52,11.43,3.82,-0.01,1.72,0.37,-40.0,10.0,25.88,0.55,-0.39,-0.67,-0.29,1858
2942,29.52,11.43,3.82,2.34,3.18,0.89,-43.69,12.19,19.19,0.57,-0.39,-0.67,-0.29,1859
2943,-2.29,-7.45,7.7,4.06,3.08,0.22,-43.69,12.19,19.19,0.62,-0.34,-0.66,-0.26,1860
2944,-3.43,-13.89,10.71,3.84,2.7,-0.21,-43.69,12.19,19.19,0.62,-0.34,-0.66,-0.26,1861
2945,-1.64,-16.93,10.93,2.7,2.4,0.16,-43.69,12.19,19.19,0.63,-0.33,-0.65,-0.26,1862
2946,1.65,-15.97,10.33,0.49,2.14,0.39,-45.75,13.38,14.87,0.64,-0.33,-0.65,-0.26,1863
2947,1.65,-15.97,10.33,-1.9,1.97,-0.18,-45.75,13.38,14.87,0.64,-0.33,-0.64,-0.27,1864
2948,8.17,-2.24,8.96,-3.32,1.83,-0.6,-45.75,13.38,14.87,0.64,-0.34,-0.62,-0.3,1865
2949,10.0,1.55,8.41,-3.72,1.69,-0.54,-45.75,13.38,14.87,0.64,-0.34,-0.62,-0.3,1866
2950,11.85,4.4,8.34,-3.47,1.53,-0.29,-46.06,15.0,9.5,0.64,-0.36,-0.6,-0.32,1867
2951,14.95,7.84,7.36,-2.67,1.38,-0.13,-46.06,15.0,9.5,0.64,-0.36,-0.6,-0.32,1868
2952,14.9,7.41,6.23,-0.18,1.15,-0.03,-46.06,15.0,9.5,0.64,-0.36,-0.59,-0.33,1869
2953,13.48,5.62,4.93,-0.18,1.15,-0.03,-46.06,15.0,9.5,0.64,-0.36,-0.59,-0.33,1870
2954,9.46,1.17,3.42,0.76,1.04,0.07,-46.06,15.0,9.5,0.65,-0.35,-0.59,-0.33,1871
2955,8.23,-0.22,3.14,1.25,0.94,0.1,-46.06,15.0,9.5,0.65,-0.35,-0.59,-0.33,1872
2956,7.76,-1.17,3.01,1.38,0.84,0.1,-47.19,13.69,5.87,0.66,-0.34,-0.59,-0.33,1873
2957,7.98,-1.83,2.82,1.16,0.76,0.12,-47.19,13.69,5.87,0.66,-0.34,-0.59,-0.32,1874
2958,9.48,-3.0,2.39,0.75,0.7,0.09,-47.19,13.69,5.87,0.66,-0.34,-0.59,-0.32,1875
2959,10.11,-2.88,2.35,0.2,0.67,0.05,-47.19,13.69,5.87,0.67,-0.33,-0.58,-0.32,1876
2960,10.3,-2.29,2.36,-0.37,0.66,0.02,-47.19,13.69,5.87,0.67,-0.33,-0.58,-0.32,1877
2961,10.3,-2.29,2.36,-0.83,0.67,-0.01,-47.56,13.75,3.56,0.67,-0.34,-0.58,-0.33,1878
2962,9.31,-0.11,2.01,-1.08,0.66,-0.03,-47.56,13.75,3.56,0.67,-0.34,-0.57,-0.34,1879
2963,9.17,0.18,1.78,-1.11,0.64,-0.02,-47.56,13.75,3.56,0.67,-0.34,-0.57,-0.34,1880
2964,9.17,0.26,1.58,-0.89,0.57,0.01,-47.56,13.75,3.56,0.67,-0.34,-0.56,-0.34,1881
2965,9.23,0.16,1.09,-0.89,0.57,0.01,-47.56,13.75,3.56,0.67,-0.34,-0.56,-0.34,1882
2966,9.36,0.01,0.91,-0.79,0.55,0.0,-48.38,14.25,2.87,0.67,-0.35,-0.56,-0.35,1883
2967,9.56,-0.11,0.82,-0.73,0.54,-0.01,-48.38,14.25,2.87,0.67,-0.35,-0.56,-0.35,1884
2968,9.76,-0.15,0.7,-0.72,0.54,-0.01,-48.38,14.25,2.87,0.67,-0.35,-0.55,-0.35,1885
2969,9.8,0.11,0.57,-0.71,0.54,-0.02,-48.38,14.25,2.87,0.67,-0.35,-0.55,-0.36,1886
2970,9.63,0.33,0.42,-0.66,0.53,-0.03,-48.38,14.25,2.87,0.67,-0.35,-0.55,-0.36,1887
2971,9.45,0.45,0.28,-0.57,0.54,-0.04,-49.06,14.25,1.69,0.67,-0.35,-0.54,-0.36,1888
2972,9.3,0.84,0.21,-0.53,0.58,-0.03,-49.06,14.25,1.69,0.67,-0.35,-0.54,-0.36,1889
2973,8.99,2.1,0.42,-0.23,0.68,0.06,-49.06,14.25,1.69,0.67,-0.35,-0.54,-0.37,1890
2974,8.82,2.35,0.68,-0.23,0.68,0.06,-49.06,14.25,1.69,0.67,-0.35,-0.54,-0.37,1891
2975,8.6,2.16,0.95,0.09,0.73,0.15,-49.06,14.25,1.69,0.67,-0.35,-0.53,-0.37,1892
2976,8.44,1.31,1.06,0.45,0.77,0.24,-48.69,13.56,2.06,0.68,-0.35,-0.53,-0.37,1893
2977,8.44,1.31,1.06,0.64,0.82,0.33,-48.69,13.56,2.06,0.68,-0.35,-0.53,-0.37,1894
2978,8.95,-2.66,1.19,0.56,0.88,0.39,-48.69,13.56,2.06,0.69,-0.34,-0.52,-0.36,1895
2979,9.42,-3.18,1.15,0.32,0.96,0.36,-48.69,13.56,2.06,0.69,-0.34,-0.52,-0.36,1896
2980,9.42,-3.18,1.15,-0.01,1.05,0.29,-48.69,13.56,2.06,0.69,-0.34,-0.52,-0.36,1897
2981,10.03,-1.44,1.45,-0.25,1.12,0.22,-48.25,13.88,-1.5,0.7,-0.34,-0.52,-0.36,1898
2982,10.03,-1.44,1.45,-0.32,1.17,0.2,-48.25,13.88,-1.5,0.7,-0.34,-0.51,-0.36,1899
2983,9.9,-0.98,1.06,-0.32,1.23,0.23,-48.25,13.88,-1.5,0.7,-0.34,-0.51,-0.37,1900
2984,9.95,-1.36,0.48,-0.36,1.29,0.27,-48.25,13.88,-1.5,0.71,-0.34,-0.5,-0.37,1901
2985,10.01,-1.34,0.26,-0.48,1.36,0.29,-48.25,13.88,-1.5,0.71,-0.33,-0.49,-0.37,1902
2986,9.95,-0.69,0.43,-0.69,1.53,0.29,-48.38,15.06,-3.0,0.72,-0.33,-0.49,-0.37,1903
2987,9.95,-0.69,0.43,-0.69,1.53,0.29,-48.38,15.06,-3.0,0.72,-0.33,-0.48,-0.37,1904
2988,10.0,-0.51,1.51,-0.74,1.74,0.32,-48.38,15.06,-3.0,0.72,-0.33,-0.47,-0.38,1905
2989,10.15,-0.73,1.68,-0.77,1.83,0.35,-48.38,15.06,-3.0,0.73,-0.33,-0.46,-0.38,1906
2990,10.29,-1.07,1.92,-0.78,1.91,0.4,-48.38,16.5,-5.0,0.73,-0.33,-0.45,-0.38,1907
2991,10.28,-1.05,1.82,-0.79,1.99,0.43,-48.38,16.5,-5.0,0.74,-0.33,-0.45,-0.38,1908
2992,10.2,-0.93,1.56,-0.85,2.05,0.43,-48.38,16.5,-5.0,0.75,-0.33,-0.43,-0.39,1909
2993,10.09,-1.27,1.34,-0.88,2.11,0.45,-48.38,16.5,-5.0,0.75,-0.33,-0.43,-0.39,1910
2994,10.09,-1.27,1.34,-0.81,2.15,0.56,-48.38,16.5,-5.0,0.75,-0.33,-0.42,-0.39,1911
2995,10.06,-3.56,0.65,-0.74,2.23,0.68,-46.06,17.25,-10.5,0.76,-0.33,-0.41,-0.39,1912
2996,10.06,-3.56,0.65,-0.81,2.31,0.67,-46.06,17.25,-10.5,0.76,-0.33,-0.4,-0.39,1913
2997,10.41,-3.26,0.13,-0.87,2.38,0.6,-46.06,17.25,-10.5,0.77,-0.33,-0.37,-0.4,1914
2998,10.9,-3.45,-1.03,-0.92,2.47,0.56,-46.06,17.25,-10.5,0.77,-0.33,-0.37,-0.4,1915
2999,11.11,-3.78,-1.73,-0.96,2.58,0.54,-46.06,17.25,-10.5,0.78,-0.32,-0.35,-0.4,1916
3000,12.84,-2.96,-2.85,-1.53,2.87,0.32,-44.69,19.75,-13.19,0.79,-0.33,-0.32,-0.42,1917
3001,14.35,-2.55,-4.04,-2.08,3.0,0.1,-44.69,19.75,-13.19,0.79,-0.33,-0.32,-0.42,1918
3002,16.41,-2.26,-4.57,-2.69,3.1,-0.06,-44.69,19.75,-13.19,0.79,-0.33,-0.3,-0.43,1919
3003,18.79,-1.48,-3.97,-3.34,3.16,-0.12,-44.69,19.75,-13.19,0.79,-0.34,-0.28,-0.44,1920
3004,18.79,-1.48,-3.97,-3.82,3.2,-0.0,-42.19,22.0,-18.25,0.78,-0.34,-0.26,-0.45,1921
3005,19.82,2.5,4.09,-4.23,3.26,0.33,-42.19,22.0,-18.25,0.78,-0.35,-0.24,-0.46,1922
3006,18.27,4.65,5.78,-4.09,3.2,0.78,-42.19,22.0,-18.25,0.78,-0.36,-0.22,-0.46,1923
3007,16.4,6.28,5.02,-3.38,3.02,0.99,-42.19,22.0,-18.25,0.78,-0.37,-0.18,-0.47,1924
3008,13.38,6.31,13.06,-2.13,2.48,0.95,-42.19,22.0,-18.25,0.78,-0.37,-0.18,-0.47,1925
3009,12.5,3.21,15.77,-0.29,1.74,1.13,-38.5,24.87,-19.87,0.79,-0.36,-0.17,-0.46,1926
3010,11.28,0.85,14.23,0.71,1.24,1.36,-38.5,24.87,-19.87,0.79,-0.36,-0.17,-0.46,1927
3011,8.54,-2.14,12.42,2.01,0.82,1.19,-38.5,24.87,-19.87,0.8,-0.35,-0.17,-0.45,1928
3012,6.73,-3.29,12.58,2.01,0.82,1.19,-38.5,24.87,-19.87,0.8,-0.35,-0.17,-0.45,1929
3013,5.09,-3.73,13.66,2.2,0.72,1.06,-38.5,24.87,-19.87,0.81,-0.34,-0.17,-0.45,1930
3014,3.54,-4.59,13.89,2.03,0.66,0.92,-35.19,28.56,-22.75,0.82,-0.33,-0.17,-0.43,1931
3015,3.74,-4.9,8.69,1.58,0.55,0.75,-35.19,28.56,-22.75,0.82,-0.32,-0.17,-0.43,1932
3016,4.76,-5.01,7.24,1.03,0.11,0.47,-35.19,28.56,-22.75,0.83,-0.32,-0.17,-0.43,1933
3017,5.76,-4.89,6.58,0.77,-0.48,0.23,-35.19,28.56,-22.75,0.83,-0.32,-0.17,-0.43,1934
3018,5.76,-4.89,6.58,0.56,-1.06,0.12,-35.19,28.56,-22.75,0.83,-0.32,-0.18,-0.42,1935
3019,4.27,-2.85,7.47,0.46,-1.57,0.08,-33.75,26.75,-25.5,0.83,-0.32,-0.19,-0.42,1936
3020,4.27,-2.85,7.47,0.46,-1.98,0.02,-33.75,26.75,-25.5,0.83,-0.32,-0.2,-0.41,1937
3021,1.91,-1.89,7.93,0.61,-2.29,-0.1,-33.75,26.75,-25.5,0.83,-0.32,-0.22,-0.41,1938
3022,1.37,-2.36,8.28,0.82,-2.5,-0.26,-33.75,26.75,-25.5,0.83,-0.32,-0.22,-0.41,1939
3023,1.95,-2.98,8.12,1.03,-2.66,-0.4,-33.75,26.75,-25.5,0.82,-0.33,-0.25,-0.4,1940
3024,2.64,-3.67,7.82,1.17,-2.89,-0.54,-34.75,26.0,-23.87,0.82,-0.33,-0.25,-0.4,1941
3025,3.07,-4.21,7.8,1.25,-3.19,-0.65,-34.75,26.0,-23.87,0.81,-0.33,-0.28,-0.39,1942
3026,2.95,-4.84,8.53,1.24,-3.47,-0.72,-34.75,26.0,-23.87,0.81,-0.33,-0.28,-0.39,1943
3027,2.9,-4.91,8.21,1.05,-3.65,-0.8,-34.75,26.0,-23.87,0.81,-0.33,-0.3,-0.39,1944
3028,2.78,-4.94,7.74,0.81,-3.85,-0.91,-34.75,26.0,-23.87,0.8,-0.33,-0.32,-0.38,1945
3029,2.71,-4.8,7.23,0.61,-4.06,-1.02,-39.88,23.75,-16.75,0.8,-0.33,-0.33,-0.38,1946
3030,3.15,-4.18,7.48,0.46,-4.29,-1.11,-39.88,23.75,-16.75,0.78,-0.34,-0.37,-0.37,1947
3031,3.44,-4.02,8.17,0.4,-4.55,-1.17,-39.88,23.75,-16.75,0.78,-0.34,-0.37,-0.37,1948
3032,3.69,-3.98,8.46,0.04,-4.87,-1.27,-39.88,23.75,-16.75,0.76,-0.35,-0.41,-0.36,1949
3033,4.14,-3.86,8.27,0.04,-4.87,-1.27,-39.88,23.75,-16.75,0.76,-0.35,-0.41,-0.36,1950
3034,4.3,-3.81,8.01,-0.24,-4.99,-1.35,-44.19,22.0,-9.75,0.73,-0.37,-0.45,-0.36,1951
3035,4.6,-3.73,7.59,-0.51,-5.08,-1.44,-44.19,22.0,-9.75,0.73,-0.37,-0.45,-0.36,1952
3036,4.98,-3.52,7.34,-0.75,-5.18,-1.57,-44.19,22.0,-9.75,0.71,-0.38,-0.47,-0.36,1953
3037,5.55,-2.84,7.09,-0.86,-5.21,-1.69,-44.19,22.0,-9.75,0.68,-0.39,-0.51,-0.35,1954
3038,5.67,-2.57,6.69,-1.05,-5.18,-1.79,-44.19,22.0,-9.75,0.68,-0.39,-0.51,-0.35,1955
3039,5.9,-2.35,6.44,-1.29,-5.11,-1.86,-47.88,19.0,1.19,0.64,-0.41,-0.55,-0.35,1956
3040,6.33,-2.02,6.28,-1.43,-5.06,-1.9,-47.88,19.0,1.19,0.64,-0.41,-0.55,-0.35,1957
3041,6.33,-2.02,6.28,-1.38,-5.01,-1.97,-47.88,19.0,1.19,0.62,-0.42,-0.56,-0.35,1958
3042,8.98,-0.43,4.06,-0.82,-4.77,-2.11,-47.88,19.0,1.19,0.58,-0.43,-0.6,-0.35,1959
3043,8.86,-0.13,3.22,-0.22,-4.62,-2.05,-47.56,13.88,12.5,0.57,-0.43,-0.61,-0.35,1960
3044,8.71,-0.41,1.85,0.5,-4.42,-1.84,-47.56,13.88,12.5,0.54,-0.43,-0.65,-0.33,1961
3045,8.71,-0.82,2.49,1.02,-4.12,-1.63,-47.56,13.88,12.5,0.54,-0.43,-0.65,-0.33,1962
3046,8.97,-1.27,2.32,1.39,-3.84,-1.39,-47.56,13.88,12.5,0.53,-0.43,-0.66,-0.32,1963
3047,9.33,-1.39,1.46,1.49,-3.53,-1.08,-47.56,13.88,12.5,0.52,-0.42,-0.67,-0.31,1964
3048,9.33,-1.39,1.46,1.48,-3.14,-0.79,-43.25,9.38,23.19,0.51,-0.42,-0.69,-0.31,1965
3049,7.64,-0.63,-1.76,1.42,-2.61,-0.55,-43.25,9.38,23.19,0.5,-0.42,-0.7,-0.29,1966
3050,6.54,-0.38,-2.77,1.52,-1.99,-0.27,-43.25,9.38,23.19,0.5,-0.42,-0.7,-0.29,1967
3051,4.89,-0.52,-4.03,2.2,-0.57,0.22,-43.25,9.38,23.19,0.5,-0.41,-0.71,-0.27,1968
3052,4.29,-0.63,-3.62,2.2,-0.57,0.22,-43.25,9.38,23.19,0.5,-0.41,-0.71,-0.27,1969
3053,4.0,-1.02,-2.53,2.52,0.16,0.24,-39.38,8.75,28.38,0.51,-0.4,-0.72,-0.25,1970
3054,3.89,-1.71,-1.02,2.74,0.86,0.28,-39.38,8.75,28.38,0.51,-0.4,-0.72,-0.25,1971
3055,3.92,-3.66,1.43,2.79,1.53,0.42,-39.38,8.75,28.38,0.52,-0.39,-0.71,-0.24,1972
3056,4.05,-4.71,1.75,2.6,2.26,0.55,-39.38,8.75,28.38,0.55,-0.38,-0.7,-0.24,1973
3057,6.2,-5.56,-0.81,1.94,2.89,0.66,-39.38,8.75,28.38,0.55,-0.38,-0.7,-0.24,1974
3058,20.94,-2.96,-9.87,0.98,2.34,0.55,-36.75,12.06,27.87,0.57,-0.37,-0.7,-0.23,1975
3059,28.18,-4.61,-6.21,1.2,0.71,-0.28,-36.75,12.06,27.87,0.57,-0.37,-0.7,-0.23,1976
3060,32.32,-4.7,-0.37,1.53,1.54,0.25,-36.75,12.06,27.87,0.58,-0.36,-0.7,-0.22,1977
3061,29.51,1.74,2.57,1.53,1.54,0.25,-36.75,12.06,27.87,0.58,-0.36,-0.7,-0.22,1978
3062,12.57,0.88,-0.48,1.77,2.79,0.4,-36.75,12.06,27.87,0.59,-0.35,-0.69,-0.22,1979
3063,5.69,-1.21,2.23,2.22,3.13,0.05,-41.25,14.56,22.19,0.61,-0.34,-0.68,-0.22,1980
3064,0.41,-3.83,6.11,1.82,2.97,-0.15,-41.25,14.56,22.19,0.62,-0.33,-0.68,-0.22,1981
3065,-1.76,-7.2,8.7,1.47,2.64,-0.13,-41.25,14.56,22.19,0.64,-0.32,-0.66,-0.22,1982
3066,1.54,-10.42,9.77,0.61,2.34,-0.02,-41.25,14.56,22.19,0.64,-0.32,-0.66,-0.22,1983
3067,1.54,-10.42,9.77,-0.93,2.05,0.0,-41.25,14.56,22.19,0.64,-0.32,-0.66,-0.23,1984
3068,6.81,-5.1,9.03,-2.61,1.86,-0.21,-43.5,16.5,15.88,0.64,-0.33,-0.65,-0.24,1985
3069,6.81,-5.1,9.03,-3.7,1.72,-0.48,-43.5,16.5,15.88,0.64,-0.33,-0.64,-0.25,1986
3070,12.64,3.62,7.69,-3.91,1.56,-0.57,-43.5,16.5,15.88,0.64,-0.35,-0.62,-0.29,1987
3071,13.49,5.55,7.84,-3.58,1.39,-0.42,-43.5,16.5,15.88,0.64,-0.35,-0.62,-0.29,1988
3072,13.96,7.46,7.27,-2.65,1.2,0.01,-43.5,16.5,15.88,0.64,-0.36,-0.61,-0.3,1989
3073,12.01,7.62,5.19,-1.01,1.04,0.28,-46.06,14.75,13.88,0.64,-0.36,-0.61,-0.3,1990
3074,10.49,4.46,4.18,0.72,0.91,0.16,-46.06,14.75,13.88,0.65,-0.35,-0.61,-0.29,1991
3075,9.55,0.75,3.24,1.98,0.78,0.02,-46.06,14.75,13.88,0.65,-0.35,-0.61,-0.29,1992
3076,8.96,-2.21,2.54,2.54,0.66,0.04,-46.06,14.75,13.88,0.66,-0.34,-0.61,-0.29,1993
3077,8.53,-5.04,1.82,2.49,0.56,0.11,-46.06,14.75,13.88,0.66,-0.33,-0.61,-0.28,1994
3078,8.85,-5.23,1.54,1.89,0.52,0.15,-47.38,14.06,10.75,0.67,-0.33,-0.61,-0.28,1995
3079,9.41,-4.95,1.27,1.05,0.5,0.12,-47.38,14.06,10.75,0.67,-0.32,-0.61,-0.27,1996
3080,10.18,-2.6,1.04,0.21,0.5,0.06,-47.38,14.06,10.75,0.67,-0.32,-0.61,-0.27,1997
3081,10.18,-2.6,1.04,-0.5,0.51,0.01,-47.38,14.06,10.75,0.67,-0.32,-0.61,-0.27,1998
3082,9.97,-0.01,0.62,-0.95,0.53,-0.03,-47.38,14.06,10.75,0.67,-0.32,-0.6,-0.28,1999
3083,9.97,-0.01,0.62,-0.95,0.53,-0.03,-46.56,15.88,8.38,0.67,-0.33,-0.6,-0.28,2000
3084,9.4,0.24,-0.64,-1.01,0.55,-0.03,-46.56,15.88,8.38,0.67,-0.33,-0.6,-0.29,2001
3085,9.27,-0.05,-1.02,-0.71,0.6,0.06,-46.56,15.88,8.38,0.67,-0.33,-0.59,-0.29,2002
3086,9.27,-0.05,-1.02,-0.71,0.6,0.06,-46.56,15.88,8.38,0.67,-0.33,-0.59,-0.29,2003
3087,9.25,-0.06,-1.11,-0.58,0.63,0.06,-46.56,15.88,8.38,0.67,-0.33,-0.59,-0.29,2004
3088,9.17,-0.16,-1.18,-0.47,0.69,0.06,-47.88,14.87,8.38,0.68,-0.34,-0.58,-0.3,2005
3089,9.2,-0.01,-1.04,-0.46,0.76,0.09,-47.88,14.87,8.38,0.68,-0.34,-0.58,-0.3,2006
3090,9.2,-0.01,-1.04,-0.48,0.86,0.11,-47.88,14.87,8.38,0.68,-0.34,-0.58,-0.3,2007
3091,9.18,1.06,0.06,-0.5,0.95,0.13,-47.88,14.87,8.38,0.68,-0.34,-0.57,-0.31,2008
3092,9.12,1.19,0.52,-0.46,1.03,0.15,-47.88,14.87,8.38,0.68,-0.34,-0.57,-0.31,2009
3093,9.04,1.24,1.02,-0.33,1.06,0.18,-47.06,13.88,7.0,0.69,-0.34,-0.57,-0.31,2010
