Count,Timestamp,IMU,AccelX,AccelY,AccelZ,GyroX,GyroY,GyroZ,MagX,MagY,MagZ,QuatW,QuatX,QuatY,QuatZ
1,00:00:05.684,IMU7,1.82,3.53,-9.08,0.0,0.0,0.0,0.0,0.0,0.0,0.0,0.0,0.0,0.0
1,00:00:05.684,IMU5,6.81,-0.44,7.03,0.0,0.0,0.0,0.0,0.0,0.0,0.0,0.0,0.0,0.0
1,00:00:05.684,IMU1,9.34,1.36,3.2,0.0,0.0,0.0,0.0,0.0,0.0,0.0,0.0,0.0,0.0
2,00:00:05.688,IMU7,1.74,3.49,-9.16,0.0,0.0,0.0,0.0,0.0,0.0,0.0,0.0,0.0,0.0
2,00:00:05.688,IMU5,6.85,-0.44,7.07,0.0,0.0,0.0,0.0,0.0,0.0,0.0,0.0,0.0,0.0
2,00:00:05.688,IMU1,9.3,1.36,3.2,0.0,0.0,0.0,0.0,0.0,0.0,0.0,0.0,0.0,0.0
3,00:00:05.693,IMU7,1.78,3.49,-9.2,0.0,0.0,0.0,0.0,0.0,0.0,0.0,0.0,0.0,0.0
3,00:00:05.693,IMU5,6.85,-0.48,7.03,0.0,0.0,0.0,0.0,0.0,0.0,0.0,0.0,0.0,0.0
3,00:00:05.693,IMU1,9.26,1.32,3.16,0.0,0.0,0.0,0.0,0.0,0.0,0.0,0.0,0.0,0.0
53,00:00:05.912,IMU7,1.78,3.53,-9.2,0.03,0.0,0.0,21.62,4.0,30.38,0.47,0.86,0.2,0.01
53,00:00:05.912,IMU5,6.81,-0.44,7.03,0.0,0.0,0.0,5.81,-11.75,-34.81,0.31,-0.22,0.79,0.48
53,00:00:05.912,IMU1,9.34,1.28,3.08,-0.01,0.0,0.0,-19.06,13.69,-27.38,0.28,-0.52,0.28,0.76
54,00:00:05.918,IMU7,1.78,3.53,-9.2,0.03,0.0,0.0,21.62,4.0,30.38,0.47,0.86,0.2,0.01
54,00:00:05.918,IMU5,6.81,-0.44,7.03,0.0,0.0,0.0,5.81,-11.75,-34.81,0.31,-0.22,0.79,0.48
54,00:00:05.918,IMU1,9.34,1.28,3.08,0.0,-0.0,0.0,-19.06,13.69,-27.38,0.28,-0.52,0.28,0.76
55,00:00:05.921,IMU7,1.78,3.53,-9.2,0.01,0.0,0.0,21.62,4.0,30.38,0.47,0.86,0.2,0.01
55,00:00:05.921,IMU5,6.81,-0.44,7.03,0.0,0.0,0.0,5.81,-11.75,-34.81,0.31,-0.22,0.79,0.48
55,00:00:05.921,IMU1,9.34,1.28,3.08,0.0,-0.0,0.0,-19.06,13.69,-27.38,0.28,-0.52,0.28,0.76
56,00:00:05.927,IMU7,1.78,3.53,-9.2,0.01,0.0,0.0,21.62,4.0,30.38,0.47,0.86,0.2,0.01
56,00:00:05.927,IMU5,6.81,-0.44,7.03,0.0,0.0,0.0,6.56,-13.44,-33.88,0.31,-0.22,0.79,0.48
56,00:00:05.927,IMU1,9.3,1.32,3.12,0.0,-0.0,0.0,-19.06,13.69,-27.38,0.28,-0.52,0.28,0.76
57,00:00:05.931,IMU7,1.78,3.53,-9.2,-0.04,-0.0,-0.01,21.62,4.0,30.38,0.47,0.86,0.2,0.01
57,00:00:05.931,IMU5,6.81,-0.44,7.03,0.0,0.0,0.0,6.56,-13.44,-33.88,0.31,-0.22,0.79,0.48
57,00:00:05.931,IMU1,9.3,1.32,3.12,0.0,-0.0,0.0,-17.5,15.0,-25.62,0.28,-0.52,0.28,0.76
58,00:00:05.934,IMU7,1.78,3.53,-9.2,-0.04,-0.0,-0.01,21.62,4.0,30.38,0.47,0.86,0.2,0.01
58,00:00:05.934,IMU5,6.81,-0.44,7.03,0.0,0.0,0.0,6.56,-13.44,-33.88,0.31,-0.22,0.79,0.48
58,00:00:05.934,IMU1,9.3,1.32,3.12,0.0,-0.0,-0.0,-17.5,15.0,-25.62,0.28,-0.52,0.28,0.76
59,00:00:05.939,IMU7,1.74,3.61,-9.12,-0.04,-0.0,-0.01,21.62,4.0,30.38,0.47,0.86,0.2,0.01
59,00:00:05.939,IMU5,6.81,-0.44,7.03,0.0,0.0,0.0,6.56,-13.44,-33.88,0.31,-0.22,0.79,0.48
59,00:00:05.939,IMU1,9.3,1.32,3.12,0.0,-0.0,-0.0,-17.5,15.0,-25.62,0.28,-0.52,0.28,0.76
60,00:00:05.944,IMU7,1.74,3.61,-9.12,-0.04,-0.0,-0.01,21.06,8.81,27.88,0.47,0.86,0.2,0.01
60,00:00:05.944,IMU5,6.81,-0.44,7.03,0.0,0.0,0.0,6.56,-13.44,-33.88,0.31,-0.22,0.79,0.48
60,00:00:05.944,IMU1,9.3,1.32,3.12,-0.0,0.01,-0.0,-17.5,15.0,-25.62,0.28,-0.52,0.28,0.76
61,00:00:05.947,IMU7,1.74,3.61,-9.12,-0.08,-0.01,-0.01,21.06,8.81,27.88,0.47,0.86,0.2,0.01
61,00:00:05.947,IMU5,6.81,-0.44,7.03,0.0,-0.0,0.01,6.56,-13.44,-33.88,0.31,-0.22,0.79,0.48
61,00:00:05.947,IMU1,9.3,1.32,3.12,-0.0,0.01,-0.0,-17.5,15.0,-25.62,0.28,-0.52,0.28,0.76
62,00:00:05.953,IMU7,1.74,3.61,-9.12,-0.08,-0.01,-0.01,21.06,8.81,27.88,0.47,0.86,0.2,0.01
62,00:00:05.953,IMU5,6.81,-0.44,7.03,0.0,-0.0,0.01,6.56,-13.44,-33.88,0.31,-0.22,0.79,0.48
62,00:00:05.953,IMU1,9.34,1.32,3.16,-0.0,0.01,-0.0,-17.5,15.0,-25.62,0.28,-0.52,0.28,0.76
63,00:00:05.958,IMU7,1.74,3.61,-9.12,-0.07,-0.0,-0.01,21.06,8.81,27.88,0.47,0.86,0.2,0.01
63,00:00:05.958,IMU5,6.81,-0.44,7.03,0.0,0.0,0.0,6.56,-13.44,-33.88,0.31,-0.22,0.79,0.48
63,00:00:05.958,IMU1,9.34,1.32,3.16,-0.0,0.01,-0.0,-17.12,15.06,-26.31,0.28,-0.52,0.28,0.76
64,00:00:05.962,IMU7,1.74,3.61,-9.12,-0.07,-0.0,-0.01,21.06,8.81,27.88,0.47,0.86,0.2,0.01
64,00:00:05.962,IMU5,6.81,-0.44,7.03,0.0,0.0,0.0,6.56,-13.44,-33.88,0.31,-0.22,0.79,0.48
64,00:00:05.962,IMU1,9.34,1.32,3.16,0.0,0.01,0.0,-17.12,15.06,-26.31,0.28,-0.52,0.28,0.76
65,00:00:05.966,IMU7,1.74,3.61,-9.12,-0.02,0.0,-0.01,21.06,8.81,27.88,0.47,0.86,0.2,0.01
65,00:00:05.966,IMU5,6.85,-0.44,7.02,0.0,0.0,0.0,6.56,-13.44,-33.88,0.31,-0.22,0.79,0.48
65,00:00:05.966,IMU1,9.34,1.32,3.16,0.0,0.01,0.0,-17.12,15.06,-26.31,0.28,-0.52,0.28,0.76
66,00:00:05.971,IMU7,1.74,3.61,-9.12,-0.02,0.0,-0.01,21.06,8.81,27.88,0.47,0.86,0.2,0.01
66,00:00:05.971,IMU5,6.85,-0.44,7.02,0.0,0.0,0.0,5.12,-12.0,-34.88,0.31,-0.22,0.79,0.48
66,00:00:05.971,IMU1,9.3,1.28,3.12,0.0,0.01,0.0,-17.12,15.06,-26.31,0.28,-0.52,0.28,0.76
67,00:00:05.975,IMU7,1.74,3.61,-9.08,-0.02,0.0,-0.01,21.06,8.81,27.88,0.47,0.86,0.2,0.01
67,00:00:05.975,IMU5,6.85,-0.44,7.02,0.0,0.01,0.0,5.12,-12.0,-34.88,0.31,-0.22,0.79,0.48
67,00:00:05.975,IMU1,9.3,1.28,3.12,0.0,0.01,0.0,-17.12,15.06,-26.31,0.28,-0.52,0.28,0.76
68,00:00:05.979,IMU7,1.74,3.61,-9.08,-0.02,0.0,-0.01,21.0,9.12,28.31,0.47,0.86,0.2,0.01
68,00:00:05.979,IMU5,6.85,-0.44,7.02,0.0,0.01,0.0,5.12,-12.0,-34.88,0.31,-0.22,0.79,0.48
68,00:00:05.979,IMU1,9.3,1.28,3.12,-0.0,-0.0,0.0,-17.12,15.06,-26.31,0.28,-0.52,0.28,0.76
69,00:00:05.982,IMU7,1.74,3.61,-9.08,0.03,-0.01,0.0,21.0,9.12,28.31,0.47,0.86,0.2,0.01
69,00:00:05.982,IMU5,6.85,-0.44,7.02,0.0,0.0,-0.0,5.12,-12.0,-34.88,0.31,-0.22,0.79,0.48
69,00:00:05.982,IMU1,9.3,1.28,3.12,-0.0,-0.0,0.0,-17.12,15.06,-26.31,0.28,-0.52,0.28,0.76
70,00:00:05.987,IMU7,1.74,3.61,-9.08,0.03,-0.01,0.0,21.0,9.12,28.31,0.47,0.86,0.2,0.01
70,00:00:05.987,IMU5,6.85,-0.44,7.02,0.0,0.0,-0.0,5.12,-12.0,-34.88,0.31,-0.22,0.79,0.48
70,00:00:05.987,IMU1,9.3,1.28,3.12,0.0,-0.0,-0.01,-17.12,15.06,-26.31,0.28,-0.52,0.28,0.76
71,00:00:05.993,IMU7,1.78,3.53,-9.12,0.03,-0.01,0.0,21.0,9.12,28.31,0.47,0.86,0.2,0.01
71,00:00:05.993,IMU5,6.85,-0.44,7.02,0.01,-0.0,0.0,5.12,-12.0,-34.88,0.31,-0.22,0.79,0.48
71,00:00:05.993,IMU1,9.3,1.28,3.12,0.0,-0.0,-0.01,-17.12,15.06,-26.31,0.28,-0.52,0.28,0.76
72,00:00:06.000,IMU7,1.78,3.53,-9.12,0.06,-0.01,0.01,21.0,9.12,28.31,0.47,0.86,0.2,0.01
72,00:00:06.000,IMU5,6.85,-0.44,7.02,0.01,-0.0,0.0,5.12,-12.0,-34.88,0.31,-0.22,0.79,0.48
72,00:00:06.000,IMU1,9.3,1.28,3.12,-0.0,0.01,-0.0,-17.12,15.06,-26.31,0.28,-0.52,0.28,0.76
73,00:00:06.003,IMU7,1.78,3.53,-9.12,0.06,-0.01,0.01,20.94,8.12,28.25,0.47,0.86,0.2,0.01
73,00:00:06.003,IMU5,6.81,-0.4,7.02,0.01,-0.0,0.0,5.12,-12.0,-34.88,0.31,-0.22,0.79,0.48
73,00:00:06.003,IMU1,9.3,1.28,3.12,-0.0,0.01,-0.0,-17.12,15.06,-26.31,0.28,-0.52,0.28,0.76
74,00:00:06.010,IMU7,1.78,3.53,-9.12,0.06,-0.01,0.01,20.94,8.12,28.25,0.47,0.86,0.2,0.01
74,00:00:06.010,IMU5,6.81,-0.4,7.02,0.0,0.01,0.0,5.12,-12.0,-34.88,0.31,-0.22,0.79,0.48
74,00:00:06.010,IMU1,9.3,1.28,3.12,0.0,0.0,0.0,-17.12,15.06,-26.31,0.28,-0.52,0.28,0.76
75,00:00:06.013,IMU7,1.78,3.53,-9.12,0.05,-0.02,0.01,20.94,8.12,28.25,0.47,0.86,0.2,0.01
75,00:00:06.013,IMU5,6.81,-0.4,7.02,0.0,0.01,0.0,5.62,-12.5,-35.06,0.31,-0.22,0.79,0.48
75,00:00:06.013,IMU1,9.3,1.28,3.12,0.0,0.0,0.0,-17.12,15.06,-26.31,0.28,-0.52,0.28,0.76
76,00:00:06.019,IMU7,1.78,3.53,-9.12,0.05,-0.02,0.01,20.94,8.12,28.25,0.47,0.86,0.2,0.01
76,00:00:06.019,IMU5,6.81,-0.4,7.02,0.0,0.01,0.0,5.62,-12.5,-35.06,0.31,-0.22,0.79,0.48
76,00:00:06.019,IMU1,9.34,1.32,3.16,0.0,0.0,0.0,-17.12,15.06,-26.31,0.28,-0.52,0.28,0.76
77,00:00:06.022,IMU7,1.78,3.53,-9.12,0.05,0.0,0.0,20.94,8.12,28.25,0.47,0.86,0.2,0.01
77,00:00:06.022,IMU5,6.81,-0.4,7.02,0.0,0.0,0.0,5.62,-12.5,-35.06,0.31,-0.22,0.79,0.48
77,00:00:06.022,IMU1,9.34,1.32,3.16,0.0,0.0,0.0,-17.44,14.62,-26.75,0.28,-0.52,0.28,0.76
78,00:00:06.026,IMU7,1.78,3.53,-9.12,0.05,0.0,0.0,20.94,8.12,28.25,0.47,0.86,0.2,0.01
78,00:00:06.026,IMU5,6.81,-0.4,7.02,0.0,0.0,0.0,5.62,-12.5,-35.06,0.31,-0.22,0.79,0.48
78,00:00:06.026,IMU1,9.34,1.32,3.16,0.01,0.0,0.01,-17.44,14.62,-26.75,0.28,-0.52,0.28,0.76
79,00:00:06.031,IMU7,1.78,3.53,-9.12,0.11,0.04,-0.0,20.94,8.12,28.25,0.47,0.86,0.2,0.01
79,00:00:06.031,IMU5,6.81,-0.4,7.02,0.0,-0.0,0.0,5.62,-12.5,-35.06,0.31,-0.22,0.79,0.48
79,00:00:06.031,IMU1,9.34,1.32,3.16,0.01,0.0,0.01,-17.44,14.62,-26.75,0.28,-0.52,0.28,0.76
80,00:00:06.036,IMU7,1.78,3.53,-9.12,0.11,0.04,-0.0,20.94,8.12,28.25,0.47,0.86,0.2,0.01
80,00:00:06.036,IMU5,6.81,-0.4,7.02,0.0,-0.0,0.0,5.62,-12.5,-35.06,0.31,-0.22,0.79,0.48
80,00:00:06.036,IMU1,9.34,1.32,3.16,0.0,0.0,0.01,-17.44,14.62,-26.75,0.28,-0.52,0.28,0.76
81,00:00:06.040,IMU7,1.89,3.38,-9.28,0.11,0.04,-0.0,20.94,8.12,28.25,0.47,0.86,0.2,0.01
81,00:00:06.040,IMU5,6.81,-0.4,7.02,0.0,0.0,0.0,5.62,-12.5,-35.06,0.31,-0.22,0.79,0.48
81,00:00:06.040,IMU1,9.34,1.32,3.16,0.0,0.0,0.01,-17.44,14.62,-26.75,0.28,-0.52,0.28,0.76
82,00:00:06.045,IMU7,1.89,3.38,-9.28,0.11,0.04,-0.0,22.25,8.06,27.31,0.47,0.86,0.2,0.01
82,00:00:06.045,IMU5,6.81,-0.4,7.02,0.0,0.0,0.0,5.62,-12.5,-35.06,0.31,-0.22,0.79,0.48
82,00:00:06.045,IMU1,9.34,1.32,3.16,-0.0,0.01,-0.0,-17.44,14.62,-26.75,0.28,-0.52,0.28,0.76
83,00:00:06.049,IMU7,1.89,3.38,-9.28,0.18,0.04,0.02,22.25,8.06,27.31,0.47,0.86,0.2,0.01
83,00:00:06.049,IMU5,6.81,-0.44,7.03,0.0,0.0,0.0,5.62,-12.5,-35.06,0.31,-0.22,0.79,0.48
83,00:00:06.049,IMU1,9.34,1.32,3.16,-0.0,0.01,-0.0,-17.44,14.62,-26.75,0.28,-0.52,0.28,0.76
84,00:00:06.055,IMU7,1.89,3.38,-9.28,0.18,0.04,0.02,22.25,8.06,27.31,0.47,0.86,0.2,0.01
84,00:00:06.055,IMU5,6.81,-0.44,7.03,0.0,0.0,0.0,5.62,-12.5,-35.06,0.31,-0.22,0.79,0.48
84,00:00:06.055,IMU1,9.3,1.32,3.2,-0.0,0.01,-0.0,-17.44,14.62,-26.75,0.28,-0.52,0.28,0.76
85,00:00:06.058,IMU7,1.89,3.38,-9.28,0.11,0.03,0.03,22.25,8.06,27.31,0.47,0.86,0.2,0.01
85,00:00:06.058,IMU5,6.81,-0.44,7.03,0.0,0.0,0.0,5.81,-11.44,-36.06,0.31,-0.22,0.79,0.48
85,00:00:06.058,IMU1,9.3,1.32,3.2,-0.0,0.01,-0.0,-17.0,15.5,-25.88,0.28,-0.52,0.28,0.76
86,00:00:06.062,IMU7,1.89,3.38,-9.28,0.11,0.03,0.03,22.25,8.06,27.31,0.48,0.86,0.2,0.01
86,00:00:06.062,IMU5,6.81,-0.44,7.03,0.0,0.0,0.0,5.81,-11.44,-36.06,0.31,-0.22,0.79,0.48
86,00:00:06.062,IMU1,9.3,1.32,3.2,-0.01,0.01,-0.0,-17.0,15.5,-25.88,0.28,-0.52,0.28,0.76
87,00:00:06.066,IMU7,1.89,3.38,-9.28,-0.06,0.03,-0.01,22.25,8.06,27.31,0.48,0.86,0.2,0.01
87,00:00:06.066,IMU5,6.81,-0.44,7.03,-0.0,0.0,0.0,5.81,-11.44,-36.06,0.31,-0.22,0.79,0.48
87,00:00:06.066,IMU1,9.3,1.32,3.2,-0.01,0.01,-0.0,-17.0,15.5,-25.88,0.28,-0.52,0.28,0.76
88,00:00:06.074,IMU7,1.89,3.38,-9.28,-0.06,0.03,-0.01,22.25,8.06,27.31,0.48,0.86,0.2,0.01
88,00:00:06.074,IMU5,6.81,-0.44,7.03,-0.0,0.0,0.0,5.81,-11.44,-36.06,0.31,-0.22,0.79,0.48
88,00:00:06.074,IMU1,9.3,1.28,3.16,-0.01,0.01,-0.0,-17.0,15.5,-25.88,0.28,-0.52,0.28,0.76
89,00:00:06.077,IMU7,1.66,3.61,-9.08,-0.06,0.03,-0.01,22.25,8.06,27.31,0.48,0.86,0.2,0.01
89,00:00:06.077,IMU5,6.81,-0.44,7.03,-0.0,0.0,0.0,5.81,-11.44,-36.06,0.31,-0.22,0.79,0.48
89,00:00:06.077,IMU1,9.3,1.28,3.16,-0.0,-0.01,0.0,-17.0,15.5,-25.88,0.28,-0.52,0.28,0.76
90,00:00:06.080,IMU7,1.66,3.61,-9.08,-0.06,0.03,-0.01,21.81,8.06,27.75,0.48,0.86,0.2,0.01
90,00:00:06.080,IMU5,6.81,-0.44,7.03,-0.0,0.0,0.0,5.81,-11.44,-36.06,0.31,-0.22,0.79,0.48
90,00:00:06.080,IMU1,9.3,1.28,3.16,-0.0,-0.01,0.0,-17.75,14.12,-26.44,0.28,-0.52,0.28,0.76
91,00:00:06.086,IMU7,1.66,3.61,-9.08,-0.14,0.03,-0.05,21.81,8.06,27.75,0.48,0.86,0.2,0.01
91,00:00:06.086,IMU5,6.81,-0.44,7.03,0.0,0.0,-0.0,5.81,-11.44,-36.06,0.31,-0.22,0.79,0.48
91,00:00:06.086,IMU1,9.3,1.28,3.16,-0.0,-0.01,0.0,-17.75,14.12,-26.44,0.28,-0.52,0.28,0.76
92,00:00:06.093,IMU7,1.66,3.61,-9.08,-0.14,0.03,-0.05,21.81,8.06,27.75,0.47,0.86,0.2,0.01
92,00:00:06.093,IMU5,6.81,-0.44,7.03,0.0,0.0,-0.0,5.81,-11.44,-36.06,0.31,-0.22,0.79,0.48
92,00:00:06.093,IMU1,9.3,1.28,3.16,0.0,0.0,-0.0,-17.75,14.12,-26.44,0.28,-0.52,0.28,0.76
93,00:00:06.096,IMU7,1.66,3.61,-9.08,-0.15,0.03,-0.04,21.81,8.06,27.75,0.47,0.86,0.2,0.01
93,00:00:06.096,IMU5,6.85,-0.4,6.99,0.0,0.0,-0.0,5.81,-11.44,-36.06,0.31,-0.22,0.79,0.48
93,00:00:06.096,IMU1,9.3,1.28,3.16,0.0,0.0,-0.0,-17.75,14.12,-26.44,0.28,-0.52,0.28,0.76
94,00:00:06.101,IMU7,1.66,3.61,-9.08,-0.15,0.03,-0.04,21.81,8.06,27.75,0.47,0.86,0.2,0.01
94,00:00:06.101,IMU5,6.85,-0.4,6.99,0.0,0.0,-0.0,5.62,-11.19,-35.38,0.31,-0.22,0.79,0.48
94,00:00:06.101,IMU1,9.3,1.32,3.08,0.0,0.0,-0.0,-17.75,14.12,-26.44,0.28,-0.52,0.28,0.76
95,00:00:06.105,IMU7,1.66,3.61,-9.08,-0.05,0.03,-0.02,21.81,8.06,27.75,0.47,0.86,0.2,0.01
95,00:00:06.105,IMU5,6.85,-0.4,6.99,0.0,0.0,0.0,5.62,-11.19,-35.38,0.31,-0.22,0.79,0.48
95,00:00:06.105,IMU1,9.3,1.32,3.08,0.0,0.0,-0.0,-17.5,15.88,-25.69,0.28,-0.52,0.28,0.76
96,00:00:06.108,IMU7,1.66,3.61,-9.08,-0.05,0.03,-0.02,21.81,8.06,27.75,0.47,0.86,0.2,0.01
96,00:00:06.108,IMU5,6.85,-0.4,6.99,0.0,0.0,0.0,5.62,-11.19,-35.38,0.31,-0.22,0.79,0.48
96,00:00:06.108,IMU1,9.3,1.32,3.08,0.0,0.0,0.01,-17.5,15.88,-25.69,0.28,-0.52,0.28,0.76
97,00:00:06.113,IMU7,1.66,3.61,-9.08,0.09,-0.01,0.02,21.81,8.06,27.75,0.47,0.86,0.2,0.01
97,00:00:06.113,IMU5,6.85,-0.4,6.99,0.0,-0.0,-0.01,5.62,-11.19,-35.38,0.31,-0.22,0.79,0.48
97,00:00:06.113,IMU1,9.3,1.32,3.08,0.0,0.0,0.01,-17.5,15.88,-25.69,0.28,-0.52,0.28,0.76
98,00:00:06.120,IMU7,1.66,3.61,-9.08,0.09,-0.01,0.02,21.81,8.06,27.75,0.47,0.86,0.2,0.01
98,00:00:06.120,IMU5,6.85,-0.4,6.99,0.0,-0.0,-0.01,5.62,-11.19,-35.38,0.31,-0.22,0.79,0.48
98,00:00:06.120,IMU1,9.3,1.32,3.08,0.0,0.0,0.0,-17.5,15.88,-25.69,0.28,-0.52,0.28,0.76
99,00:00:06.123,IMU7,1.82,3.38,-9.27,0.09,-0.01,0.02,21.81,8.06,27.75,0.47,0.86,0.2,0.01
99,00:00:06.123,IMU5,6.77,-0.44,6.99,0.0,-0.0,-0.01,5.62,-11.19,-35.38,0.31,-0.22,0.79,0.48
99,00:00:06.123,IMU1,9.3,1.32,3.08,0.0,0.0,0.0,-17.5,15.88,-25.69,0.28,-0.52,0.28,0.76
100,00:00:06.128,IMU7,1.82,3.38,-9.27,0.09,-0.01,0.02,21.12,8.81,27.56,0.47,0.86,0.2,0.01
100,00:00:06.128,IMU5,6.77,-0.44,6.99,0.0,-0.0,-0.01,5.44,-11.19,-35.0,0.31,-0.22,0.79,0.48
100,00:00:06.128,IMU1,9.3,1.32,3.08,0.0,0.0,-0.0,-17.5,15.88,-25.69,0.28,-0.52,0.28,0.76
101,00:00:06.132,IMU7,1.82,3.38,-9.27,0.09,-0.01,0.05,21.12,8.81,27.56,0.47,0.86,0.2,0.01
101,00:00:06.132,IMU5,6.77,-0.44,6.99,0.01,-0.0,0.0,5.44,-11.19,-35.0,0.31,-0.22,0.79,0.48
101,00:00:06.132,IMU1,9.3,1.32,3.08,0.0,0.0,-0.0,-17.5,15.88,-25.69,0.28,-0.52,0.28,0.76
102,00:00:06.137,IMU7,1.82,3.38,-9.27,0.09,-0.01,0.05,21.12,8.81,27.56,0.47,0.86,0.2,0.01
102,00:00:06.137,IMU5,6.77,-0.44,6.99,0.01,-0.0,0.0,5.44,-11.19,-35.0,0.31,-0.22,0.79,0.48
102,00:00:06.137,IMU1,9.3,1.32,3.16,0.0,0.0,-0.0,-17.5,15.88,-25.69,0.28,-0.52,0.28,0.76
103,00:00:06.140,IMU7,1.82,3.38,-9.27,0.02,0.01,0.02,21.12,8.81,27.56,0.47,0.86,0.2,0.01
103,00:00:06.140,IMU5,6.77,-0.44,6.99,0.0,0.0,-0.0,5.44,-11.19,-35.0,0.31,-0.22,0.79,0.48
103,00:00:06.140,IMU1,9.3,1.32,3.16,0.0,0.0,-0.0,-16.56,15.06,-25.0,0.28,-0.52,0.28,0.76
104,00:00:06.145,IMU7,1.82,3.38,-9.27,0.02,0.01,0.02,21.12,8.81,27.56,0.47,0.86,0.2,0.01
104,00:00:06.145,IMU5,6.77,-0.44,6.99,0.0,0.0,-0.0,5.44,-11.19,-35.0,0.31,-0.22,0.79,0.48
104,00:00:06.145,IMU1,9.3,1.32,3.16,-0.0,0.0,-0.0,-16.56,15.06,-25.0,0.28,-0.52,0.28,0.76
105,00:00:06.150,IMU7,1.89,3.26,-9.16,0.02,0.01,0.02,21.12,8.81,27.56,0.47,0.86,0.2,0.01
105,00:00:06.150,IMU5,6.77,-0.44,6.99,0.0,0.0,-0.0,5.44,-11.19,-35.0,0.31,-0.22,0.79,0.48
105,00:00:06.150,IMU1,9.3,1.32,3.16,-0.0,0.0,-0.0,-16.56,15.06,-25.0,0.28,-0.52,0.28,0.76
106,00:00:06.155,IMU7,1.89,3.26,-9.16,0.02,0.01,0.02,21.75,9.88,28.25,0.47,0.86,0.2,0.01
106,00:00:06.155,IMU5,6.77,-0.44,6.99,0.0,0.0,-0.0,5.44,-11.19,-35.0,0.31,-0.22,0.79,0.48
106,00:00:06.155,IMU1,9.3,1.32,3.16,-0.01,0.0,0.0,-16.56,15.06,-25.0,0.28,-0.52,0.28,0.76
107,00:00:06.158,IMU7,1.89,3.26,-9.16,-0.04,0.04,-0.02,21.75,9.88,28.25,0.47,0.86,0.2,0.01
107,00:00:06.158,IMU5,6.77,-0.44,6.99,0.0,0.0,-0.0,5.5,-11.56,-35.31,0.31,-0.22,0.79,0.48
107,00:00:06.158,IMU1,9.3,1.32,3.16,-0.01,0.0,0.0,-16.56,15.06,-25.0,0.28,-0.52,0.28,0.76
108,00:00:06.162,IMU7,1.89,3.26,-9.16,-0.04,0.04,-0.02,21.75,9.88,28.25,0.47,0.86,0.2,0.01
108,00:00:06.162,IMU5,6.77,-0.44,6.99,0.0,0.0,-0.0,5.5,-11.56,-35.31,0.31,-0.22,0.79,0.48
108,00:00:06.162,IMU1,9.3,1.32,3.16,0.0,0.0,0.0,-16.56,15.06,-25.0,0.28,-0.52,0.28,0.76
109,00:00:06.166,IMU7,1.89,3.26,-9.16,-0.01,0.05,-0.04,21.75,9.88,28.25,0.47,0.86,0.2,0.01
109,00:00:06.166,IMU5,6.77,-0.44,6.99,0.0,-0.0,0.01,5.5,-11.56,-35.31,0.31,-0.22,0.79,0.48
109,00:00:06.166,IMU1,9.3,1.32,3.16,0.0,0.0,0.0,-16.56,15.06,-25.0,0.28,-0.52,0.28,0.76
110,00:00:06.173,IMU7,1.89,3.26,-9.16,-0.01,0.05,-0.04,21.75,9.88,28.25,0.47,0.86,0.2,0.01
110,00:00:06.173,IMU5,6.77,-0.44,6.99,0.0,-0.0,0.01,5.5,-11.56,-35.31,0.31,-0.22,0.79,0.48
110,00:00:06.173,IMU1,9.3,1.28,3.16,0.0,0.0,0.0,-16.56,15.06,-25.0,0.28,-0.52,0.28,0.76
111,00:00:06.177,IMU7,1.7,3.72,-9.0,-0.01,0.05,-0.04,21.75,9.88,28.25,0.47,0.86,0.2,0.01
111,00:00:06.177,IMU5,6.77,-0.44,6.99,0.0,-0.0,0.0,5.5,-11.56,-35.31,0.31,-0.22,0.79,0.48
111,00:00:06.177,IMU1,9.3,1.28,3.16,0.0,0.0,0.0,-16.75,14.19,-25.81,0.28,-0.52,0.28,0.76
112,00:00:06.180,IMU7,1.7,3.72,-9.0,-0.07,0.03,-0.04,21.75,9.88,28.25,0.47,0.86,0.2,0.01
112,00:00:06.180,IMU5,6.77,-0.44,6.99,0.0,-0.0,0.0,5.5,-11.56,-35.31,0.31,-0.22,0.79,0.48
112,00:00:06.180,IMU1,9.3,1.28,3.16,0.0,0.0,0.0,-16.75,14.19,-25.81,0.28,-0.52,0.28,0.76
113,00:00:06.187,IMU7,1.7,3.72,-9.0,-0.07,0.03,-0.04,22.12,9.0,25.94,0.47,0.86,0.2,0.01
113,00:00:06.187,IMU5,6.81,-0.44,6.99,0.0,-0.0,0.0,5.5,-11.56,-35.31,0.31,-0.22,0.79,0.48
113,00:00:06.187,IMU1,9.3,1.28,3.16,0.0,0.0,0.0,-16.75,14.19,-25.81,0.28,-0.52,0.28,0.76
114,00:00:06.192,IMU7,1.7,3.72,-9.0,-0.07,0.03,-0.04,22.12,9.0,25.94,0.47,0.86,0.2,0.01
114,00:00:06.192,IMU5,6.81,-0.44,6.99,-0.0,0.0,-0.0,5.5,-11.56,-35.31,0.31,-0.22,0.79,0.48
114,00:00:06.192,IMU1,9.3,1.28,3.16,0.0,-0.0,0.01,-16.75,14.19,-25.81,0.28,-0.52,0.28,0.76
115,00:00:06.196,IMU7,1.7,3.72,-9.0,-0.03,0.03,-0.02,22.12,9.0,25.94,0.47,0.86,0.2,0.01
115,00:00:06.196,IMU5,6.81,-0.44,6.99,-0.0,0.0,-0.0,5.62,-13.25,-33.75,0.31,-0.22,0.79,0.48
115,00:00:06.196,IMU1,9.3,1.28,3.16,0.0,-0.0,0.01,-16.75,14.19,-25.81,0.28,-0.52,0.28,0.76
116,00:00:06.202,IMU7,1.7,3.72,-9.0,-0.03,0.03,-0.02,22.12,9.0,25.94,0.47,0.86,0.2,0.01
116,00:00:06.202,IMU5,6.81,-0.44,6.99,-0.0,0.0,-0.0,5.62,-13.25,-33.75,0.31,-0.22,0.79,0.48
116,00:00:06.202,IMU1,9.3,1.28,3.16,0.01,-0.01,0.0,-16.75,14.19,-25.81,0.28,-0.52,0.28,0.76
117,00:00:06.208,IMU7,1.82,3.49,-9.2,-0.03,0.03,-0.02,22.12,9.0,25.94,0.47,0.86,0.2,0.01
117,00:00:06.208,IMU5,6.81,-0.44,6.99,0.0,0.0,-0.0,5.62,-13.25,-33.75,0.31,-0.22,0.79,0.48
117,00:00:06.208,IMU1,9.3,1.28,3.16,0.01,-0.01,0.0,-16.75,14.19,-25.81,0.28,-0.52,0.28,0.76
118,00:00:06.214,IMU7,1.82,3.49,-9.2,0.04,0.0,0.01,22.12,9.0,25.94,0.47,0.86,0.2,0.01
118,00:00:06.214,IMU5,6.81,-0.44,6.99,0.0,0.0,-0.0,5.62,-13.25,-33.75,0.31,-0.22,0.79,0.48
118,00:00:06.214,IMU1,9.3,1.28,3.16,0.0,0.0,0.0,-16.75,14.19,-25.81,0.28,-0.52,0.28,0.76
119,00:00:06.217,IMU7,1.82,3.49,-9.2,0.04,0.0,0.01,21.94,8.75,27.0,0.47,0.86,0.2,0.01
119,00:00:06.217,IMU5,6.81,-0.44,6.99,0.0,0.0,-0.01,5.62,-13.25,-33.75,0.31,-0.22,0.79,0.48
119,00:00:06.217,IMU1,9.3,1.28,3.16,0.0,0.0,0.0,-16.75,14.19,-25.81,0.28,-0.52,0.28,0.76
120,00:00:06.222,IMU7,1.82,3.49,-9.2,0.04,0.0,0.01,21.94,8.75,27.0,0.47,0.86,0.2,0.01
120,00:00:06.222,IMU5,6.81,-0.44,6.99,0.0,0.0,-0.01,5.62,-13.25,-33.75,0.31,-0.22,0.79,0.48
120,00:00:06.222,IMU1,9.34,1.32,3.12,0.0,0.0,0.0,-16.75,14.19,-25.81,0.28,-0.52,0.28,0.76
121,00:00:06.225,IMU7,1.82,3.49,-9.2,0.06,-0.01,0.01,21.94,8.75,27.0,0.47,0.86,0.2,0.01
121,00:00:06.225,IMU5,6.81,-0.44,6.99,0.0,0.0,-0.0,5.62,-13.25,-33.75,0.31,-0.22,0.79,0.48
121,00:00:06.225,IMU1,9.34,1.32,3.12,0.0,0.0,0.0,-18.25,14.5,-26.12,0.28,-0.52,0.28,0.76
122,00:00:06.230,IMU7,1.82,3.49,-9.2,0.06,-0.01,0.01,21.94,8.75,27.0,0.47,0.86,0.2,0.01
122,00:00:06.230,IMU5,6.81,-0.44,6.99,0.0,0.0,-0.0,5.62,-13.25,-33.75,0.31,-0.22,0.79,0.48
122,00:00:06.230,IMU1,9.34,1.32,3.12,0.0,0.01,-0.0,-18.25,14.5,-26.12,0.28,-0.52,0.28,0.76
123,00:00:06.234,IMU7,1.82,3.49,-9.2,0.03,0.0,0.0,21.94,8.75,27.0,0.47,0.86,0.2,0.01
123,00:00:06.234,IMU5,6.85,-0.4,7.03,0.0,0.0,-0.0,5.62,-13.25,-33.75,0.31,-0.22,0.79,0.48
123,00:00:06.234,IMU1,9.34,1.32,3.12,0.0,0.01,-0.0,-18.25,14.5,-26.12,0.28,-0.52,0.28,0.76
124,00:00:06.240,IMU7,1.82,3.49,-9.2,0.03,0.0,0.0,21.94,8.75,27.0,0.47,0.86,0.2,0.01
124,00:00:06.240,IMU5,6.85,-0.4,7.03,0.0,0.0,-0.0,5.94,-11.0,-34.62,0.31,-0.22,0.79,0.48
124,00:00:06.240,IMU1,9.34,1.32,3.12,0.0,0.0,0.0,-18.25,14.5,-26.12,0.28,-0.52,0.28,0.76
125,00:00:06.243,IMU7,1.78,3.53,-9.12,0.03,0.0,0.0,21.94,8.75,27.0,0.47,0.86,0.2,0.01
125,00:00:06.243,IMU5,6.85,-0.4,7.03,0.0,0.0,0.0,5.94,-11.0,-34.62,0.31,-0.22,0.79,0.48
125,00:00:06.243,IMU1,9.34,1.32,3.12,0.0,0.0,0.0,-18.25,14.5,-26.12,0.28,-0.52,0.28,0.76
126,00:00:06.248,IMU7,1.78,3.53,-9.12,0.02,0.0,0.0,21.94,8.75,27.0,0.47,0.86,0.2,0.01
126,00:00:06.248,IMU5,6.85,-0.4,7.03,0.0,0.0,0.0,5.94,-11.0,-34.62,0.31,-0.22,0.79,0.48
126,00:00:06.248,IMU1,9.3,1.32,3.12,0.0,0.0,0.0,-18.25,14.5,-26.12,0.28,-0.52,0.28,0.76
127,00:00:06.251,IMU7,1.78,3.53,-9.12,0.02,0.0,0.0,21.12,8.44,27.5,0.47,0.86,0.2,0.01
127,00:00:06.251,IMU5,6.85,-0.4,7.03,0.01,0.0,0.0,5.94,-11.0,-34.62,0.31,-0.22,0.79,0.48
127,00:00:06.251,IMU1,9.3,1.32,3.12,0.0,0.0,0.0,-17.25,15.5,-25.94,0.28,-0.52,0.28,0.76
128,00:00:06.256,IMU7,1.78,3.53,-9.12,0.02,0.0,0.0,21.12,8.44,27.5,0.47,0.86,0.2,0.01
128,00:00:06.256,IMU5,6.85,-0.4,7.03,0.01,0.0,0.0,5.94,-11.0,-34.62,0.31,-0.22,0.79,0.48
128,00:00:06.256,IMU1,9.3,1.32,3.12,-0.0,0.0,0.0,-17.25,15.5,-25.94,0.28,-0.52,0.28,0.76
129,00:00:06.261,IMU7,1.78,3.53,-9.12,0.02,0.0,0.01,21.12,8.44,27.5,0.47,0.86,0.2,0.01
129,00:00:06.261,IMU5,6.85,-0.44,7.02,0.01,0.0,0.0,5.94,-11.0,-34.62,0.31,-0.22,0.79,0.48
129,00:00:06.261,IMU1,9.3,1.32,3.12,-0.0,0.0,0.0,-17.25,15.5,-25.94,0.28,-0.52,0.28,0.76
130,00:00:06.268,IMU7,1.78,3.53,-9.12,0.02,0.0,0.01,21.12,8.44,27.5,0.47,0.86,0.2,0.01
130,00:00:06.268,IMU5,6.85,-0.44,7.02,-0.0,-0.0,-0.0,5.94,-11.0,-34.62,0.31,-0.22,0.79,0.48
130,00:00:06.268,IMU1,9.3,1.32,3.12,-0.0,0.0,-0.0,-17.25,15.5,-25.94,0.28,-0.52,0.28,0.76
131,00:00:06.271,IMU7,1.78,3.53,-9.12,0.01,0.01,0.01,21.12,8.44,27.5,0.47,0.86,0.2,0.01
131,00:00:06.271,IMU5,6.85,-0.44,7.02,-0.0,-0.0,-0.0,5.81,-11.19,-33.81,0.31,-0.22,0.79,0.48
131,00:00:06.271,IMU1,9.3,1.32,3.12,-0.0,0.0,-0.0,-17.25,15.5,-25.94,0.28,-0.52,0.28,0.76
132,00:00:06.276,IMU7,1.78,3.53,-9.12,0.01,0.01,0.01,21.12,8.44,27.5,0.47,0.86,0.2,0.01
132,00:00:06.276,IMU5,6.85,-0.44,7.02,-0.0,-0.0,-0.0,5.81,-11.19,-33.81,0.31,-0.22,0.79,0.48
132,00:00:06.276,IMU1,9.3,1.32,3.12,-0.0,0.0,0.01,-17.25,15.5,-25.94,0.28,-0.52,0.28,0.76
133,00:00:06.283,IMU7,1.78,3.61,-9.0,0.01,0.01,0.01,21.12,8.44,27.5,0.47,0.86,0.2,0.01
133,00:00:06.283,IMU5,6.85,-0.44,7.02,0.0,-0.0,0.0,5.81,-11.19,-33.81,0.31,-0.22,0.79,0.48
133,00:00:06.283,IMU1,9.3,1.32,3.12,-0.0,0.0,0.01,-17.25,15.5,-25.94,0.28,-0.52,0.28,0.76
134,00:00:06.290,IMU7,1.78,3.61,-9.0,-0.02,0.03,-0.01,21.12,8.44,27.5,0.47,0.86,0.2,0.01
134,00:00:06.290,IMU5,6.85,-0.44,7.02,0.0,-0.0,0.0,5.81,-11.19,-33.81,0.31,-0.22,0.79,0.48
134,00:00:06.290,IMU1,9.3,1.32,3.12,-0.0,-0.0,0.01,-17.25,15.5,-25.94,0.28,-0.52,0.28,0.76
135,00:00:06.293,IMU7,1.78,3.61,-9.0,-0.02,0.03,-0.01,21.56,8.0,26.69,0.47,0.86,0.2,0.01
135,00:00:06.293,IMU5,6.85,-0.44,7.02,0.0,0.0,0.0,5.81,-11.19,-33.81,0.31,-0.22,0.79,0.48
135,00:00:06.293,IMU1,9.3,1.32,3.12,-0.0,-0.0,0.01,-17.25,15.5,-25.94,0.28,-0.52,0.28,0.76
136,00:00:06.297,IMU7,1.78,3.61,-9.0,-0.02,0.03,-0.01,21.56,8.0,26.69,0.47,0.86,0.2,0.01
136,00:00:06.297,IMU5,6.85,-0.44,7.02,0.0,0.0,0.0,5.81,-11.19,-33.81,0.31,-0.22,0.79,0.48
136,00:00:06.297,IMU1,9.34,1.36,3.08,-0.0,-0.0,0.01,-17.25,15.5,-25.94,0.28,-0.52,0.28,0.76
137,00:00:06.303,IMU7,1.78,3.61,-9.0,0.03,-0.01,0.01,21.56,8.0,26.69,0.47,0.86,0.2,0.01
137,00:00:06.303,IMU5,6.85,-0.44,7.02,0.0,0.0,-0.0,5.81,-11.19,-33.81,0.31,-0.22,0.79,0.48
137,00:00:06.303,IMU1,9.34,1.36,3.08,-0.0,-0.0,0.01,-18.12,13.75,-26.88,0.28,-0.52,0.28,0.76
138,00:00:06.308,IMU7,1.78,3.61,-9.0,0.03,-0.01,0.01,21.56,8.0,26.69,0.47,0.86,0.2,0.01
138,00:00:06.308,IMU5,6.85,-0.44,7.02,0.0,0.0,-0.0,5.81,-11.19,-33.81,0.31,-0.22,0.79,0.48
138,00:00:06.308,IMU1,9.34,1.36,3.08,0.0,0.0,-0.0,-18.12,13.75,-26.88,0.28,-0.52,0.28,0.76
139,00:00:06.315,IMU7,1.82,3.45,-9.23,0.03,-0.01,0.01,21.56,8.0,26.69,0.47,0.86,0.2,0.01
139,00:00:06.315,IMU5,6.85,-0.44,7.02,0.0,-0.01,-0.0,5.81,-11.19,-33.81,0.31,-0.22,0.79,0.48
139,00:00:06.315,IMU1,9.34,1.36,3.08,0.0,0.0,-0.0,-18.12,13.75,-26.88,0.28,-0.52,0.28,0.76
140,00:00:06.321,IMU7,1.82,3.45,-9.23,0.01,-0.01,0.01,21.56,8.0,26.69,0.47,0.86,0.2,0.01
140,00:00:06.321,IMU5,6.85,-0.44,7.02,0.0,-0.01,-0.0,5.81,-11.19,-33.81,0.31,-0.22,0.79,0.48
140,00:00:06.321,IMU1,9.34,1.36,3.08,0.01,0.0,-0.01,-18.12,13.75,-26.88,0.28,-0.52,0.28,0.76
141,00:00:06.324,IMU7,1.82,3.45,-9.23,0.01,-0.01,0.01,21.81,9.12,27.81,0.47,0.86,0.2,0.01
141,00:00:06.324,IMU5,6.81,-0.44,7.03,0.0,-0.01,-0.0,5.81,-11.19,-33.81,0.31,-0.22,0.79,0.48
141,00:00:06.324,IMU1,9.34,1.36,3.08,0.01,0.0,-0.01,-18.12,13.75,-26.88,0.28,-0.52,0.28,0.76
142,00:00:06.330,IMU7,1.82,3.45,-9.23,0.01,-0.01,0.01,21.81,9.12,27.81,0.47,0.86,0.2,0.01
142,00:00:06.330,IMU5,6.81,-0.44,7.03,0.0,-0.01,-0.0,5.12,-12.0,-34.88,0.31,-0.22,0.79,0.48
142,00:00:06.330,IMU1,9.3,1.36,3.12,0.01,0.0,-0.01,-18.12,13.75,-26.88,0.28,-0.52,0.28,0.76
143,00:00:06.333,IMU7,1.82,3.45,-9.23,-0.03,0.01,0.0,21.81,9.12,27.81,0.47,0.86,0.2,0.01
143,00:00:06.333,IMU5,6.81,-0.44,7.03,0.0,-0.0,-0.0,5.12,-12.0,-34.88,0.31,-0.22,0.79,0.48
143,00:00:06.333,IMU1,9.3,1.36,3.12,0.01,0.0,-0.01,-18.25,13.81,-27.62,0.28,-0.52,0.28,0.76
144,00:00:06.336,IMU7,1.82,3.45,-9.23,-0.03,0.01,0.0,21.81,9.12,27.81,0.47,0.86,0.2,0.01
144,00:00:06.336,IMU5,6.81,-0.44,7.03,0.0,-0.0,-0.0,5.12,-12.0,-34.88,0.31,-0.22,0.79,0.48
144,00:00:06.336,IMU1,9.3,1.36,3.12,-0.0,-0.0,0.01,-18.25,13.81,-27.62,0.28,-0.52,0.28,0.76
145,00:00:06.341,IMU7,1.82,3.45,-9.23,-0.05,0.0,-0.01,21.81,9.12,27.81,0.47,0.86,0.2,0.01
145,00:00:06.341,IMU5,6.81,-0.44,7.03,0.0,0.0,-0.0,5.12,-12.0,-34.88,0.31,-0.22,0.79,0.48
145,00:00:06.341,IMU1,9.3,1.36,3.12,-0.0,-0.0,0.01,-18.25,13.81,-27.62,0.28,-0.52,0.28,0.76
146,00:00:06.347,IMU7,1.82,3.45,-9.23,-0.05,0.0,-0.01,21.81,9.12,27.81,0.47,0.86,0.2,0.01
146,00:00:06.347,IMU5,6.81,-0.44,7.03,0.0,0.0,-0.0,5.12,-12.0,-34.88,0.31,-0.22,0.79,0.48
146,00:00:06.347,IMU1,9.3,1.36,3.12,0.0,-0.01,0.01,-18.25,13.81,-27.62,0.28,-0.52,0.28,0.76
147,00:00:06.350,IMU7,1.82,3.45,-9.23,-0.02,-0.02,-0.03,21.81,9.12,27.81,0.47,0.86,0.2,0.01
147,00:00:06.350,IMU5,6.81,-0.44,7.03,-0.01,-0.01,0.0,5.12,-12.0,-34.88,0.31,-0.22,0.79,0.48
147,00:00:06.350,IMU1,9.3,1.36,3.12,0.0,-0.01,0.01,-18.25,13.81,-27.62,0.28,-0.52,0.28,0.76
148,00:00:06.354,IMU7,1.82,3.45,-9.23,-0.02,-0.02,-0.03,21.81,9.12,27.81,0.47,0.86,0.2,0.01
148,00:00:06.354,IMU5,6.81,-0.44,7.03,-0.01,-0.01,0.0,5.12,-12.0,-34.88,0.31,-0.22,0.79,0.48
148,00:00:06.354,IMU1,9.3,1.32,3.12,0.0,-0.01,0.01,-18.25,13.81,-27.62,0.28,-0.52,0.28,0.76
149,00:00:06.359,IMU7,1.89,3.53,-9.28,-0.02,-0.02,-0.03,21.81,9.12,27.81,0.47,0.86,0.2,0.01
149,00:00:06.359,IMU5,6.81,-0.44,7.03,0.0,-0.01,0.01,5.12,-12.0,-34.88,0.31,-0.22,0.79,0.48
149,00:00:06.359,IMU1,9.3,1.32,3.12,0.0,-0.01,0.01,-17.06,15.44,-24.81,0.28,-0.52,0.28,0.76
150,00:00:06.364,IMU7,1.89,3.53,-9.28,-0.09,-0.04,-0.04,21.81,9.12,27.81,0.47,0.86,0.2,0.01
150,00:00:06.364,IMU5,6.81,-0.44,7.03,0.0,-0.01,0.01,5.12,-12.0,-34.88,0.31,-0.22,0.79,0.48
150,00:00:06.364,IMU1,9.3,1.32,3.12,0.0,-0.0,-0.01,-17.06,15.44,-24.81,0.28,-0.52,0.28,0.76
151,00:00:06.368,IMU7,1.89,3.53,-9.28,-0.09,-0.04,-0.04,21.12,9.06,27.56,0.47,0.86,0.2,0.01
151,00:00:06.368,IMU5,6.81,-0.44,7.03,0.0,0.0,0.0,5.12,-12.0,-34.88,0.31,-0.22,0.79,0.48
151,00:00:06.368,IMU1,9.3,1.32,3.12,0.0,-0.0,-0.01,-17.06,15.44,-24.81,0.28,-0.52,0.28,0.76
152,00:00:06.373,IMU7,1.89,3.53,-9.28,-0.09,-0.04,-0.04,21.12,9.06,27.56,0.47,0.86,0.2,0.01
152,00:00:06.373,IMU5,6.81,-0.44,7.03,0.0,0.0,0.0,5.12,-12.0,-34.88,0.31,-0.22,0.79,0.48
152,00:00:06.373,IMU1,9.3,1.32,3.12,0.01,0.0,-0.01,-17.06,15.44,-24.81,0.28,-0.52,0.28,0.76
153,00:00:06.378,IMU7,1.89,3.53,-9.28,-0.11,0.01,-0.03,21.12,9.06,27.56,0.47,0.86,0.2,0.01
153,00:00:06.378,IMU5,6.81,-0.4,6.98,0.0,0.0,0.0,5.12,-12.0,-34.88,0.31,-0.22,0.79,0.48
153,00:00:06.378,IMU1,9.3,1.32,3.12,0.01,0.0,-0.01,-17.06,15.44,-24.81,0.28,-0.52,0.28,0.76
154,00:00:06.384,IMU7,1.89,3.53,-9.28,-0.11,0.01,-0.03,21.12,9.06,27.56,0.47,0.86,0.2,0.01
154,00:00:06.384,IMU5,6.81,-0.4,6.98,0.0,0.0,0.0,5.56,-12.0,-35.25,0.31,-0.22,0.79,0.48
154,00:00:06.384,IMU1,9.34,1.36,3.16,0.01,0.0,-0.01,-17.06,15.44,-24.81,0.28,-0.52,0.28,0.76
155,00:00:06.386,IMU7,1.89,3.53,-9.28,-0.08,0.01,-0.01,21.12,9.06,27.56,0.47,0.86,0.2,0.01
155,00:00:06.386,IMU5,6.81,-0.4,6.98,0.01,0.0,0.0,5.56,-12.0,-35.25,0.31,-0.22,0.79,0.48
155,00:00:06.386,IMU1,9.34,1.36,3.16,0.01,0.0,-0.01,-17.94,15.44,-26.5,0.28,-0.52,0.28,0.76
156,00:00:06.390,IMU7,1.89,3.53,-9.28,-0.08,0.01,-0.01,21.12,9.06,27.56,0.47,0.86,0.2,0.01
156,00:00:06.390,IMU5,6.81,-0.4,6.98,0.01,0.0,0.0,5.56,-12.0,-35.25,0.31,-0.22,0.79,0.48
156,00:00:06.390,IMU1,9.34,1.36,3.16,-0.0,-0.01,0.0,-17.94,15.44,-26.5,0.28,-0.52,0.28,0.76
157,00:00:06.397,IMU7,1.89,3.53,-9.28,-0.04,-0.0,-0.02,21.12,9.06,27.56,0.47,0.86,0.2,0.01
157,00:00:06.397,IMU5,6.81,-0.4,6.98,0.0,0.0,-0.0,5.56,-12.0,-35.25,0.31,-0.22,0.79,0.48
157,00:00:06.397,IMU1,9.34,1.36,3.16,-0.0,-0.01,0.0,-17.94,15.44,-26.5,0.28,-0.52,0.28,0.76
158,00:00:06.405,IMU7,1.89,3.53,-9.28,-0.04,-0.0,-0.02,21.12,9.06,27.56,0.47,0.86,0.2,0.01
158,00:00:06.405,IMU5,6.81,-0.4,6.98,0.0,0.0,-0.0,5.56,-12.0,-35.25,0.31,-0.22,0.79,0.48
158,00:00:06.405,IMU1,9.34,1.36,3.16,-0.0,-0.0,-0.0,-17.94,15.44,-26.5,0.28,-0.52,0.28,0.76
159,00:00:06.408,IMU7,1.78,3.57,-9.08,-0.04,-0.0,-0.02,21.12,9.06,27.56,0.47,0.86,0.2,0.01
159,00:00:06.408,IMU5,6.81,-0.4,6.98,0.0,-0.01,-0.0,5.56,-12.0,-35.25,0.31,-0.22,0.79,0.48
159,00:00:06.408,IMU1,9.34,1.36,3.16,-0.0,-0.0,-0.0,-17.94,15.44,-26.5,0.28,-0.52,0.28,0.76
160,00:00:06.413,IMU7,1.78,3.57,-9.08,-0.04,-0.0,-0.02,21.12,9.06,27.56,0.47,0.86,0.2,0.01
160,00:00:06.413,IMU5,6.81,-0.4,6.98,0.0,-0.01,-0.0,5.56,-12.0,-35.25,0.31,-0.22,0.79,0.48
160,00:00:06.413,IMU1,9.34,1.36,3.16,0.0,0.0,-0.0,-17.94,15.44,-26.5,0.28,-0.52,0.28,0.76
161,00:00:06.418,IMU7,1.78,3.57,-9.08,-0.02,-0.01,0.0,21.12,9.06,27.56,0.47,0.86,0.2,0.01
161,00:00:06.418,IMU5,6.81,-0.4,6.98,0.0,0.0,-0.0,5.56,-12.0,-35.25,0.31,-0.22,0.79,0.48
161,00:00:06.418,IMU1,9.34,1.36,3.16,0.0,0.0,-0.0,-17.94,15.44,-26.5,0.28,-0.52,0.28,0.76
162,00:00:06.423,IMU7,1.78,3.57,-9.08,-0.02,-0.01,0.0,21.12,9.06,27.56,0.47,0.86,0.2,0.01
162,00:00:06.423,IMU5,6.81,-0.4,6.98,0.0,0.0,-0.0,5.56,-12.0,-35.25,0.31,-0.22,0.79,0.48
162,00:00:06.423,IMU1,9.26,1.32,3.08,0.0,0.0,-0.0,-17.94,15.44,-26.5,0.28,-0.52,0.28,0.76
163,00:00:06.429,IMU7,1.78,3.49,-9.12,-0.02,-0.01,0.0,21.12,9.06,27.56,0.47,0.86,0.2,0.01
163,00:00:06.429,IMU5,6.81,-0.4,6.98,-0.0,0.0,-0.0,5.56,-12.0,-35.25,0.31,-0.22,0.79,0.48
163,00:00:06.429,IMU1,9.26,1.32,3.08,0.0,0.0,-0.0,-17.44,15.0,-25.19,0.28,-0.52,0.28,0.76
164,00:00:06.434,IMU7,1.78,3.49,-9.12,-0.03,-0.01,-0.01,21.12,9.06,27.56,0.47,0.86,0.2,0.01
164,00:00:06.434,IMU5,6.81,-0.4,6.98,-0.0,0.0,-0.0,5.56,-12.0,-35.25,0.31,-0.22,0.79,0.48
164,00:00:06.434,IMU1,9.26,1.32,3.08,-0.0,0.0,0.01,-17.44,15.0,-25.19,0.28,-0.52,0.28,0.76
165,00:00:06.438,IMU7,1.78,3.49,-9.12,-0.03,-0.01,-0.01,21.75,9.12,28.19,0.47,0.86,0.2,0.01
165,00:00:06.438,IMU5,6.81,-0.44,7.03,-0.0,0.0,-0.0,5.56,-12.0,-35.25,0.31,-0.22,0.79,0.48
165,00:00:06.438,IMU1,9.26,1.32,3.08,-0.0,0.0,0.01,-17.44,15.0,-25.19,0.28,-0.52,0.28,0.76
166,00:00:06.442,IMU7,1.78,3.49,-9.12,-0.03,-0.01,-0.01,21.75,9.12,28.19,0.47,0.86,0.2,0.01
166,00:00:06.442,IMU5,6.81,-0.44,7.03,-0.0,0.0,-0.0,5.81,-12.88,-33.81,0.31,-0.22,0.79,0.48
166,00:00:06.442,IMU1,9.26,1.32,3.08,0.0,0.0,0.0,-17.44,15.0,-25.19,0.28,-0.52,0.28,0.76
167,00:00:06.447,IMU7,1.78,3.49,-9.12,-0.03,0.0,0.02,21.75,9.12,28.19,0.47,0.86,0.2,0.01
167,00:00:06.447,IMU5,6.81,-0.44,7.03,-0.01,0.0,0.0,5.81,-12.88,-33.81,0.31,-0.22,0.79,0.48
167,00:00:06.447,IMU1,9.26,1.32,3.08,0.0,0.0,0.0,-17.44,15.0,-25.19,0.28,-0.52,0.28,0.76
168,00:00:06.454,IMU7,1.78,3.49,-9.12,-0.03,0.0,0.02,21.75,9.12,28.19,0.47,0.86,0.2,0.01
168,00:00:06.454,IMU5,6.81,-0.44,7.03,-0.01,0.0,0.0,5.81,-12.88,-33.81,0.31,-0.22,0.79,0.48
168,00:00:06.454,IMU1,9.26,1.32,3.08,0.0,0.0,-0.0,-17.44,15.0,-25.19,0.28,-0.52,0.28,0.76
169,00:00:06.457,IMU7,1.78,3.49,-9.12,0.03,-0.01,0.03,21.75,9.12,28.19,0.47,0.86,0.2,0.01
169,00:00:06.457,IMU5,6.81,-0.44,7.03,0.0,0.0,0.0,5.81,-12.88,-33.81,0.31,-0.22,0.79,0.48
169,00:00:06.457,IMU1,9.26,1.32,3.08,0.0,0.0,-0.0,-17.44,15.0,-25.19,0.28,-0.52,0.28,0.76
170,00:00:06.464,IMU7,1.78,3.49,-9.12,0.03,-0.01,0.03,21.75,9.12,28.19,0.47,0.86,0.2,0.01
170,00:00:06.464,IMU5,6.81,-0.44,7.03,0.0,0.0,0.0,5.81,-12.88,-33.81,0.31,-0.22,0.79,0.48
170,00:00:06.464,IMU1,9.34,1.28,3.16,0.0,0.0,-0.0,-17.44,15.0,-25.19,0.28,-0.52,0.28,0.76
171,00:00:06.467,IMU7,1.78,3.49,-9.12,0.06,-0.01,0.02,21.75,9.12,28.19,0.47,0.86,0.2,0.01
171,00:00:06.467,IMU5,6.81,-0.44,7.03,0.0,0.0,0.0,5.81,-12.88,-33.81,0.31,-0.22,0.79,0.48
171,00:00:06.467,IMU1,9.34,1.28,3.16,0.0,0.0,0.0,-17.44,15.0,-25.19,0.28,-0.52,0.28,0.76
172,00:00:06.470,IMU7,1.78,3.49,-9.12,0.06,-0.01,0.02,21.75,9.12,28.19,0.47,0.86,0.2,0.01
172,00:00:06.470,IMU5,6.81,-0.44,7.03,0.0,0.0,0.0,5.81,-12.88,-33.81,0.31,-0.22,0.79,0.48
172,00:00:06.470,IMU1,9.34,1.28,3.16,0.0,0.0,0.0,-18.06,15.38,-25.38,0.28,-0.52,0.28,0.76
173,00:00:06.476,IMU7,1.78,3.49,-9.12,0.02,0.0,-0.01,21.75,9.12,28.19,0.47,0.86,0.2,0.01
173,00:00:06.476,IMU5,6.81,-0.44,7.03,0.0,0.0,0.0,5.81,-12.88,-33.81,0.31,-0.22,0.79,0.48
173,00:00:06.476,IMU1,9.34,1.28,3.16,0.0,0.0,0.0,-18.06,15.38,-25.38,0.28,-0.52,0.28,0.76
174,00:00:06.483,IMU7,1.78,3.49,-9.12,0.02,0.0,-0.01,21.75,9.12,28.19,0.47,0.86,0.2,0.01
174,00:00:06.483,IMU5,6.81,-0.44,7.03,0.0,0.0,0.0,5.81,-12.88,-33.81,0.31,-0.22,0.79,0.48
174,00:00:06.483,IMU1,9.34,1.28,3.16,-0.0,0.0,-0.0,-18.06,15.38,-25.38,0.28,-0.52,0.28,0.76
175,00:00:06.486,IMU7,1.78,3.49,-9.12,-0.01,0.01,-0.0,21.75,9.12,28.19,0.47,0.86,0.2,0.01
175,00:00:06.486,IMU5,6.81,-0.44,7.03,0.0,-0.0,0.0,5.81,-12.88,-33.81,0.31,-0.22,0.79,0.48
175,00:00:06.486,IMU1,9.34,1.28,3.16,-0.0,0.0,-0.0,-18.06,15.38,-25.38,0.28,-0.52,0.28,0.76
176,00:00:06.492,IMU7,1.78,3.49,-9.12,-0.01,0.01,-0.0,21.75,9.12,28.19,0.47,0.86,0.2,0.01
176,00:00:06.492,IMU5,6.81,-0.44,7.03,0.0,-0.0,0.0,5.81,-12.88,-33.81,0.31,-0.22,0.79,0.48
176,00:00:06.492,IMU1,9.34,1.28,3.16,-0.01,-0.0,0.0,-18.06,15.38,-25.38,0.28,-0.52,0.28,0.76
177,00:00:06.495,IMU7,1.74,3.61,-9.08,-0.01,0.01,-0.0,21.75,9.12,28.19,0.47,0.86,0.2,0.01
177,00:00:06.495,IMU5,6.81,-0.44,7.03,0.0,0.0,0.0,5.81,-12.88,-33.81,0.31,-0.22,0.79,0.48
177,00:00:06.495,IMU1,9.34,1.28,3.16,-0.01,-0.0,0.0,-18.06,15.38,-25.38,0.28,-0.52,0.28,0.76
178,00:00:06.500,IMU7,1.74,3.61,-9.08,0.0,0.0,-0.0,21.75,9.12,28.19,0.47,0.86,0.2,0.01
178,00:00:06.500,IMU5,6.81,-0.44,7.03,0.0,0.0,0.0,5.81,-12.88,-33.81,0.31,-0.22,0.79,0.48
178,00:00:06.500,IMU1,9.34,1.32,3.08,-0.01,-0.0,0.0,-18.06,15.38,-25.38,0.28,-0.52,0.28,0.76
179,00:00:06.503,IMU7,1.74,3.61,-9.08,0.0,0.0,-0.0,21.44,8.44,27.81,0.47,0.86,0.2,0.01
179,00:00:06.503,IMU5,6.81,-0.44,7.03,0.0,0.0,0.0,5.81,-12.88,-33.81,0.31,-0.22,0.79,0.48
179,00:00:06.503,IMU1,9.34,1.32,3.08,-0.01,-0.0,0.0,-17.56,14.12,-25.62,0.28,-0.52,0.28,0.76
180,00:00:06.509,IMU7,1.74,3.61,-9.08,0.0,0.0,-0.0,21.44,8.44,27.81,0.47,0.86,0.2,0.01
180,00:00:06.509,IMU5,6.81,-0.44,7.03,0.0,-0.0,0.0,5.81,-12.88,-33.81,0.31,-0.22,0.79,0.48
180,00:00:06.509,IMU1,9.34,1.32,3.08,0.0,0.0,-0.0,-17.56,14.12,-25.62,0.28,-0.52,0.28,0.76
181,00:00:06.513,IMU7,1.74,3.61,-9.08,0.02,0.01,0.0,21.44,8.44,27.81,0.47,0.86,0.2,0.01
181,00:00:06.513,IMU5,6.81,-0.44,7.03,0.0,-0.0,0.0,5.06,-11.5,-35.06,0.31,-0.22,0.79,0.48
181,00:00:06.513,IMU1,9.34,1.32,3.08,0.0,0.0,-0.0,-17.56,14.12,-25.62,0.28,-0.52,0.28,0.76
182,00:00:06.518,IMU7,1.74,3.61,-9.08,0.02,0.01,0.0,21.44,8.44,27.81,0.47,0.86,0.2,0.01
182,00:00:06.518,IMU5,6.81,-0.44,7.03,0.0,-0.0,0.0,5.06,-11.5,-35.06,0.31,-0.22,0.79,0.48
182,00:00:06.518,IMU1,9.34,1.32,3.08,0.0,0.0,0.01,-17.56,14.12,-25.62,0.28,-0.52,0.28,0.76
183,00:00:06.521,IMU7,1.74,3.61,-9.08,0.03,-0.01,0.01,21.44,8.44,27.81,0.47,0.86,0.2,0.01
183,00:00:06.521,IMU5,6.81,-0.44,7.03,0.0,-0.0,-0.0,5.06,-11.5,-35.06,0.31,-0.22,0.79,0.48
183,00:00:06.521,IMU1,9.34,1.32,3.08,0.0,0.0,0.01,-17.56,14.12,-25.62,0.28,-0.52,0.28,0.76
184,00:00:06.528,IMU7,1.74,3.61,-9.08,0.03,-0.01,0.01,21.44,8.44,27.81,0.47,0.86,0.2,0.01
184,00:00:06.528,IMU5,6.81,-0.44,7.03,0.0,-0.0,-0.0,5.06,-11.5,-35.06,0.31,-0.22,0.79,0.48
184,00:00:06.528,IMU1,9.34,1.28,3.08,0.0,0.0,0.01,-17.56,14.12,-25.62,0.28,-0.52,0.28,0.76
185,00:00:06.531,IMU7,1.74,3.61,-9.08,-0.01,0.0,-0.01,21.44,8.44,27.81,0.47,0.86,0.2,0.01
185,00:00:06.531,IMU5,6.81,-0.44,7.03,0.01,0.0,-0.0,5.06,-11.5,-35.06,0.31,-0.22,0.79,0.48
185,00:00:06.531,IMU1,9.34,1.28,3.08,0.01,-0.0,0.01,-17.56,14.12,-25.62,0.28,-0.52,0.28,0.76
186,00:00:06.535,IMU7,1.74,3.61,-9.08,-0.01,0.0,-0.01,21.44,8.44,27.81,0.47,0.86,0.2,0.01
186,00:00:06.535,IMU5,6.81,-0.44,7.03,0.01,0.0,-0.0,5.06,-11.5,-35.06,0.31,-0.22,0.79,0.48
186,00:00:06.535,IMU1,9.34,1.28,3.08,0.01,-0.0,0.01,-17.62,13.75,-25.62,0.28,-0.52,0.28,0.76
187,00:00:06.540,IMU7,1.74,3.61,-9.08,-0.02,0.0,-0.0,21.44,8.44,27.81,0.47,0.86,0.2,0.01
187,00:00:06.540,IMU5,6.81,-0.44,7.03,0.0,0.0,-0.0,5.06,-11.5,-35.06,0.31,-0.22,0.79,0.48
187,00:00:06.540,IMU1,9.34,1.28,3.08,0.01,-0.0,0.01,-17.62,13.75,-25.62,0.28,-0.52,0.28,0.76
188,00:00:06.547,IMU7,1.74,3.61,-9.08,-0.02,0.0,-0.0,21.44,8.44,27.81,0.47,0.86,0.2,0.01
188,00:00:06.547,IMU5,6.81,-0.44,7.03,0.0,0.0,-0.0,5.06,-11.5,-35.06,0.31,-0.22,0.79,0.48
188,00:00:06.547,IMU1,9.34,1.28,3.08,0.01,0.0,0.01,-17.62,13.75,-25.62,0.28,-0.52,0.28,0.76
189,00:00:06.550,IMU7,1.82,3.57,-9.12,-0.02,0.0,-0.0,21.44,8.44,27.81,0.47,0.86,0.2,0.01
189,00:00:06.550,IMU5,6.81,-0.44,7.03,0.0,0.01,-0.01,5.06,-11.5,-35.06,0.31,-0.22,0.79,0.48
189,00:00:06.550,IMU1,9.34,1.28,3.08,0.01,0.0,0.01,-17.62,13.75,-25.62,0.28,-0.52,0.28,0.76
190,00:00:06.555,IMU7,1.82,3.57,-9.12,0.0,0.0,-0.01,21.44,8.44,27.81,0.47,0.86,0.2,0.01
190,00:00:06.555,IMU5,6.81,-0.44,7.03,0.0,0.01,-0.01,5.06,-11.5,-35.06,0.31,-0.22,0.79,0.48
190,00:00:06.555,IMU1,9.34,1.28,3.08,0.01,0.0,-0.0,-17.62,13.75,-25.62,0.28,-0.52,0.28,0.76
191,00:00:06.560,IMU7,1.82,3.57,-9.12,0.0,0.0,-0.01,21.88,7.69,27.38,0.47,0.86,0.2,0.01
191,00:00:06.560,IMU5,6.85,-0.44,7.02,0.0,0.01,-0.01,5.06,-11.5,-35.06,0.31,-0.22,0.79,0.48
191,00:00:06.560,IMU1,9.34,1.28,3.08,0.01,0.0,-0.0,-17.62,13.75,-25.62,0.28,-0.52,0.28,0.76
192,00:00:06.565,IMU7,1.82,3.57,-9.12,0.0,0.0,-0.01,21.88,7.69,27.38,0.47,0.86,0.2,0.01
192,00:00:06.565,IMU5,6.85,-0.44,7.02,0.0,0.0,0.0,5.06,-11.5,-35.06,0.31,-0.22,0.79,0.48
192,00:00:06.565,IMU1,9.34,1.32,3.16,0.01,0.0,-0.0,-17.62,13.75,-25.62,0.28,-0.52,0.28,0.76
193,00:00:06.569,IMU7,1.82,3.57,-9.12,0.0,0.0,-0.01,21.88,7.69,27.38,0.47,0.86,0.2,0.01
193,00:00:06.569,IMU5,6.85,-0.44,7.02,0.0,0.0,0.0,5.75,-11.75,-34.88,0.31,-0.22,0.79,0.48
193,00:00:06.569,IMU1,9.34,1.32,3.16,0.01,0.0,-0.0,-17.19,14.62,-26.69,0.28,-0.52,0.28,0.76
194,00:00:06.574,IMU7,1.82,3.57,-9.12,0.0,0.0,-0.01,21.88,7.69,27.38,0.47,0.86,0.2,0.01
194,00:00:06.574,IMU5,6.85,-0.44,7.02,0.0,0.0,0.0,5.75,-11.75,-34.88,0.31,-0.22,0.79,0.48
194,00:00:06.574,IMU1,9.34,1.32,3.16,0.0,-0.0,0.0,-17.19,14.62,-26.69,0.28,-0.52,0.28,0.76
195,00:00:06.578,IMU7,1.82,3.57,-9.12,-0.0,0.0,-0.0,21.88,7.69,27.38,0.47,0.86,0.2,0.01
195,00:00:06.578,IMU5,6.85,-0.44,7.02,0.0,0.0,0.0,5.75,-11.75,-34.88,0.31,-0.22,0.79,0.48
195,00:00:06.578,IMU1,9.34,1.32,3.16,0.0,-0.0,0.0,-17.19,14.62,-26.69,0.28,-0.52,0.28,0.76
196,00:00:06.584,IMU7,1.82,3.57,-9.12,-0.0,0.0,-0.0,21.88,7.69,27.38,0.47,0.86,0.2,0.01
196,00:00:06.584,IMU5,6.85,-0.44,7.02,0.0,0.0,0.0,5.75,-11.75,-34.88,0.31,-0.22,0.79,0.48
196,00:00:06.584,IMU1,9.34,1.32,3.16,0.0,-0.0,0.0,-17.19,14.62,-26.69,0.28,-0.52,0.28,0.76
197,00:00:06.588,IMU7,1.82,3.57,-9.12,0.0,0.0,0.0,21.88,7.69,27.38,0.47,0.86,0.2,0.01
197,00:00:06.588,IMU5,6.85,-0.44,7.02,0.0,0.0,-0.0,5.75,-11.75,-34.88,0.31,-0.22,0.79,0.48
197,00:00:06.588,IMU1,9.34,1.32,3.16,0.0,-0.0,0.0,-17.56,15.5,-26.0,0.28,-0.52,0.28,0.76
198,00:00:06.593,IMU7,1.82,3.57,-9.12,0.0,0.0,0.0,21.88,7.69,27.38,0.47,0.86,0.2,0.01
198,00:00:06.593,IMU5,6.85,-0.44,7.02,0.0,0.0,-0.0,5.75,-11.75,-34.88,0.31,-0.22,0.79,0.48
198,00:00:06.593,IMU1,9.34,1.32,3.16,0.01,-0.0,-0.01,-17.56,15.5,-26.0,0.28,-0.52,0.28,0.76
199,00:00:06.597,IMU7,1.82,3.57,-9.12,0.0,0.0,0.0,21.88,7.69,27.38,0.47,0.86,0.2,0.01
199,00:00:06.597,IMU5,6.85,-0.44,7.02,0.0,0.0,0.0,5.75,-11.75,-34.88,0.31,-0.22,0.79,0.48
199,00:00:06.597,IMU1,9.34,1.32,3.16,0.01,-0.0,-0.01,-17.56,15.5,-26.0,0.28,-0.52,0.28,0.76
200,00:00:06.601,IMU7,1.82,3.57,-9.12,0.0,0.0,0.0,22.12,9.12,28.12,0.47,0.86,0.2,0.01
200,00:00:06.601,IMU5,6.85,-0.44,7.02,0.0,0.0,0.0,5.75,-11.75,-34.88,0.31,-0.22,0.79,0.48
200,00:00:06.601,IMU1,9.34,1.32,3.16,-0.0,0.0,0.0,-17.56,15.5,-26.0,0.28,-0.52,0.28,0.76
201,00:00:06.607,IMU7,1.82,3.57,-9.12,0.0,0.0,0.0,22.12,9.12,28.12,0.47,0.86,0.2,0.01
201,00:00:06.607,IMU5,6.85,-0.44,7.02,0.01,0.0,-0.0,5.75,-11.75,-34.88,0.31,-0.22,0.79,0.48
201,00:00:06.607,IMU1,9.34,1.32,3.16,-0.0,0.0,0.0,-17.56,15.5,-26.0,0.28,-0.52,0.28,0.76
202,00:00:06.612,IMU7,1.82,3.57,-9.12,0.0,0.0,0.0,22.12,9.12,28.12,0.47,0.86,0.2,0.01
202,00:00:06.612,IMU5,6.85,-0.44,7.02,0.01,0.0,-0.0,5.75,-11.75,-34.88,0.31,-0.22,0.79,0.48
202,00:00:06.612,IMU1,9.34,1.32,3.16,0.0,0.0,-0.0,-17.56,15.5,-26.0,0.28,-0.52,0.28,0.76
203,00:00:06.615,IMU7,1.82,3.57,-9.12,-0.0,0.0,0.01,22.12,9.12,28.12,0.47,0.86,0.2,0.01
203,00:00:06.615,IMU5,6.85,-0.44,7.02,0.01,0.0,-0.0,5.75,-11.75,-34.88,0.31,-0.22,0.79,0.48
203,00:00:06.615,IMU1,9.34,1.32,3.16,0.0,0.0,-0.0,-17.56,15.5,-26.0,0.28,-0.52,0.28,0.76
204,00:00:06.622,IMU7,1.82,3.57,-9.12,-0.0,0.0,0.01,22.12,9.12,28.12,0.47,0.86,0.2,0.01
204,00:00:06.622,IMU5,6.85,-0.44,7.02,0.01,0.0,-0.0,5.88,-13.25,-35.69,0.31,-0.22,0.79,0.48
204,00:00:06.622,IMU1,9.34,1.32,3.16,0.0,0.0,0.0,-17.56,15.5,-26.0,0.28,-0.52,0.28,0.76
205,00:00:06.626,IMU7,1.78,3.57,-9.16,-0.0,0.0,0.01,22.12,9.12,28.12,0.47,0.86,0.2,0.01
205,00:00:06.626,IMU5,6.85,-0.44,7.02,0.0,0.0,0.0,5.88,-13.25,-35.69,0.31,-0.22,0.79,0.48
205,00:00:06.626,IMU1,9.34,1.32,3.16,0.0,0.0,0.0,-17.56,15.5,-26.0,0.28,-0.52,0.28,0.76
206,00:00:06.629,IMU7,1.78,3.57,-9.16,-0.0,0.0,0.01,22.38,8.38,26.56,0.47,0.86,0.2,0.01
206,00:00:06.629,IMU5,6.85,-0.44,7.02,0.0,0.0,0.0,5.88,-13.25,-35.69,0.31,-0.22,0.79,0.48
206,00:00:06.629,IMU1,9.3,1.32,3.2,0.0,0.0,0.0,-17.56,15.5,-26.0,0.28,-0.52,0.28,0.76
207,00:00:06.634,IMU7,1.78,3.57,-9.16,0.01,0.0,0.01,22.38,8.38,26.56,0.47,0.86,0.2,0.01
207,00:00:06.634,IMU5,6.85,-0.44,7.02,-0.0,0.0,0.0,5.88,-13.25,-35.69,0.31,-0.22,0.79,0.48
207,00:00:06.634,IMU1,9.3,1.32,3.2,0.0,0.0,0.0,-17.25,15.12,-27.06,0.28,-0.52,0.28,0.76
208,00:00:06.639,IMU7,1.78,3.57,-9.16,0.01,0.0,0.01,22.38,8.38,26.56,0.47,0.86,0.2,0.01
208,00:00:06.639,IMU5,6.85,-0.44,7.02,-0.0,0.0,0.0,5.88,-13.25,-35.69,0.31,-0.22,0.79,0.48
208,00:00:06.639,IMU1,9.3,1.32,3.2,0.0,0.0,0.0,-17.25,15.12,-27.06,0.28,-0.52,0.28,0.76
209,00:00:06.643,IMU7,1.78,3.57,-9.16,0.0,0.0,0.01,22.38,8.38,26.56,0.47,0.86,0.2,0.01
209,00:00:06.643,IMU5,6.85,-0.44,7.02,0.0,0.0,-0.0,5.88,-13.25,-35.69,0.31,-0.22,0.79,0.48
209,00:00:06.643,IMU1,9.3,1.32,3.2,0.0,0.0,0.0,-17.25,15.12,-27.06,0.28,-0.52,0.28,0.76
210,00:00:06.650,IMU7,1.78,3.57,-9.16,0.0,0.0,0.01,22.38,8.38,26.56,0.47,0.86,0.2,0.01
210,00:00:06.650,IMU5,6.85,-0.44,7.02,0.0,0.0,-0.0,5.88,-13.25,-35.69,0.31,-0.22,0.79,0.48
210,00:00:06.650,IMU1,9.3,1.32,3.2,-0.01,-0.0,0.0,-17.25,15.12,-27.06,0.28,-0.52,0.28,0.76
211,00:00:06.653,IMU7,1.78,3.57,-9.16,-0.0,-0.0,0.0,22.38,8.38,26.56,0.47,0.86,0.2,0.01
211,00:00:06.653,IMU5,6.85,-0.44,7.02,0.0,0.0,-0.0,5.88,-13.25,-35.69,0.31,-0.22,0.79,0.48
211,00:00:06.653,IMU1,9.3,1.32,3.2,-0.01,-0.0,0.0,-17.25,15.12,-27.06,0.28,-0.52,0.28,0.76
212,00:00:06.657,IMU7,1.78,3.57,-9.16,-0.0,-0.0,0.0,22.38,8.38,26.56,0.47,0.86,0.2,0.01
212,00:00:06.657,IMU5,6.85,-0.44,7.02,0.0,0.0,-0.0,5.88,-13.25,-35.69,0.31,-0.22,0.79,0.48
212,00:00:06.657,IMU1,9.34,1.28,3.12,-0.01,-0.0,0.0,-17.25,15.12,-27.06,0.28,-0.52,0.28,0.76
213,00:00:06.662,IMU7,1.78,3.57,-9.16,-0.0,-0.0,0.0,22.38,8.38,26.56,0.47,0.86,0.2,0.01
213,00:00:06.662,IMU5,6.85,-0.44,6.98,0.0,0.0,-0.0,5.88,-13.25,-35.69,0.31,-0.22,0.79,0.48
213,00:00:06.662,IMU1,9.34,1.28,3.12,-0.01,-0.0,0.0,-17.44,15.0,-25.19,0.28,-0.52,0.28,0.76
214,00:00:06.668,IMU7,1.78,3.57,-9.16,-0.0,-0.0,0.0,22.38,8.38,26.56,0.47,0.86,0.2,0.01
214,00:00:06.668,IMU5,6.85,-0.44,6.98,0.0,0.01,0.0,5.88,-13.25,-35.69,0.31,-0.22,0.79,0.48
214,00:00:06.668,IMU1,9.34,1.28,3.12,-0.01,-0.0,0.0,-17.44,15.0,-25.19,0.28,-0.52,0.28,0.76
215,00:00:06.671,IMU7,1.78,3.57,-9.16,-0.0,-0.0,0.0,22.38,8.38,26.56,0.47,0.86,0.2,0.01
215,00:00:06.671,IMU5,6.85,-0.44,6.98,0.0,0.01,0.0,6.94,-13.0,-34.38,0.31,-0.22,0.79,0.48
215,00:00:06.671,IMU1,9.34,1.28,3.12,-0.01,-0.0,0.0,-17.44,15.0,-25.19,0.28,-0.52,0.28,0.76
216,00:00:06.677,IMU7,1.78,3.57,-9.16,-0.0,-0.0,0.0,22.25,9.12,27.38,0.47,0.86,0.2,0.01
216,00:00:06.677,IMU5,6.85,-0.44,6.98,0.0,0.01,0.0,6.94,-13.0,-34.38,0.31,-0.22,0.79,0.48
216,00:00:06.677,IMU1,9.34,1.28,3.12,-0.0,0.0,-0.0,-17.44,15.0,-25.19,0.28,-0.52,0.28,0.76
217,00:00:06.680,IMU7,1.78,3.57,-9.16,0.0,0.0,0.0,22.25,9.12,27.38,0.47,0.86,0.2,0.01
217,00:00:06.680,IMU5,6.85,-0.44,6.98,0.0,0.0,0.0,6.94,-13.0,-34.38,0.31,-0.22,0.79,0.48
217,00:00:06.680,IMU1,9.34,1.28,3.12,-0.0,0.0,-0.0,-17.44,15.0,-25.19,0.28,-0.52,0.28,0.76
218,00:00:06.683,IMU7,1.78,3.57,-9.16,0.0,0.0,0.0,22.25,9.12,27.38,0.47,0.86,0.2,0.01
218,00:00:06.683,IMU5,6.85,-0.44,6.98,0.0,0.0,0.0,6.94,-13.0,-34.38,0.31,-0.22,0.79,0.48
218,00:00:06.683,IMU1,9.34,1.28,3.12,-0.01,-0.0,-0.0,-17.44,15.0,-25.19,0.28,-0.52,0.28,0.76
219,00:00:06.688,IMU7,1.78,3.57,-9.16,-0.0,0.0,0.0,22.25,9.12,27.38,0.47,0.86,0.2,0.01
219,00:00:06.688,IMU5,6.85,-0.44,6.98,0.0,0.0,0.0,6.94,-13.0,-34.38,0.31,-0.22,0.79,0.48
219,00:00:06.688,IMU1,9.34,1.28,3.12,-0.01,-0.0,-0.0,-17.44,15.0,-25.19,0.28,-0.52,0.28,0.76
220,00:00:06.694,IMU7,1.78,3.57,-9.16,-0.0,0.0,0.0,22.25,9.12,27.38,0.47,0.86,0.2,0.01
220,00:00:06.694,IMU5,6.85,-0.44,6.98,0.0,0.0,0.0,6.94,-13.0,-34.38,0.31,-0.22,0.79,0.48
220,00:00:06.694,IMU1,9.3,1.28,3.2,-0.01,-0.0,-0.0,-17.44,15.0,-25.19,0.28,-0.52,0.28,0.76
221,00:00:06.697,IMU7,1.78,3.57,-9.16,0.0,0.0,0.01,22.25,9.12,27.38,0.47,0.86,0.2,0.01
221,00:00:06.697,IMU5,6.85,-0.44,6.98,-0.0,0.0,0.0,6.94,-13.0,-34.38,0.31,-0.22,0.79,0.48
221,00:00:06.697,IMU1,9.3,1.28,3.2,-0.01,-0.0,-0.0,-18.19,15.0,-26.12,0.28,-0.52,0.28,0.76
222,00:00:06.703,IMU7,1.78,3.57,-9.16,0.0,0.0,0.01,22.25,9.12,27.38,0.47,0.86,0.2,0.01
222,00:00:06.703,IMU5,6.85,-0.44,6.98,-0.0,0.0,0.0,6.94,-13.0,-34.38,0.31,-0.22,0.79,0.48
222,00:00:06.703,IMU1,9.3,1.28,3.2,0.0,0.0,0.0,-18.19,15.0,-26.12,0.28,-0.52,0.28,0.76
223,00:00:06.708,IMU7,1.78,3.57,-9.16,0.0,0.0,0.01,22.25,9.12,27.38,0.47,0.86,0.2,0.01
223,00:00:06.708,IMU5,6.81,-0.44,7.03,-0.0,0.0,0.0,6.94,-13.0,-34.38,0.31,-0.22,0.79,0.48
223,00:00:06.708,IMU1,9.3,1.28,3.2,0.0,0.0,0.0,-18.19,15.0,-26.12,0.28,-0.52,0.28,0.76
224,00:00:06.713,IMU7,1.78,3.57,-9.16,0.0,0.0,0.01,22.25,9.12,27.38,0.47,0.86,0.2,0.01
224,00:00:06.713,IMU5,6.81,-0.44,7.03,-0.0,0.0,0.0,6.31,-13.69,-34.31,0.31,-0.22,0.79,0.48
224,00:00:06.713,IMU1,9.3,1.28,3.2,0.0,0.0,0.0,-18.19,15.0,-26.12,0.28,-0.52,0.28,0.76
225,00:00:06.717,IMU7,1.78,3.53,-9.12,0.0,0.0,0.01,22.25,9.12,27.38,0.47,0.86,0.2,0.01
225,00:00:06.717,IMU5,6.81,-0.44,7.03,0.0,-0.0,0.0,6.31,-13.69,-34.31,0.31,-0.22,0.79,0.48
225,00:00:06.717,IMU1,9.3,1.28,3.2,0.0,0.0,0.0,-18.19,15.0,-26.12,0.28,-0.52,0.28,0.76
226,00:00:06.723,IMU7,1.78,3.53,-9.12,0.0,0.0,0.0,22.25,9.12,27.38,0.47,0.86,0.2,0.01
226,00:00:06.723,IMU5,6.81,-0.44,7.03,0.0,-0.0,0.0,6.31,-13.69,-34.31,0.31,-0.22,0.79,0.48
226,00:00:06.723,IMU1,9.3,1.28,3.2,0.0,0.0,0.01,-18.19,15.0,-26.12,0.28,-0.52,0.28,0.76
227,00:00:06.726,IMU7,1.78,3.53,-9.12,0.0,0.0,0.0,21.44,7.0,27.69,0.47,0.86,0.2,0.01
227,00:00:06.726,IMU5,6.81,-0.44,7.03,0.0,-0.01,0.01,6.31,-13.69,-34.31,0.31,-0.22,0.79,0.48
227,00:00:06.726,IMU1,9.3,1.28,3.2,0.0,0.0,0.01,-18.19,15.0,-26.12,0.28,-0.52,0.28,0.76
228,00:00:06.733,IMU7,1.78,3.53,-9.12,0.0,0.0,0.0,21.44,7.0,27.69,0.47,0.86,0.2,0.01
228,00:00:06.733,IMU5,6.81,-0.44,7.03,0.0,-0.01,0.01,6.31,-13.69,-34.31,0.31,-0.22,0.79,0.48
228,00:00:06.733,IMU1,9.3,1.28,3.2,0.0,0.0,0.0,-18.19,15.0,-26.12,0.28,-0.52,0.28,0.76
229,00:00:06.736,IMU7,1.78,3.53,-9.12,0.0,0.0,0.0,21.44,7.0,27.69,0.47,0.86,0.2,0.01
229,00:00:06.736,IMU5,6.81,-0.44,7.03,0.0,0.0,-0.0,6.31,-13.69,-34.31,0.31,-0.22,0.79,0.48
229,00:00:06.736,IMU1,9.3,1.28,3.2,0.0,0.0,0.0,-18.19,15.0,-26.12,0.28,-0.52,0.28,0.76
230,00:00:06.741,IMU7,1.78,3.53,-9.12,0.0,0.0,0.0,21.44,7.0,27.69,0.47,0.86,0.2,0.01
230,00:00:06.741,IMU5,6.81,-0.44,7.03,0.0,0.0,-0.0,6.31,-13.69,-34.31,0.31,-0.22,0.79,0.48
230,00:00:06.741,IMU1,9.34,1.36,3.16,0.0,0.0,0.0,-18.19,15.0,-26.12,0.28,-0.52,0.28,0.76
231,00:00:06.744,IMU7,1.78,3.53,-9.12,0.0,0.0,0.0,21.44,7.0,27.69,0.47,0.86,0.2,0.01
231,00:00:06.744,IMU5,6.81,-0.44,7.03,0.0,0.0,0.0,6.31,-13.69,-34.31,0.31,-0.22,0.79,0.48
231,00:00:06.744,IMU1,9.34,1.36,3.16,0.0,0.0,0.0,-18.38,16.25,-27.31,0.28,-0.52,0.28,0.76
232,00:00:06.748,IMU7,1.78,3.53,-9.12,0.0,0.0,0.0,21.44,7.0,27.69,0.47,0.86,0.2,0.01
232,00:00:06.748,IMU5,6.81,-0.44,7.03,0.0,0.0,0.0,6.31,-13.69,-34.31,0.31,-0.22,0.79,0.48
232,00:00:06.748,IMU1,9.34,1.36,3.16,-0.0,-0.0,-0.0,-18.38,16.25,-27.31,0.28,-0.52,0.28,0.76
233,00:00:06.752,IMU7,1.78,3.53,-9.12,-0.0,0.0,0.0,21.44,7.0,27.69,0.47,0.86,0.2,0.01
233,00:00:06.752,IMU5,6.81,-0.4,6.98,0.0,0.0,0.0,6.31,-13.69,-34.31,0.31,-0.22,0.79,0.48
233,00:00:06.752,IMU1,9.34,1.36,3.16,-0.0,-0.0,-0.0,-18.38,16.25,-27.31,0.28,-0.52,0.28,0.76
234,00:00:06.757,IMU7,1.78,3.53,-9.12,-0.0,0.0,0.0,21.44,7.0,27.69,0.47,0.86,0.2,0.01
234,00:00:06.757,IMU5,6.81,-0.4,6.98,0.0,0.0,0.0,5.38,-12.06,-34.88,0.31,-0.22,0.79,0.48
234,00:00:06.757,IMU1,9.34,1.36,3.16,-0.0,-0.0,0.0,-18.38,16.25,-27.31,0.28,-0.52,0.28,0.76
235,00:00:06.763,IMU7,1.78,3.57,-9.12,-0.0,0.0,0.0,21.44,7.0,27.69,0.47,0.86,0.2,0.01
235,00:00:06.763,IMU5,6.81,-0.4,6.98,0.01,0.0,-0.0,5.38,-12.06,-34.88,0.31,-0.22,0.79,0.48
235,00:00:06.763,IMU1,9.34,1.36,3.16,-0.0,-0.0,0.0,-18.38,16.25,-27.31,0.28,-0.52,0.28,0.76
236,00:00:06.769,IMU7,1.78,3.57,-9.12,-0.0,0.0,0.0,22.25,8.44,27.31,0.47,0.86,0.2,0.01
236,00:00:06.769,IMU5,6.81,-0.4,6.98,0.01,0.0,-0.0,5.38,-12.06,-34.88,0.31,-0.22,0.79,0.48
236,00:00:06.769,IMU1,9.38,1.32,3.12,-0.0,-0.0,0.0,-18.38,16.25,-27.31,0.28,-0.52,0.28,0.76
237,00:00:06.772,IMU7,1.78,3.57,-9.12,0.0,0.0,0.01,22.25,8.44,27.31,0.47,0.86,0.2,0.01
237,00:00:06.772,IMU5,6.81,-0.4,6.98,0.0,0.01,-0.0,5.38,-12.06,-34.88,0.31,-0.22,0.79,0.48
237,00:00:06.772,IMU1,9.38,1.32,3.12,-0.0,-0.0,0.0,-17.69,15.5,-26.81,0.28,-0.52,0.28,0.76
238,00:00:06.776,IMU7,1.78,3.57,-9.12,0.0,0.0,0.01,22.25,8.44,27.31,0.47,0.86,0.2,0.01
238,00:00:06.776,IMU5,6.81,-0.4,6.98,0.0,0.01,-0.0,5.38,-12.06,-34.88,0.31,-0.22,0.79,0.48
238,00:00:06.776,IMU1,9.38,1.32,3.12,0.0,-0.0,0.01,-17.69,15.5,-26.81,0.28,-0.52,0.28,0.76
239,00:00:06.779,IMU7,1.78,3.57,-9.12,0.0,0.0,0.0,22.25,8.44,27.31,0.47,0.86,0.2,0.01
239,00:00:06.779,IMU5,6.81,-0.4,6.98,0.0,0.0,0.0,5.38,-12.06,-34.88,0.31,-0.22,0.79,0.48
239,00:00:06.779,IMU1,9.38,1.32,3.12,0.0,-0.0,0.01,-17.69,15.5,-26.81,0.28,-0.52,0.28,0.76
240,00:00:06.784,IMU7,1.78,3.57,-9.12,0.0,0.0,0.0,22.25,8.44,27.31,0.47,0.86,0.2,0.01
240,00:00:06.784,IMU5,6.81,-0.4,6.98,0.0,0.0,0.0,5.38,-12.06,-34.88,0.31,-0.22,0.79,0.48
240,00:00:06.784,IMU1,9.38,1.32,3.12,-0.0,-0.0,-0.0,-17.69,15.5,-26.81,0.28,-0.52,0.28,0.76
241,00:00:06.790,IMU7,1.82,3.57,-9.16,0.0,0.0,0.0,22.25,8.44,27.31,0.47,0.86,0.2,0.01
241,00:00:06.790,IMU5,6.81,-0.44,7.03,0.0,0.0,0.0,5.38,-12.06,-34.88,0.31,-0.22,0.79,0.48
241,00:00:06.790,IMU1,9.38,1.32,3.12,-0.0,-0.0,-0.0,-17.69,15.5,-26.81,0.28,-0.52,0.28,0.76
242,00:00:06.797,IMU7,1.82,3.57,-9.16,0.0,0.0,0.0,21.56,9.44,27.12,0.47,0.86,0.2,0.01
242,00:00:06.797,IMU5,6.81,-0.44,7.03,0.0,0.0,0.0,5.38,-12.06,-34.88,0.31,-0.22,0.79,0.48
242,00:00:06.797,IMU1,9.38,1.32,3.12,0.0,0.0,0.0,-17.69,15.5,-26.81,0.28,-0.52,0.28,0.76
243,00:00:06.800,IMU7,1.82,3.57,-9.16,0.0,0.0,-0.0,21.56,9.44,27.12,0.47,0.86,0.2,0.01
243,00:00:06.800,IMU5,6.81,-0.44,7.03,0.0,0.0,0.0,5.69,-12.62,-34.69,0.31,-0.22,0.79,0.48
243,00:00:06.800,IMU1,9.38,1.32,3.12,0.0,0.0,0.0,-17.69,15.5,-26.81,0.28,-0.52,0.28,0.76
244,00:00:06.806,IMU7,1.82,3.57,-9.16,0.0,0.0,-0.0,21.56,9.44,27.12,0.47,0.86,0.2,0.01
244,00:00:06.806,IMU5,6.81,-0.44,7.03,0.0,0.0,0.0,5.69,-12.62,-34.69,0.31,-0.22,0.79,0.48
244,00:00:06.806,IMU1,9.38,1.32,3.12,0.0,0.0,0.0,-17.69,15.5,-26.81,0.28,-0.52,0.28,0.76
245,00:00:06.809,IMU7,1.82,3.57,-9.16,0.01,0.0,0.0,21.56,9.44,27.12,0.47,0.86,0.2,0.01
245,00:00:06.809,IMU5,6.81,-0.44,7.03,0.0,0.0,0.0,5.69,-12.62,-34.69,0.31,-0.22,0.79,0.48
245,00:00:06.809,IMU1,9.38,1.32,3.12,0.0,0.0,0.0,-17.69,15.5,-26.81,0.28,-0.52,0.28,0.76
246,00:00:06.814,IMU7,1.82,3.57,-9.16,0.01,0.0,0.0,21.56,9.44,27.12,0.47,0.86,0.2,0.01
246,00:00:06.814,IMU5,6.81,-0.44,7.03,0.0,0.0,0.0,5.69,-12.62,-34.69,0.31,-0.22,0.79,0.48
246,00:00:06.814,IMU1,9.34,1.36,3.16,0.0,0.0,0.0,-17.69,15.5,-26.81,0.28,-0.52,0.28,0.76
247,00:00:06.818,IMU7,1.82,3.57,-9.16,0.01,-0.0,0.0,21.56,9.44,27.12,0.47,0.86,0.2,0.01
247,00:00:06.818,IMU5,6.81,-0.44,7.03,0.0,0.0,0.0,5.69,-12.62,-34.69,0.31,-0.22,0.79,0.48
247,00:00:06.818,IMU1,9.34,1.36,3.16,0.0,0.0,0.0,-16.88,15.5,-25.12,0.28,-0.52,0.28,0.76
248,00:00:06.822,IMU7,1.82,3.57,-9.16,0.01,-0.0,0.0,21.56,9.44,27.12,0.47,0.86,0.2,0.01
248,00:00:06.822,IMU5,6.81,-0.44,7.03,0.0,0.0,0.0,5.69,-12.62,-34.69,0.31,-0.22,0.79,0.48
248,00:00:06.822,IMU1,9.34,1.36,3.16,0.0,0.0,0.0,-16.88,15.5,-25.12,0.28,-0.52,0.28,0.76
249,00:00:06.826,IMU7,1.82,3.53,-9.08,0.01,-0.0,0.0,21.56,9.44,27.12,0.47,0.86,0.2,0.01
249,00:00:06.826,IMU5,6.81,-0.44,7.03,0.0,0.0,0.0,5.69,-12.62,-34.69,0.31,-0.22,0.79,0.48
249,00:00:06.826,IMU1,9.34,1.36,3.16,0.0,0.0,0.0,-16.88,15.5,-25.12,0.28,-0.52,0.28,0.76
250,00:00:06.832,IMU7,1.82,3.53,-9.08,0.01,-0.0,0.0,21.81,9.5,27.81,0.47,0.86,0.2,0.01
250,00:00:06.832,IMU5,6.81,-0.44,7.03,0.0,0.0,0.0,5.69,-12.62,-34.69,0.31,-0.22,0.79,0.48
250,00:00:06.832,IMU1,9.34,1.36,3.16,0.0,0.0,0.0,-16.88,15.5,-25.12,0.28,-0.52,0.28,0.76
251,00:00:06.835,IMU7,1.82,3.53,-9.08,0.01,-0.0,0.01,21.81,9.5,27.81,0.47,0.86,0.2,0.01
251,00:00:06.835,IMU5,6.81,-0.4,6.98,0.0,0.0,0.0,5.69,-12.62,-34.69,0.31,-0.22,0.79,0.48
251,00:00:06.835,IMU1,9.34,1.36,3.16,0.0,0.0,0.0,-16.88,15.5,-25.12,0.28,-0.52,0.28,0.76
252,00:00:06.840,IMU7,1.82,3.53,-9.08,0.01,-0.0,0.01,21.81,9.5,27.81,0.47,0.86,0.2,0.01
252,00:00:06.840,IMU5,6.81,-0.4,6.98,0.0,0.0,0.0,5.25,-12.56,-34.44,0.31,-0.22,0.79,0.48
252,00:00:06.840,IMU1,9.34,1.36,3.16,0.0,0.0,0.0,-16.88,15.5,-25.12,0.28,-0.52,0.28,0.76
253,00:00:06.845,IMU7,1.82,3.53,-9.08,0.0,0.0,0.01,21.81,9.5,27.81,0.47,0.86,0.2,0.01
253,00:00:06.845,IMU5,6.81,-0.4,6.98,0.0,0.0,0.0,5.25,-12.56,-34.44,0.31,-0.22,0.79,0.48
253,00:00:06.845,IMU1,9.34,1.36,3.16,0.0,0.0,0.0,-16.88,15.5,-25.12,0.28,-0.52,0.28,0.76
254,00:00:06.851,IMU7,1.82,3.53,-9.08,0.0,0.0,0.01,21.81,9.5,27.81,0.47,0.86,0.2,0.01
254,00:00:06.851,IMU5,6.81,-0.4,6.98,0.0,0.0,0.0,5.25,-12.56,-34.44,0.31,-0.22,0.79,0.48
254,00:00:06.851,IMU1,9.34,1.36,3.12,0.0,0.0,0.0,-16.88,15.5,-25.12,0.28,-0.52,0.28,0.76
255,00:00:06.854,IMU7,1.82,3.53,-9.08,0.0,0.0,0.01,21.81,9.5,27.81,0.47,0.86,0.2,0.01
255,00:00:06.854,IMU5,6.81,-0.4,6.98,0.0,0.0,0.0,5.25,-12.56,-34.44,0.31,-0.22,0.79,0.48
255,00:00:06.854,IMU1,9.34,1.36,3.12,0.0,0.0,0.0,-17.94,14.56,-26.06,0.28,-0.52,0.28,0.76
256,00:00:06.858,IMU7,1.82,3.53,-9.08,0.0,0.0,0.01,21.88,8.06,27.38,0.47,0.86,0.2,0.01
256,00:00:06.858,IMU5,6.81,-0.4,6.98,0.0,0.0,0.0,5.25,-12.56,-34.44,0.31,-0.22,0.79,0.48
256,00:00:06.858,IMU1,9.34,1.36,3.12,0.0,0.0,0.0,-17.94,14.56,-26.06,0.28,-0.52,0.28,0.76
257,00:00:06.861,IMU7,1.82,3.53,-9.08,0.0,-0.0,0.0,21.88,8.06,27.38,0.47,0.86,0.2,0.01
257,00:00:06.861,IMU5,6.81,-0.4,6.98,0.0,0.0,0.0,5.25,-12.56,-34.44,0.31,-0.22,0.79,0.48
257,00:00:06.861,IMU1,9.34,1.36,3.12,0.0,0.0,0.0,-17.94,14.56,-26.06,0.28,-0.52,0.28,0.76
258,00:00:06.865,IMU7,1.82,3.53,-9.08,0.0,-0.0,0.0,21.88,8.06,27.38,0.47,0.86,0.2,0.01
258,00:00:06.865,IMU5,6.81,-0.4,6.98,0.0,0.0,0.0,5.25,-12.56,-34.44,0.31,-0.22,0.79,0.48
258,00:00:06.865,IMU1,9.34,1.36,3.12,0.0,0.0,0.0,-17.94,14.56,-26.06,0.28,-0.52,0.28,0.76
259,00:00:06.871,IMU7,1.82,3.53,-9.08,0.0,-0.0,0.0,21.88,8.06,27.38,0.47,0.86,0.2,0.01
259,00:00:06.871,IMU5,6.81,-0.4,6.98,0.0,0.0,0.0,5.25,-12.56,-34.44,0.31,-0.22,0.79,0.48
259,00:00:06.871,IMU1,9.34,1.36,3.12,0.0,0.0,0.0,-17.94,14.56,-26.06,0.28,-0.52,0.28,0.76
260,00:00:06.876,IMU7,1.82,3.53,-9.08,0.0,-0.0,0.0,21.88,8.06,27.38,0.47,0.86,0.2,0.01
260,00:00:06.876,IMU5,6.81,-0.4,6.98,0.0,0.0,0.0,5.25,-12.56,-34.44,0.31,-0.22,0.79,0.48
260,00:00:06.876,IMU1,9.34,1.36,3.12,0.0,0.0,0.0,-17.94,14.56,-26.06,0.28,-0.52,0.28,0.76
261,00:00:06.879,IMU7,1.82,3.53,-9.08,0.0,0.0,0.0,21.88,8.06,27.38,0.47,0.86,0.2,0.01
261,00:00:06.879,IMU5,6.81,-0.44,6.99,0.0,0.0,0.0,5.25,-12.56,-34.44,0.31,-0.22,0.79,0.48
261,00:00:06.879,IMU1,9.34,1.36,3.12,0.0,0.0,0.0,-17.94,14.56,-26.06,0.28,-0.52,0.28,0.76
262,00:00:06.885,IMU7,1.82,3.53,-9.08,0.0,0.0,0.0,21.88,8.06,27.38,0.47,0.86,0.2,0.01
262,00:00:06.885,IMU5,6.81,-0.44,6.99,0.0,0.0,0.0,5.44,-11.5,-35.44,0.31,-0.22,0.79,0.48
262,00:00:06.885,IMU1,9.3,1.32,3.12,0.0,0.0,0.0,-17.94,14.56,-26.06,0.28,-0.52,0.28,0.76
263,00:00:06.888,IMU7,1.82,3.53,-9.12,0.0,0.0,0.0,21.88,8.06,27.38,0.47,0.86,0.2,0.01
263,00:00:06.888,IMU5,6.81,-0.44,6.99,0.0,0.0,0.0,5.44,-11.5,-35.44,0.31,-0.22,0.79,0.48
263,00:00:06.888,IMU1,9.3,1.32,3.12,0.0,0.0,0.0,-17.0,14.62,-25.5,0.28,-0.52,0.28,0.76
264,00:00:06.892,IMU7,1.82,3.53,-9.12,0.0,0.0,0.0,21.19,8.0,27.06,0.47,0.86,0.2,0.01
264,00:00:06.892,IMU5,6.81,-0.44,6.99,0.0,0.0,0.0,5.44,-11.5,-35.44,0.31,-0.22,0.79,0.48
264,00:00:06.892,IMU1,9.3,1.32,3.12,0.0,0.0,0.0,-17.0,14.62,-25.5,0.28,-0.52,0.28,0.76
265,00:00:06.896,IMU7,1.82,3.53,-9.12,0.01,0.0,-0.01,21.19,8.0,27.06,0.47,0.86,0.2,0.01
265,00:00:06.896,IMU5,6.81,-0.44,6.99,0.0,0.0,0.0,5.44,-11.5,-35.44,0.31,-0.22,0.79,0.48
265,00:00:06.896,IMU1,9.3,1.32,3.12,0.0,0.0,0.0,-17.0,14.62,-25.5,0.28,-0.52,0.28,0.76
266,00:00:06.902,IMU7,1.82,3.53,-9.12,0.01,0.0,-0.01,21.19,8.0,27.06,0.47,0.86,0.2,0.01
266,00:00:06.902,IMU5,6.81,-0.44,6.99,0.0,0.0,0.0,5.44,-11.5,-35.44,0.31,-0.22,0.79,0.48
266,00:00:06.902,IMU1,9.38,1.32,3.16,0.0,0.0,0.0,-17.0,14.62,-25.5,0.28,-0.52,0.28,0.76
267,00:00:06.905,IMU7,1.82,3.53,-9.12,0.02,0.0,-0.0,21.19,8.0,27.06,0.47,0.86,0.2,0.01
267,00:00:06.905,IMU5,6.81,-0.44,6.99,0.0,0.0,0.0,5.44,-11.5,-35.44,0.31,-0.22,0.79,0.48
267,00:00:06.905,IMU1,9.38,1.32,3.16,0.0,0.0,0.0,-17.19,15.5,-25.56,0.28,-0.52,0.28,0.76
268,00:00:06.910,IMU7,1.82,3.53,-9.12,0.02,0.0,-0.0,21.19,8.0,27.06,0.47,0.86,0.2,0.01
268,00:00:06.910,IMU5,6.81,-0.44,6.99,0.0,0.0,0.0,5.44,-11.5,-35.44,0.31,-0.22,0.79,0.48
268,00:00:06.910,IMU1,9.38,1.32,3.16,0.0,0.0,0.0,-17.19,15.5,-25.56,0.28,-0.52,0.28,0.76
269,00:00:06.914,IMU7,1.74,3.53,-9.28,0.02,0.0,-0.0,21.19,8.0,27.06,0.47,0.86,0.2,0.01
269,00:00:06.914,IMU5,6.85,-0.44,7.07,0.0,0.0,0.0,5.44,-11.5,-35.44,0.31,-0.22,0.79,0.48
269,00:00:06.914,IMU1,9.38,1.32,3.16,0.0,0.0,0.0,-17.19,15.5,-25.56,0.28,-0.52,0.28,0.76
270,00:00:06.920,IMU7,1.74,3.53,-9.28,0.02,0.0,-0.0,21.81,9.12,28.19,0.47,0.86,0.2,0.01
270,00:00:06.920,IMU5,6.85,-0.44,7.07,0.0,0.0,0.0,5.62,-11.12,-35.5,0.31,-0.22,0.79,0.48
270,00:00:06.920,IMU1,9.38,1.32,3.16,0.0,0.0,0.0,-17.19,15.5,-25.56,0.28,-0.52,0.28,0.76
271,00:00:06.923,IMU7,1.74,3.53,-9.28,0.08,0.0,0.0,21.81,9.12,28.19,0.47,0.86,0.2,0.01
271,00:00:06.923,IMU5,6.85,-0.44,7.07,0.0,0.0,0.0,5.62,-11.12,-35.5,0.31,-0.22,0.79,0.48
271,00:00:06.923,IMU1,9.38,1.32,3.16,0.0,0.0,0.0,-17.19,15.5,-25.56,0.28,-0.52,0.28,0.76
272,00:00:06.928,IMU7,1.74,3.53,-9.28,0.08,0.0,0.0,21.81,9.12,28.19,0.47,0.86,0.2,0.01
272,00:00:06.928,IMU5,6.85,-0.44,7.07,0.0,0.0,0.0,5.62,-11.12,-35.5,0.31,-0.22,0.79,0.48
272,00:00:06.928,IMU1,9.34,1.32,3.08,0.0,0.0,0.0,-17.19,15.5,-25.56,0.28,-0.52,0.28,0.76
273,00:00:06.932,IMU7,1.74,3.53,-9.28,0.05,-0.01,0.01,21.81,9.12,28.19,0.47,0.86,0.2,0.01
273,00:00:06.932,IMU5,6.85,-0.44,7.07,0.0,0.0,0.0,5.62,-11.12,-35.5,0.31,-0.22,0.79,0.48
273,00:00:06.932,IMU1,9.34,1.32,3.08,0.0,0.0,0.0,-17.38,14.62,-26.38,0.28,-0.52,0.28,0.76
274,00:00:06.936,IMU7,1.74,3.53,-9.28,0.05,-0.01,0.01,21.81,9.12,28.19,0.47,0.86,0.2,0.01
274,00:00:06.936,IMU5,6.85,-0.44,7.07,0.0,0.0,0.0,5.62,-11.12,-35.5,0.31,-0.22,0.79,0.48
274,00:00:06.936,IMU1,9.34,1.32,3.08,0.0,0.0,0.0,-17.38,14.62,-26.38,0.28,-0.52,0.28,0.76
275,00:00:06.939,IMU7,1.74,3.53,-9.28,0.01,0.01,0.0,21.81,9.12,28.19,0.47,0.86,0.2,0.01
275,00:00:06.939,IMU5,6.85,-0.44,7.07,0.0,0.0,0.0,5.62,-11.12,-35.5,0.31,-0.22,0.79,0.48
275,00:00:06.939,IMU1,9.34,1.32,3.08,0.0,0.0,0.0,-17.38,14.62,-26.38,0.28,-0.52,0.28,0.76
276,00:00:06.945,IMU7,1.74,3.53,-9.28,0.01,0.01,0.0,21.81,9.12,28.19,0.47,0.86,0.2,0.01
276,00:00:06.945,IMU5,6.85,-0.44,7.07,0.0,0.0,0.0,5.62,-11.12,-35.5,0.31,-0.22,0.79,0.48
276,00:00:06.945,IMU1,9.34,1.32,3.08,0.0,0.0,0.0,-17.38,14.62,-26.38,0.28,-0.52,0.28,0.76
277,00:00:06.949,IMU7,1.74,3.57,-9.2,0.01,0.01,0.0,21.81,9.12,28.19,0.47,0.86,0.2,0.01
277,00:00:06.949,IMU5,6.81,-0.4,6.98,0.0,0.0,0.0,5.62,-11.12,-35.5,0.31,-0.22,0.79,0.48
277,00:00:06.949,IMU1,9.34,1.32,3.08,0.0,0.0,0.0,-17.38,14.62,-26.38,0.28,-0.52,0.28,0.76
278,00:00:06.953,IMU7,1.74,3.57,-9.2,0.01,0.01,0.0,22.19,9.12,27.75,0.47,0.86,0.2,0.01
278,00:00:06.953,IMU5,6.81,-0.4,6.98,0.0,0.0,0.0,5.69,-11.94,-34.12,0.31,-0.22,0.79,0.48
278,00:00:06.953,IMU1,9.34,1.28,3.16,0.0,0.0,0.0,-17.38,14.62,-26.38,0.28,-0.52,0.28,0.76
279,00:00:06.956,IMU7,1.74,3.57,-9.2,0.01,-0.0,-0.0,22.19,9.12,27.75,0.47,0.86,0.2,0.01
279,00:00:06.956,IMU5,6.81,-0.4,6.98,0.0,0.0,0.0,5.69,-11.94,-34.12,0.31,-0.22,0.79,0.48
279,00:00:06.956,IMU1,9.34,1.28,3.16,0.0,0.0,0.0,-18.56,14.5,-26.19,0.28,-0.52,0.28,0.76
280,00:00:06.961,IMU7,1.74,3.57,-9.2,0.01,-0.0,-0.0,22.19,9.12,27.75,0.47,0.86,0.2,0.01
280,00:00:06.961,IMU5,6.81,-0.4,6.98,0.0,0.0,0.0,5.69,-11.94,-34.12,0.31,-0.22,0.79,0.48
280,00:00:06.961,IMU1,9.34,1.28,3.16,0.0,0.0,0.0,-18.56,14.5,-26.19,0.28,-0.52,0.28,0.76
281,00:00:06.965,IMU7,1.74,3.57,-9.2,0.0,0.0,0.0,22.19,9.12,27.75,0.47,0.86,0.2,0.01
281,00:00:06.965,IMU5,6.81,-0.4,6.98,0.0,0.0,0.0,5.69,-11.94,-34.12,0.31,-0.22,0.79,0.48
281,00:00:06.965,IMU1,9.34,1.28,3.16,0.0,0.0,0.0,-18.56,14.5,-26.19,0.28,-0.52,0.28,0.76
282,00:00:06.970,IMU7,1.74,3.57,-9.2,0.0,0.0,0.0,22.19,9.12,27.75,0.47,0.86,0.2,0.01
282,00:00:06.970,IMU5,6.81,-0.4,6.98,0.0,0.0,0.0,5.69,-11.94,-34.12,0.31,-0.22,0.79,0.48
282,00:00:06.970,IMU1,9.34,1.28,3.16,0.0,0.0,0.0,-18.56,14.5,-26.19,0.28,-0.52,0.28,0.76
283,00:00:06.975,IMU7,1.74,3.57,-9.2,-0.01,0.0,-0.0,22.19,9.12,27.75,0.47,0.86,0.2,0.01
283,00:00:06.975,IMU5,6.81,-0.4,7.02,0.0,0.0,0.0,5.69,-11.94,-34.12,0.31,-0.22,0.79,0.48
283,00:00:06.975,IMU1,9.34,1.28,3.16,0.0,0.0,0.0,-18.56,14.5,-26.19,0.28,-0.52,0.28,0.76
284,00:00:06.981,IMU7,1.74,3.57,-9.2,-0.01,0.0,-0.0,22.19,9.12,27.75,0.47,0.86,0.2,0.01
284,00:00:06.981,IMU5,6.81,-0.4,7.02,0.0,0.0,0.0,5.69,-11.94,-34.12,0.31,-0.22,0.79,0.48
284,00:00:06.981,IMU1,9.34,1.32,3.16,0.0,0.0,0.0,-18.56,14.5,-26.19,0.28,-0.52,0.28,0.76
285,00:00:06.986,IMU7,1.86,3.57,-9.04,-0.01,0.0,-0.0,22.19,9.12,27.75,0.47,0.86,0.2,0.01
285,00:00:06.986,IMU5,6.81,-0.4,7.02,0.0,0.0,0.0,5.12,-12.31,-35.31,0.31,-0.22,0.79,0.48
285,00:00:06.986,IMU1,9.34,1.32,3.16,0.0,0.0,0.0,-17.81,16.31,-27.62,0.28,-0.52,0.28,0.76
286,00:00:06.990,IMU7,1.86,3.57,-9.04,-0.01,0.0,-0.0,22.19,9.12,27.75,0.47,0.86,0.2,0.01
286,00:00:06.990,IMU5,6.81,-0.4,7.02,0.0,0.0,0.0,5.12,-12.31,-35.31,0.31,-0.22,0.79,0.48
286,00:00:06.990,IMU1,9.34,1.32,3.16,0.0,0.0,0.0,-17.81,16.31,-27.62,0.28,-0.52,0.28,0.76
287,00:00:07.000,IMU7,1.86,3.57,-9.04,-0.01,0.0,-0.0,22.19,8.75,27.69,0.47,0.86,0.2,0.01
287,00:00:07.000,IMU5,6.81,-0.4,7.02,0.0,0.0,0.0,5.12,-12.31,-35.31,0.31,-0.22,0.79,0.48
287,00:00:07.000,IMU1,9.34,1.32,3.16,0.0,0.0,0.0,-17.81,16.31,-27.62,0.28,-0.52,0.28,0.76
288,00:00:07.008,IMU7,1.86,3.57,-9.04,-0.01,0.0,-0.0,22.19,8.75,27.69,0.47,0.86,0.2,0.01
288,00:00:07.008,IMU5,6.81,-0.4,7.02,0.0,0.0,0.0,5.12,-12.31,-35.31,0.31,-0.22,0.79,0.48
288,00:00:07.008,IMU1,9.34,1.32,3.16,0.0,0.0,0.0,-17.81,16.31,-27.62,0.28,-0.52,0.28,0.76
289,00:00:07.011,IMU7,1.86,3.57,-9.04,0.01,-0.0,0.0,22.19,8.75,27.69,0.47,0.86,0.2,0.01
289,00:00:07.011,IMU5,6.85,-0.44,7.02,0.0,0.0,0.0,5.12,-12.31,-35.31,0.31,-0.22,0.79,0.48
289,00:00:07.011,IMU1,9.34,1.32,3.16,0.0,0.0,0.0,-17.81,16.31,-27.62,0.28,-0.52,0.28,0.76
290,00:00:07.016,IMU7,1.86,3.57,-9.04,0.01,-0.0,0.0,22.19,8.75,27.69,0.47,0.86,0.2,0.01
290,00:00:07.016,IMU5,6.85,-0.44,7.02,0.0,0.0,0.0,5.12,-12.31,-35.31,0.31,-0.22,0.79,0.48
290,00:00:07.016,IMU1,9.38,1.36,3.16,0.0,0.0,0.0,-17.81,16.31,-27.62,0.28,-0.52,0.28,0.76
291,00:00:07.020,IMU7,1.86,3.57,-9.12,0.01,-0.0,0.0,22.19,8.75,27.69,0.47,0.86,0.2,0.01
291,00:00:07.020,IMU5,6.85,-0.44,7.02,0.0,0.0,0.0,5.56,-12.12,-34.88,0.31,-0.22,0.79,0.48
291,00:00:07.020,IMU1,9.38,1.36,3.16,0.0,0.0,0.0,-17.12,15.0,-25.12,0.28,-0.52,0.28,0.76
292,00:00:07.025,IMU7,1.86,3.57,-9.12,0.01,-0.0,0.0,21.81,7.38,27.69,0.47,0.86,0.2,0.01
292,00:00:07.025,IMU5,6.85,-0.44,7.02,0.0,0.0,0.0,5.56,-12.12,-34.88,0.31,-0.22,0.79,0.48
292,00:00:07.025,IMU1,9.38,1.36,3.16,0.0,0.0,0.0,-17.12,15.0,-25.12,0.28,-0.52,0.28,0.76
293,00:00:07.029,IMU7,1.86,3.57,-9.12,-0.01,-0.0,-0.0,21.81,7.38,27.69,0.47,0.86,0.2,0.01
293,00:00:07.029,IMU5,6.85,-0.44,7.02,0.0,0.0,0.0,5.56,-12.12,-34.88,0.31,-0.22,0.79,0.48
293,00:00:07.029,IMU1,9.38,1.36,3.16,0.0,0.0,0.0,-17.12,15.0,-25.12,0.28,-0.52,0.28,0.76
294,00:00:07.039,IMU7,1.86,3.57,-9.12,-0.01,-0.0,-0.0,21.81,7.38,27.69,0.47,0.86,0.2,0.01
294,00:00:07.039,IMU5,6.85,-0.44,7.02,0.0,0.0,0.0,5.56,-12.12,-34.88,0.31,-0.22,0.79,0.48
294,00:00:07.039,IMU1,9.38,1.36,3.16,0.0,0.0,0.0,-17.12,15.0,-25.12,0.28,-0.52,0.28,0.76
295,00:00:07.042,IMU7,1.86,3.57,-9.12,0.01,0.01,0.0,21.81,7.38,27.69,0.47,0.86,0.2,0.01
295,00:00:07.042,IMU5,6.85,-0.44,7.02,0.0,0.0,0.0,5.56,-12.12,-34.88,0.31,-0.22,0.79,0.48
295,00:00:07.042,IMU1,9.38,1.36,3.16,0.0,0.0,0.0,-17.12,15.0,-25.12,0.28,-0.52,0.28,0.76
296,00:00:07.046,IMU7,1.86,3.57,-9.12,0.01,0.01,0.0,21.81,7.38,27.69,0.47,0.86,0.2,0.01
296,00:00:07.046,IMU5,6.85,-0.44,7.02,0.0,0.0,0.0,5.56,-12.12,-34.88,0.31,-0.22,0.79,0.48
296,00:00:07.046,IMU1,9.38,1.36,3.16,0.0,0.0,0.0,-17.12,15.0,-25.12,0.28,-0.52,0.28,0.76
297,00:00:07.051,IMU7,1.82,3.53,-9.16,0.01,0.01,0.0,21.81,7.38,27.69,0.47,0.86,0.2,0.01
297,00:00:07.051,IMU5,6.85,-0.44,7.02,0.0,0.0,0.0,5.56,-12.12,-34.88,0.31,-0.22,0.79,0.48
297,00:00:07.051,IMU1,9.38,1.36,3.16,0.0,0.0,0.0,-17.12,15.0,-25.12,0.28,-0.52,0.28,0.76
298,00:00:07.055,IMU7,1.82,3.53,-9.16,0.0,0.0,0.0,21.81,7.38,27.69,0.47,0.86,0.2,0.01
298,00:00:07.055,IMU5,6.85,-0.44,7.02,0.0,0.0,0.0,5.56,-12.12,-34.88,0.31,-0.22,0.79,0.48
298,00:00:07.055,IMU1,9.38,1.36,3.16,0.0,0.0,0.0,-17.12,15.0,-25.12,0.28,-0.52,0.28,0.76
299,00:00:07.062,IMU7,1.82,3.53,-9.16,0.0,0.0,0.0,21.25,7.62,26.69,0.47,0.86,0.2,0.01
299,00:00:07.062,IMU5,6.85,-0.44,7.02,0.0,0.0,0.0,5.56,-12.12,-34.88,0.31,-0.22,0.79,0.48
299,00:00:07.062,IMU1,9.38,1.36,3.16,0.0,0.0,0.0,-17.12,15.0,-25.12,0.28,-0.52,0.28,0.76
300,00:00:07.068,IMU7,1.82,3.53,-9.16,0.0,0.0,0.0,21.25,7.62,26.69,0.47,0.86,0.2,0.01
300,00:00:07.068,IMU5,6.85,-0.44,7.02,0.0,0.0,0.0,5.56,-12.12,-34.88,0.31,-0.22,0.79,0.48
300,00:00:07.068,IMU1,9.38,1.36,3.16,0.0,0.0,0.0,-17.12,15.0,-25.12,0.28,-0.52,0.28,0.76
301,00:00:07.072,IMU7,1.82,3.53,-9.16,0.0,0.0,0.0,21.25,7.62,26.69,0.47,0.86,0.2,0.01
301,00:00:07.072,IMU5,6.85,-0.44,7.02,0.0,0.0,0.0,6.0,-11.44,-34.62,0.31,-0.22,0.79,0.48
301,00:00:07.072,IMU1,9.38,1.36,3.16,0.0,0.0,0.0,-17.12,15.0,-25.12,0.28,-0.52,0.28,0.76
302,00:00:07.076,IMU7,1.82,3.53,-9.16,0.0,0.0,0.0,21.25,7.62,26.69,0.47,0.86,0.2,0.01
302,00:00:07.076,IMU5,6.85,-0.44,7.02,0.0,0.0,0.0,6.0,-11.44,-34.62,0.31,-0.22,0.79,0.48
302,00:00:07.076,IMU1,9.34,1.24,3.12,0.0,0.0,0.0,-17.12,15.0,-25.12,0.28,-0.52,0.28,0.76
303,00:00:07.080,IMU7,1.82,3.53,-9.16,0.01,-0.0,0.0,21.25,7.62,26.69,0.47,0.86,0.2,0.01
303,00:00:07.080,IMU5,6.85,-0.44,7.02,0.0,0.0,0.0,6.0,-11.44,-34.62,0.31,-0.22,0.79,0.48
303,00:00:07.080,IMU1,9.34,1.24,3.12,0.0,0.0,0.0,-18.12,14.12,-26.88,0.28,-0.52,0.28,0.76
304,00:00:07.084,IMU7,1.82,3.53,-9.16,0.01,-0.0,0.0,21.25,7.62,26.69,0.47,0.86,0.2,0.01
304,00:00:07.084,IMU5,6.85,-0.44,7.02,0.0,0.0,0.0,6.0,-11.44,-34.62,0.31,-0.22,0.79,0.48
304,00:00:07.084,IMU1,9.34,1.24,3.12,0.0,0.0,0.0,-18.12,14.12,-26.88,0.28,-0.52,0.28,0.76
305,00:00:07.089,IMU7,1.82,3.57,-9.16,0.01,-0.0,0.0,21.25,7.62,26.69,0.47,0.86,0.2,0.01
305,00:00:07.089,IMU5,6.85,-0.44,7.02,0.0,0.0,0.0,6.0,-11.44,-34.62,0.31,-0.22,0.79,0.48
305,00:00:07.089,IMU1,9.34,1.24,3.12,0.0,0.0,0.0,-18.12,14.12,-26.88,0.28,-0.52,0.28,0.76
306,00:00:07.095,IMU7,1.82,3.57,-9.16,0.01,-0.0,0.0,20.88,8.5,28.69,0.47,0.86,0.2,0.01
306,00:00:07.095,IMU5,6.85,-0.44,7.02,0.0,0.0,0.0,6.0,-11.44,-34.62,0.31,-0.22,0.79,0.48
306,00:00:07.095,IMU1,9.34,1.24,3.12,0.0,0.0,0.0,-18.12,14.12,-26.88,0.28,-0.52,0.28,0.76
307,00:00:07.099,IMU7,1.82,3.57,-9.16,0.0,-0.01,0.0,20.88,8.5,28.69,0.47,0.86,0.2,0.01
307,00:00:07.099,IMU5,6.85,-0.44,7.02,0.0,0.0,0.0,6.0,-11.44,-34.62,0.31,-0.22,0.79,0.48
307,00:00:07.099,IMU1,9.34,1.24,3.12,0.0,0.0,0.0,-18.12,14.12,-26.88,0.28,-0.52,0.28,0.76
308,00:00:07.105,IMU7,1.82,3.57,-9.16,0.0,-0.01,0.0,20.88,8.5,28.69,0.47,0.86,0.2,0.01
308,00:00:07.105,IMU5,6.85,-0.44,7.02,0.0,0.0,0.0,6.0,-11.44,-34.62,0.31,-0.22,0.79,0.48
308,00:00:07.105,IMU1,9.34,1.28,3.12,0.0,0.0,0.0,-18.12,14.12,-26.88,0.28,-0.52,0.28,0.76
309,00:00:07.110,IMU7,1.82,3.57,-9.16,0.0,0.0,-0.01,20.88,8.5,28.69,0.47,0.86,0.2,0.01
309,00:00:07.110,IMU5,6.85,-0.44,7.02,0.0,0.0,0.0,5.5,-9.88,-35.44,0.31,-0.22,0.79,0.48
309,00:00:07.110,IMU1,9.34,1.28,3.12,0.0,0.0,0.0,-17.5,15.06,-27.12,0.28,-0.52,0.28,0.76
310,00:00:07.115,IMU7,1.82,3.57,-9.16,0.0,0.0,-0.01,20.88,8.5,28.69,0.47,0.86,0.2,0.01
310,00:00:07.115,IMU5,6.85,-0.44,7.02,0.0,0.0,0.0,5.5,-9.88,-35.44,0.31,-0.22,0.79,0.48
310,00:00:07.115,IMU1,9.34,1.28,3.12,0.0,0.0,0.0,-17.5,15.06,-27.12,0.28,-0.52,0.28,0.76
311,00:00:07.119,IMU7,1.78,3.57,-9.16,0.0,0.0,-0.01,20.88,8.5,28.69,0.47,0.86,0.2,0.01
311,00:00:07.119,IMU5,6.85,-0.44,7.02,0.0,0.0,0.0,5.5,-9.88,-35.44,0.31,-0.22,0.79,0.48
311,00:00:07.119,IMU1,9.34,1.28,3.12,0.0,0.0,0.0,-17.5,15.06,-27.12,0.28,-0.52,0.28,0.76
312,00:00:07.126,IMU7,1.78,3.57,-9.16,-0.0,0.0,0.0,20.88,8.5,28.69,0.47,0.86,0.2,0.01
312,00:00:07.126,IMU5,6.85,-0.44,7.02,0.0,0.0,0.0,5.5,-9.88,-35.44,0.31,-0.22,0.79,0.48
312,00:00:07.126,IMU1,9.34,1.28,3.12,0.0,0.0,0.0,-17.5,15.06,-27.12,0.28,-0.52,0.28,0.76
313,00:00:07.129,IMU7,1.78,3.57,-9.16,-0.0,0.0,0.0,21.94,8.75,27.44,0.47,0.86,0.2,0.01
313,00:00:07.129,IMU5,6.85,-0.44,7.02,0.0,0.0,0.0,5.5,-9.88,-35.44,0.31,-0.22,0.79,0.48
313,00:00:07.129,IMU1,9.34,1.28,3.12,0.0,0.0,0.0,-17.5,15.06,-27.12,0.28,-0.52,0.28,0.76
314,00:00:07.133,IMU7,1.78,3.57,-9.16,-0.0,0.0,0.0,21.94,8.75,27.44,0.47,0.86,0.2,0.01
314,00:00:07.133,IMU5,6.85,-0.44,7.02,0.0,0.0,0.0,5.5,-9.88,-35.44,0.31,-0.22,0.79,0.48
314,00:00:07.133,IMU1,9.34,1.32,3.16,0.0,0.0,0.0,-17.5,15.06,-27.12,0.28,-0.52,0.28,0.76
315,00:00:07.140,IMU7,1.78,3.57,-9.16,0.0,0.0,0.0,21.94,8.75,27.44,0.47,0.86,0.2,0.01
315,00:00:07.140,IMU5,6.85,-0.44,7.02,0.0,0.0,0.0,5.5,-9.88,-35.44,0.31,-0.22,0.79,0.48
315,00:00:07.140,IMU1,9.34,1.32,3.16,0.0,0.0,0.0,-17.94,14.56,-26.06,0.28,-0.52,0.28,0.76
316,00:00:07.148,IMU7,1.78,3.57,-9.16,0.0,0.0,0.0,21.94,8.75,27.44,0.47,0.86,0.2,0.01
316,00:00:07.148,IMU5,6.85,-0.44,7.02,0.0,0.0,0.0,5.5,-9.88,-35.44,0.31,-0.22,0.79,0.48
316,00:00:07.148,IMU1,9.34,1.32,3.16,0.0,0.0,0.0,-17.94,14.56,-26.06,0.28,-0.52,0.28,0.76
317,00:00:07.151,IMU7,1.78,3.57,-9.16,0.01,0.0,-0.0,21.94,8.75,27.44,0.47,0.86,0.2,0.01
317,00:00:07.151,IMU5,6.85,-0.44,7.07,0.0,0.0,0.0,5.5,-9.88,-35.44,0.31,-0.22,0.79,0.48
317,00:00:07.151,IMU1,9.34,1.32,3.16,0.0,0.0,0.0,-17.94,14.56,-26.06,0.28,-0.52,0.28,0.76
318,00:00:07.158,IMU7,1.78,3.57,-9.16,0.01,0.0,-0.0,21.94,8.75,27.44,0.47,0.86,0.2,0.01
318,00:00:07.158,IMU5,6.85,-0.44,7.07,0.0,0.0,0.0,5.88,-12.31,-34.44,0.31,-0.22,0.79,0.48
318,00:00:07.158,IMU1,9.3,1.36,3.2,0.0,0.0,0.0,-17.94,14.56,-26.06,0.28,-0.52,0.28,0.76
319,00:00:07.161,IMU7,1.78,3.57,-9.16,0.07,0.0,-0.01,21.94,8.75,27.44,0.47,0.86,0.2,0.01
319,00:00:07.161,IMU5,6.85,-0.44,7.07,0.0,0.0,0.0,5.88,-12.31,-34.44,0.31,-0.22,0.79,0.48
319,00:00:07.161,IMU1,9.3,1.36,3.2,0.0,0.0,0.0,-17.38,14.62,-26.38,0.28,-0.52,0.28,0.76
320,00:00:07.165,IMU7,1.78,3.57,-9.16,0.07,0.0,-0.01,21.94,8.75,27.44,0.47,0.86,0.2,0.01
320,00:00:07.165,IMU5,6.85,-0.44,7.07,0.0,0.0,0.0,5.88,-12.31,-34.44,0.31,-0.22,0.79,0.48
320,00:00:07.165,IMU1,9.3,1.36,3.2,0.0,0.0,0.0,-17.38,14.62,-26.38,0.28,-0.52,0.28,0.76
321,00:00:07.170,IMU7,1.82,3.45,-9.31,0.07,0.0,-0.01,21.94,8.75,27.44,0.47,0.86,0.2,0.01
321,00:00:07.170,IMU5,6.85,-0.44,7.07,0.0,0.0,0.0,5.88,-12.31,-34.44,0.31,-0.22,0.79,0.48
321,00:00:07.170,IMU1,9.3,1.36,3.2,0.0,0.0,0.0,-17.38,14.62,-26.38,0.28,-0.52,0.28,0.76
322,00:00:07.175,IMU7,1.82,3.45,-9.31,0.1,-0.02,0.0,21.94,8.75,27.44,0.47,0.86,0.2,0.01
322,00:00:07.175,IMU5,6.85,-0.44,7.07,0.0,0.0,0.0,5.88,-12.31,-34.44,0.31,-0.22,0.79,0.48
322,00:00:07.175,IMU1,9.3,1.36,3.2,0.0,0.0,0.0,-17.38,14.62,-26.38,0.28,-0.52,0.28,0.76
323,00:00:07.179,IMU7,1.82,3.45,-9.31,0.1,-0.02,0.0,20.38,8.38,27.25,0.47,0.86,0.2,0.01
323,00:00:07.179,IMU5,6.85,-0.44,7.07,0.0,0.0,0.0,5.88,-12.31,-34.44,0.31,-0.22,0.79,0.48
323,00:00:07.179,IMU1,9.3,1.36,3.2,0.0,0.0,0.0,-17.38,14.62,-26.38,0.28,-0.52,0.28,0.76
324,00:00:07.184,IMU7,1.82,3.45,-9.31,0.1,-0.02,0.0,20.38,8.38,27.25,0.47,0.86,0.2,0.01
324,00:00:07.184,IMU5,6.85,-0.44,7.07,0.0,0.0,0.0,5.88,-12.31,-34.44,0.31,-0.22,0.79,0.48
324,00:00:07.184,IMU1,9.3,1.36,3.2,0.0,0.0,0.0,-17.38,14.62,-26.38,0.28,-0.52,0.28,0.76
325,00:00:07.189,IMU7,1.82,3.45,-9.31,0.02,0.01,0.02,20.38,8.38,27.25,0.47,0.86,0.2,0.01
325,00:00:07.189,IMU5,6.81,-0.4,7.02,0.0,0.0,0.0,5.88,-12.31,-34.44,0.31,-0.22,0.79,0.48
325,00:00:07.189,IMU1,9.3,1.36,3.2,0.0,0.0,0.0,-17.38,14.62,-26.38,0.28,-0.52,0.28,0.76
326,00:00:07.194,IMU7,1.82,3.45,-9.31,0.02,0.01,0.02,20.38,8.38,27.25,0.47,0.86,0.2,0.01
326,00:00:07.194,IMU5,6.81,-0.4,7.02,0.0,0.0,0.0,5.88,-12.31,-34.44,0.31,-0.22,0.79,0.48
326,00:00:07.194,IMU1,9.3,1.32,3.2,0.0,0.0,0.0,-17.38,14.62,-26.38,0.28,-0.52,0.28,0.76
327,00:00:07.198,IMU7,1.82,3.45,-9.31,-0.0,0.0,-0.0,20.38,8.38,27.25,0.47,0.86,0.2,0.01
327,00:00:07.198,IMU5,6.81,-0.4,7.02,0.0,0.0,0.0,5.94,-12.0,-35.62,0.31,-0.22,0.79,0.48
327,00:00:07.198,IMU1,9.3,1.32,3.2,0.0,0.0,0.0,-17.38,15.94,-26.75,0.28,-0.52,0.28,0.76
328,00:00:07.202,IMU7,1.82,3.45,-9.31,-0.0,0.0,-0.0,20.38,8.38,27.25,0.47,0.86,0.2,0.01
328,00:00:07.202,IMU5,6.81,-0.4,7.02,0.0,0.0,0.0,5.94,-12.0,-35.62,0.31,-0.22,0.79,0.48
328,00:00:07.202,IMU1,9.3,1.32,3.2,0.0,0.0,0.0,-17.38,15.94,-26.75,0.28,-0.52,0.28,0.76
329,00:00:07.207,IMU7,1.86,3.49,-9.04,-0.0,0.0,-0.0,20.38,8.38,27.25,0.47,0.86,0.2,0.01
329,00:00:07.207,IMU5,6.81,-0.4,7.02,0.0,0.0,0.0,5.94,-12.0,-35.62,0.31,-0.22,0.79,0.48
329,00:00:07.207,IMU1,9.3,1.32,3.2,0.0,0.0,0.0,-17.38,15.94,-26.75,0.28,-0.52,0.28,0.76
330,00:00:07.215,IMU7,1.86,3.49,-9.04,-0.0,0.0,-0.0,21.88,7.69,27.69,0.47,0.86,0.2,0.01
330,00:00:07.215,IMU5,6.81,-0.4,7.02,0.0,0.0,0.0,5.94,-12.0,-35.62,0.31,-0.22,0.79,0.48
330,00:00:07.215,IMU1,9.3,1.32,3.2,0.0,0.0,0.0,-17.38,15.94,-26.75,0.28,-0.52,0.28,0.76
331,00:00:07.218,IMU7,1.86,3.49,-9.04,-0.02,-0.01,-0.01,21.88,7.69,27.69,0.47,0.86,0.2,0.01
331,00:00:07.218,IMU5,6.81,-0.4,7.02,0.0,0.0,0.0,5.94,-12.0,-35.62,0.31,-0.22,0.79,0.48
331,00:00:07.218,IMU1,9.3,1.32,3.2,0.0,0.0,0.0,-17.38,15.94,-26.75,0.28,-0.52,0.28,0.76
332,00:00:07.221,IMU7,1.86,3.49,-9.04,-0.02,-0.01,-0.01,21.88,7.69,27.69,0.47,0.86,0.2,0.01
332,00:00:07.221,IMU5,6.81,-0.4,7.02,0.0,0.0,0.0,5.94,-12.0,-35.62,0.31,-0.22,0.79,0.48
332,00:00:07.221,IMU1,9.3,1.32,3.2,0.0,0.0,0.0,-17.38,15.94,-26.75,0.28,-0.52,0.28,0.76
333,00:00:07.226,IMU7,1.86,3.49,-9.04,0.0,0.0,-0.0,21.88,7.69,27.69,0.47,0.86,0.2,0.01
333,00:00:07.226,IMU5,6.81,-0.4,7.02,0.0,0.0,0.0,5.94,-12.0,-35.62,0.31,-0.22,0.79,0.48
333,00:00:07.226,IMU1,9.3,1.32,3.2,0.0,0.0,0.0,-17.38,15.94,-26.75,0.28,-0.52,0.28,0.76
334,00:00:07.230,IMU7,1.86,3.49,-9.04,0.0,0.0,-0.0,21.88,7.69,27.69,0.47,0.86,0.2,0.01
334,00:00:07.230,IMU5,6.81,-0.4,7.02,0.0,0.0,0.0,5.94,-12.0,-35.62,0.31,-0.22,0.79,0.48
334,00:00:07.230,IMU1,9.34,1.32,3.16,0.0,0.0,0.0,-17.38,15.94,-26.75,0.28,-0.52,0.28,0.76
335,00:00:07.238,IMU7,1.86,3.49,-9.04,0.01,0.0,0.01,21.88,7.69,27.69,0.47,0.86,0.2,0.01
335,00:00:07.238,IMU5,6.81,-0.4,6.98,0.0,0.0,0.0,5.94,-12.0,-35.62,0.31,-0.22,0.79,0.48
335,00:00:07.238,IMU1,9.34,1.32,3.16,0.0,0.0,0.0,-18.31,15.0,-26.56,0.28,-0.52,0.28,0.76
336,00:00:07.244,IMU7,1.86,3.49,-9.04,0.01,0.0,0.01,21.88,7.69,27.69,0.47,0.86,0.2,0.01
336,00:00:07.244,IMU5,6.81,-0.4,6.98,0.0,0.0,0.0,5.94,-12.0,-35.62,0.31,-0.22,0.79,0.48
336,00:00:07.244,IMU1,9.34,1.32,3.16,0.0,0.0,0.0,-18.31,15.0,-26.56,0.28,-0.52,0.28,0.76
337,00:00:07.249,IMU7,1.86,3.49,-9.04,-0.0,-0.0,0.0,21.88,7.69,27.69,0.47,0.86,0.2,0.01
337,00:00:07.249,IMU5,6.81,-0.4,6.98,0.0,0.0,0.0,6.5,-12.94,-34.19,0.31,-0.22,0.79,0.48
337,00:00:07.249,IMU1,9.34,1.32,3.16,0.0,0.0,0.0,-18.31,15.0,-26.56,0.28,-0.52,0.28,0.76
338,00:00:07.253,IMU7,1.86,3.49,-9.04,-0.0,-0.0,0.0,21.88,7.69,27.69,0.47,0.86,0.2,0.01
338,00:00:07.253,IMU5,6.81,-0.4,6.98,0.0,0.0,0.0,6.5,-12.94,-34.19,0.31,-0.22,0.79,0.48
338,00:00:07.253,IMU1,9.34,1.32,3.16,0.0,0.0,0.0,-18.31,15.0,-26.56,0.28,-0.52,0.28,0.76
339,00:00:07.260,IMU7,1.78,3.53,-9.08,-0.0,-0.0,0.0,21.88,7.69,27.69,0.47,0.86,0.2,0.01
339,00:00:07.260,IMU5,6.81,-0.4,6.98,0.0,0.0,0.0,6.5,-12.94,-34.19,0.31,-0.22,0.79,0.48
339,00:00:07.260,IMU1,9.34,1.32,3.16,0.0,0.0,0.0,-18.31,15.0,-26.56,0.28,-0.52,0.28,0.76
340,00:00:07.265,IMU7,1.78,3.53,-9.08,-0.0,-0.0,0.0,22.69,8.75,27.31,0.47,0.86,0.2,0.01
340,00:00:07.265,IMU5,6.81,-0.4,6.98,0.0,0.0,0.0,6.5,-12.94,-34.19,0.31,-0.22,0.79,0.48
340,00:00:07.265,IMU1,9.34,1.32,3.16,0.0,0.0,0.0,-18.31,15.0,-26.56,0.28,-0.52,0.28,0.76
341,00:00:07.270,IMU7,1.78,3.53,-9.08,-0.01,0.01,-0.01,22.69,8.75,27.31,0.47,0.86,0.2,0.01
341,00:00:07.270,IMU5,6.81,-0.4,6.98,0.0,0.0,0.0,6.5,-12.94,-34.19,0.31,-0.22,0.79,0.48
341,00:00:07.270,IMU1,9.34,1.32,3.16,0.0,0.0,0.0,-18.31,15.0,-26.56,0.28,-0.52,0.28,0.76
342,00:00:07.275,IMU7,1.78,3.53,-9.08,-0.01,0.01,-0.01,22.69,8.75,27.31,0.47,0.86,0.2,0.01
342,00:00:07.275,IMU5,6.81,-0.4,6.98,0.0,0.0,0.0,6.5,-12.94,-34.19,0.31,-0.22,0.79,0.48
342,00:00:07.275,IMU1,9.3,1.36,3.12,0.0,0.0,0.0,-18.31,15.0,-26.56,0.28,-0.52,0.28,0.76
343,00:00:07.278,IMU7,1.78,3.53,-9.08,0.02,-0.0,0.0,22.69,8.75,27.31,0.47,0.86,0.2,0.01
343,00:00:07.278,IMU5,6.81,-0.44,6.99,0.0,0.0,0.0,6.5,-12.94,-34.19,0.31,-0.22,0.79,0.48
343,00:00:07.278,IMU1,9.3,1.36,3.12,0.0,0.0,0.0,-17.25,14.19,-26.69,0.28,-0.52,0.28,0.76
344,00:00:07.282,IMU7,1.78,3.53,-9.08,0.02,-0.0,0.0,22.69,8.75,27.31,0.47,0.86,0.2,0.01
344,00:00:07.282,IMU5,6.81,-0.44,6.99,0.0,0.0,0.0,5.69,-12.25,-34.5,0.31,-0.22,0.79,0.48
344,00:00:07.282,IMU1,9.3,1.36,3.12,0.0,0.0,0.0,-17.25,14.19,-26.69,0.28,-0.52,0.28,0.76
345,00:00:07.286,IMU7,1.78,3.53,-9.08,-0.01,-0.01,-0.0,22.69,8.75,27.31,0.47,0.86,0.2,0.01
345,00:00:07.286,IMU5,6.81,-0.44,6.99,0.0,0.0,0.0,5.69,-12.25,-34.5,0.31,-0.22,0.79,0.48
345,00:00:07.286,IMU1,9.3,1.36,3.12,0.0,0.0,0.0,-17.25,14.19,-26.69,0.28,-0.52,0.28,0.76
346,00:00:07.294,IMU7,1.78,3.53,-9.08,-0.01,-0.01,-0.0,22.69,8.75,27.31,0.47,0.86,0.2,0.01
346,00:00:07.294,IMU5,6.81,-0.44,6.99,0.0,0.0,0.0,5.69,-12.25,-34.5,0.31,-0.22,0.79,0.48
346,00:00:07.294,IMU1,9.3,1.36,3.12,0.0,0.0,0.0,-17.25,14.19,-26.69,0.28,-0.52,0.28,0.76
347,00:00:07.297,IMU7,1.74,3.53,-9.08,-0.01,-0.01,-0.0,22.69,8.75,27.31,0.47,0.86,0.2,0.01
347,00:00:07.297,IMU5,6.81,-0.44,6.99,0.0,0.0,0.0,5.69,-12.25,-34.5,0.31,-0.22,0.79,0.48
347,00:00:07.297,IMU1,9.3,1.36,3.12,0.0,0.0,0.0,-17.25,14.19,-26.69,0.28,-0.52,0.28,0.76
348,00:00:07.303,IMU7,1.74,3.53,-9.08,-0.01,-0.01,-0.0,21.69,8.5,28.56,0.47,0.86,0.2,0.01
348,00:00:07.303,IMU5,6.81,-0.44,6.99,0.0,0.0,0.0,5.69,-12.25,-34.5,0.31,-0.22,0.79,0.48
348,00:00:07.303,IMU1,9.3,1.36,3.12,0.0,0.0,0.0,-17.25,14.19,-26.69,0.28,-0.52,0.28,0.76
349,00:00:07.306,IMU7,1.74,3.53,-9.08,-0.01,0.0,-0.0,21.69,8.5,28.56,0.47,0.86,0.2,0.01
349,00:00:07.306,IMU5,6.81,-0.44,6.99,0.0,0.0,0.0,5.69,-12.25,-34.5,0.31,-0.22,0.79,0.48
349,00:00:07.306,IMU1,9.3,1.36,3.12,0.0,0.0,0.0,-17.25,14.19,-26.69,0.28,-0.52,0.28,0.76
350,00:00:07.310,IMU7,1.74,3.53,-9.08,-0.01,0.0,-0.0,21.69,8.5,28.56,0.47,0.86,0.2,0.01
350,00:00:07.310,IMU5,6.81,-0.44,6.99,0.0,0.0,0.0,5.69,-12.25,-34.5,0.31,-0.22,0.79,0.48
350,00:00:07.310,IMU1,9.26,1.32,3.16,0.0,0.0,0.0,-17.25,14.19,-26.69,0.28,-0.52,0.28,0.76
351,00:00:07.316,IMU7,1.74,3.53,-9.08,0.01,0.01,0.01,21.69,8.5,28.56,0.47,0.86,0.2,0.01
351,00:00:07.316,IMU5,6.81,-0.44,6.99,0.0,0.0,0.0,5.69,-12.25,-34.5,0.31,-0.22,0.79,0.48
351,00:00:07.316,IMU1,9.26,1.32,3.16,0.0,0.0,0.0,-17.44,13.81,-26.38,0.28,-0.52,0.28,0.76
352,00:00:07.322,IMU7,1.74,3.53,-9.08,0.01,0.01,0.01,21.69,8.5,28.56,0.47,0.86,0.2,0.01
352,00:00:07.322,IMU5,6.81,-0.44,6.99,0.0,0.0,0.0,5.69,-12.25,-34.5,0.31,-0.22,0.79,0.48
352,00:00:07.322,IMU1,9.26,1.32,3.16,0.0,0.0,0.0,-17.44,13.81,-26.38,0.28,-0.52,0.28,0.76
353,00:00:07.325,IMU7,1.74,3.53,-9.08,0.0,0.0,-0.01,21.69,8.5,28.56,0.47,0.86,0.2,0.01
353,00:00:07.325,IMU5,6.81,-0.44,7.03,0.0,0.0,0.0,5.69,-12.25,-34.5,0.31,-0.22,0.79,0.48
353,00:00:07.325,IMU1,9.26,1.32,3.16,0.0,0.0,0.0,-17.44,13.81,-26.38,0.28,-0.52,0.28,0.76
354,00:00:07.330,IMU7,1.74,3.53,-9.08,0.0,0.0,-0.01,21.69,8.5,28.56,0.47,0.86,0.2,0.01
354,00:00:07.330,IMU5,6.81,-0.44,7.03,0.0,0.0,0.0,5.5,-12.0,-35.38,0.31,-0.22,0.79,0.48
354,00:00:07.330,IMU1,9.26,1.32,3.16,0.0,0.0,0.0,-17.44,13.81,-26.38,0.28,-0.52,0.28,0.76
355,00:00:07.334,IMU7,1.74,3.53,-9.08,0.0,0.0,-0.01,21.69,8.5,28.56,0.47,0.86,0.2,0.01
355,00:00:07.334,IMU5,6.81,-0.44,7.03,0.0,0.0,0.0,5.5,-12.0,-35.38,0.31,-0.22,0.79,0.48
355,00:00:07.334,IMU1,9.26,1.32,3.16,0.0,0.0,0.0,-17.44,13.81,-26.38,0.28,-0.52,0.28,0.76
356,00:00:07.340,IMU7,1.74,3.53,-9.08,0.0,0.0,-0.01,20.56,8.12,28.31,0.47,0.86,0.2,0.01
356,00:00:07.340,IMU5,6.81,-0.44,7.03,0.0,0.0,0.0,5.5,-12.0,-35.38,0.31,-0.22,0.79,0.48
356,00:00:07.340,IMU1,9.26,1.32,3.16,0.0,0.0,0.0,-17.44,13.81,-26.38,0.28,-0.52,0.28,0.76
357,00:00:07.343,IMU7,1.74,3.53,-9.08,-0.01,-0.0,0.0,20.56,8.12,28.31,0.47,0.86,0.2,0.01
357,00:00:07.343,IMU5,6.81,-0.44,7.03,0.0,0.0,0.0,5.5,-12.0,-35.38,0.31,-0.22,0.79,0.48
357,00:00:07.343,IMU1,9.26,1.32,3.16,0.0,0.0,0.0,-17.44,13.81,-26.38,0.28,-0.52,0.28,0.76
358,00:00:07.348,IMU7,1.74,3.53,-9.08,-0.01,-0.0,0.0,20.56,8.12,28.31,0.47,0.86,0.2,0.01
358,00:00:07.348,IMU5,6.81,-0.44,7.03,0.0,0.0,0.0,5.5,-12.0,-35.38,0.31,-0.22,0.79,0.48
358,00:00:07.348,IMU1,9.26,1.32,3.16,0.0,0.0,0.0,-17.44,13.81,-26.38,0.28,-0.52,0.28,0.76
359,00:00:07.352,IMU7,1.74,3.53,-9.08,0.0,-0.0,0.0,20.56,8.12,28.31,0.47,0.86,0.2,0.01
359,00:00:07.352,IMU5,6.81,-0.44,7.03,0.0,0.0,0.0,5.5,-12.0,-35.38,0.31,-0.22,0.79,0.48
359,00:00:07.352,IMU1,9.26,1.32,3.16,0.0,0.0,0.0,-17.44,13.81,-26.38,0.28,-0.52,0.28,0.76
360,00:00:07.356,IMU7,1.74,3.53,-9.08,0.0,-0.0,0.0,20.56,8.12,28.31,0.47,0.86,0.2,0.01
360,00:00:07.356,IMU5,6.81,-0.44,7.03,0.0,0.0,0.0,5.5,-12.0,-35.38,0.31,-0.22,0.79,0.48
360,00:00:07.356,IMU1,9.34,1.28,3.16,0.0,0.0,0.0,-17.44,13.81,-26.38,0.28,-0.52,0.28,0.76
361,00:00:07.362,IMU7,1.74,3.53,-9.08,-0.0,0.0,-0.0,20.56,8.12,28.31,0.47,0.86,0.2,0.01
361,00:00:07.362,IMU5,6.81,-0.44,6.95,0.0,0.0,0.0,5.5,-12.0,-35.38,0.31,-0.22,0.79,0.48
361,00:00:07.362,IMU1,9.34,1.28,3.16,0.0,0.0,0.0,-17.88,13.81,-27.12,0.28,-0.52,0.28,0.76
362,00:00:07.367,IMU7,1.74,3.53,-9.08,-0.0,0.0,-0.0,20.56,8.12,28.31,0.47,0.86,0.2,0.01
362,00:00:07.367,IMU5,6.81,-0.44,6.95,0.0,0.0,0.0,5.5,-12.0,-35.38,0.31,-0.22,0.79,0.48
362,00:00:07.367,IMU1,9.34,1.28,3.16,0.0,0.0,0.0,-17.88,13.81,-27.12,0.28,-0.52,0.28,0.76
363,00:00:07.371,IMU7,1.74,3.53,-9.08,-0.01,0.0,-0.0,20.56,8.12,28.31,0.47,0.86,0.2,0.01
363,00:00:07.371,IMU5,6.81,-0.44,6.95,0.0,0.0,0.0,6.12,-13.06,-33.44,0.31,-0.22,0.79,0.48
363,00:00:07.371,IMU1,9.34,1.28,3.16,0.0,0.0,0.0,-17.88,13.81,-27.12,0.28,-0.52,0.28,0.76
364,00:00:07.376,IMU7,1.74,3.53,-9.08,-0.01,0.0,-0.0,20.56,8.12,28.31,0.47,0.86,0.2,0.01
364,00:00:07.376,IMU5,6.81,-0.44,6.95,0.0,0.0,0.0,6.12,-13.06,-33.44,0.31,-0.22,0.79,0.48
364,00:00:07.376,IMU1,9.34,1.28,3.16,0.0,0.0,0.0,-17.88,13.81,-27.12,0.28,-0.52,0.28,0.76
365,00:00:07.380,IMU7,1.82,3.53,-9.12,-0.01,0.0,-0.0,20.56,8.12,28.31,0.47,0.86,0.2,0.01
365,00:00:07.380,IMU5,6.81,-0.44,6.95,0.0,0.0,0.0,6.12,-13.06,-33.44,0.31,-0.22,0.79,0.48
365,00:00:07.380,IMU1,9.34,1.28,3.16,0.0,0.0,0.0,-17.88,13.81,-27.12,0.28,-0.52,0.28,0.76
366,00:00:07.387,IMU7,1.82,3.53,-9.12,-0.01,0.0,-0.0,21.38,8.5,28.19,0.47,0.86,0.2,0.01
366,00:00:07.387,IMU5,6.81,-0.44,6.95,0.0,0.0,0.0,6.12,-13.06,-33.44,0.31,-0.22,0.79,0.48
366,00:00:07.387,IMU1,9.34,1.28,3.16,0.0,0.0,0.0,-17.88,13.81,-27.12,0.28,-0.52,0.28,0.76
367,00:00:07.390,IMU7,1.82,3.53,-9.12,0.0,-0.0,-0.01,21.38,8.5,28.19,0.47,0.86,0.2,0.01
367,00:00:07.390,IMU5,6.81,-0.44,6.95,0.0,0.0,0.0,6.12,-13.06,-33.44,0.31,-0.22,0.79,0.48
367,00:00:07.390,IMU1,9.34,1.28,3.16,0.0,0.0,0.0,-17.88,13.81,-27.12,0.28,-0.52,0.28,0.76
368,00:00:07.394,IMU7,1.82,3.53,-9.12,0.0,-0.0,-0.01,21.38,8.5,28.19,0.47,0.86,0.2,0.01
368,00:00:07.394,IMU5,6.81,-0.44,6.95,0.0,0.0,0.0,6.12,-13.06,-33.44,0.31,-0.22,0.79,0.48
368,00:00:07.394,IMU1,9.3,1.28,3.12,0.0,0.0,0.0,-17.88,13.81,-27.12,0.28,-0.52,0.28,0.76
369,00:00:07.399,IMU7,1.82,3.53,-9.12,0.01,-0.01,-0.01,21.38,8.5,28.19,0.47,0.86,0.2,0.01
369,00:00:07.399,IMU5,6.81,-0.44,6.95,0.0,0.0,0.0,6.12,-13.06,-33.44,0.31,-0.22,0.79,0.48
369,00:00:07.399,IMU1,9.3,1.28,3.12,0.0,0.0,0.0,-17.88,14.19,-27.19,0.28,-0.52,0.28,0.76
370,00:00:07.403,IMU7,1.82,3.53,-9.12,0.01,-0.01,-0.01,21.38,8.5,28.19,0.47,0.86,0.2,0.01
370,00:00:07.403,IMU5,6.81,-0.44,6.95,0.0,0.0,0.0,6.12,-13.06,-33.44,0.31,-0.22,0.79,0.48
370,00:00:07.403,IMU1,9.3,1.28,3.12,0.0,0.0,0.0,-17.88,14.19,-27.19,0.28,-0.52,0.28,0.76
371,00:00:07.409,IMU7,1.86,3.61,-9.08,0.01,-0.01,-0.01,21.38,8.5,28.19,0.47,0.86,0.2,0.01
371,00:00:07.409,IMU5,6.85,-0.36,7.06,0.0,0.0,0.0,6.12,-13.06,-33.44,0.31,-0.22,0.79,0.48
371,00:00:07.409,IMU1,9.3,1.28,3.12,0.0,0.0,0.0,-17.88,14.19,-27.19,0.28,-0.52,0.28,0.76
372,00:00:07.415,IMU7,1.86,3.61,-9.08,-0.01,-0.01,-0.01,21.38,8.5,28.19,0.47,0.86,0.2,0.01
372,00:00:07.415,IMU5,6.85,-0.36,7.06,0.0,0.0,0.0,6.25,-12.19,-35.12,0.31,-0.22,0.79,0.48
372,00:00:07.415,IMU1,9.3,1.28,3.12,0.0,0.0,0.0,-17.88,14.19,-27.19,0.28,-0.52,0.28,0.76
373,00:00:07.418,IMU7,1.86,3.61,-9.08,-0.01,-0.01,-0.01,22.0,9.06,27.06,0.47,0.86,0.2,0.01
373,00:00:07.418,IMU5,6.85,-0.36,7.06,0.0,0.0,0.0,6.25,-12.19,-35.12,0.31,-0.22,0.79,0.48
373,00:00:07.418,IMU1,9.3,1.28,3.12,0.0,0.0,0.0,-17.88,14.19,-27.19,0.28,-0.52,0.28,0.76
374,00:00:07.423,IMU7,1.86,3.61,-9.08,-0.01,-0.01,-0.01,22.0,9.06,27.06,0.47,0.86,0.2,0.01
374,00:00:07.423,IMU5,6.85,-0.36,7.06,0.0,0.0,0.0,6.25,-12.19,-35.12,0.31,-0.22,0.79,0.48
374,00:00:07.423,IMU1,9.3,1.32,3.2,0.0,0.0,0.0,-17.88,14.19,-27.19,0.28,-0.52,0.28,0.76
375,00:00:07.426,IMU7,1.86,3.61,-9.08,0.01,0.0,-0.0,22.0,9.06,27.06,0.47,0.86,0.2,0.01
375,00:00:07.426,IMU5,6.85,-0.36,7.06,0.0,0.0,0.0,6.25,-12.19,-35.12,0.31,-0.22,0.79,0.48
375,00:00:07.426,IMU1,9.3,1.32,3.2,0.0,0.0,0.0,-18.12,14.94,-25.75,0.28,-0.52,0.28,0.76
376,00:00:07.430,IMU7,1.86,3.61,-9.08,0.01,0.0,-0.0,22.0,9.06,27.06,0.47,0.86,0.2,0.01
376,00:00:07.430,IMU5,6.85,-0.36,7.06,0.0,0.0,0.0,6.25,-12.19,-35.12,0.31,-0.22,0.79,0.48
376,00:00:07.430,IMU1,9.3,1.32,3.2,0.0,0.0,0.0,-18.12,14.94,-25.75,0.28,-0.52,0.28,0.76
377,00:00:07.436,IMU7,1.86,3.61,-9.08,0.03,0.01,0.01,22.0,9.06,27.06,0.47,0.86,0.2,0.01
377,00:00:07.436,IMU5,6.85,-0.36,7.06,0.0,0.0,0.0,6.25,-12.19,-35.12,0.31,-0.22,0.79,0.48
377,00:00:07.436,IMU1,9.3,1.32,3.2,0.0,0.0,0.0,-18.12,14.94,-25.75,0.28,-0.52,0.28,0.76
378,00:00:07.441,IMU7,1.86,3.61,-9.08,0.03,0.01,0.01,22.0,9.06,27.06,0.47,0.86,0.2,0.01
378,00:00:07.441,IMU5,6.85,-0.36,7.06,0.0,0.0,0.0,6.25,-12.19,-35.12,0.31,-0.22,0.79,0.48
378,00:00:07.441,IMU1,9.3,1.32,3.2,0.0,0.0,0.0,-18.12,14.94,-25.75,0.28,-0.52,0.28,0.76
379,00:00:07.445,IMU7,1.86,3.61,-9.08,0.02,-0.01,0.0,22.0,9.06,27.06,0.47,0.86,0.2,0.01
379,00:00:07.445,IMU5,6.85,-0.36,7.06,0.0,0.0,0.0,6.25,-12.19,-35.12,0.31,-0.22,0.79,0.48
379,00:00:07.445,IMU1,9.3,1.32,3.2,0.0,0.0,0.0,-18.12,14.94,-25.75,0.28,-0.52,0.28,0.76
380,00:00:07.450,IMU7,1.86,3.61,-9.08,0.02,-0.01,0.0,22.0,9.06,27.06,0.47,0.86,0.2,0.01
380,00:00:07.450,IMU5,6.85,-0.36,7.06,0.0,0.0,0.0,6.25,-12.19,-35.12,0.31,-0.22,0.79,0.48
380,00:00:07.450,IMU1,9.34,1.32,3.12,0.0,0.0,0.0,-18.12,14.94,-25.75,0.28,-0.52,0.28,0.76
381,00:00:07.456,IMU7,1.74,3.49,-9.12,0.02,-0.01,0.0,22.0,9.06,27.06,0.47,0.86,0.2,0.01
381,00:00:07.456,IMU5,6.85,-0.36,7.06,0.0,0.0,0.0,6.25,-12.19,-35.12,0.31,-0.22,0.79,0.48
381,00:00:07.456,IMU1,9.34,1.32,3.12,0.0,0.0,0.0,-17.62,14.12,-26.0,0.28,-0.52,0.28,0.76
382,00:00:07.461,IMU7,1.74,3.49,-9.12,0.0,-0.0,0.0,22.0,9.06,27.06,0.47,0.86,0.2,0.01
382,00:00:07.461,IMU5,6.85,-0.36,7.06,0.0,0.0,0.0,6.25,-12.19,-35.12,0.31,-0.22,0.79,0.48
382,00:00:07.461,IMU1,9.34,1.32,3.12,0.0,0.0,0.0,-17.62,14.12,-26.0,0.28,-0.52,0.28,0.76
383,00:00:07.464,IMU7,1.74,3.49,-9.12,0.0,-0.0,0.0,21.44,8.44,27.88,0.47,0.86,0.2,0.01
383,00:00:07.464,IMU5,6.81,-0.44,7.03,0.0,0.0,0.0,6.25,-12.19,-35.12,0.31,-0.22,0.79,0.48
383,00:00:07.464,IMU1,9.34,1.32,3.12,0.0,0.0,0.0,-17.62,14.12,-26.0,0.28,-0.52,0.28,0.76
384,00:00:07.469,IMU7,1.74,3.49,-9.12,0.0,-0.0,0.0,21.44,8.44,27.88,0.47,0.86,0.2,0.01
384,00:00:07.469,IMU5,6.81,-0.44,7.03,0.0,0.0,0.0,6.12,-14.5,-32.75,0.31,-0.22,0.79,0.48
384,00:00:07.469,IMU1,9.34,1.32,3.12,0.0,0.0,0.0,-17.62,14.12,-26.0,0.28,-0.52,0.28,0.76
385,00:00:07.472,IMU7,1.74,3.49,-9.12,-0.03,-0.0,-0.01,21.44,8.44,27.88,0.47,0.86,0.2,0.01
385,00:00:07.472,IMU5,6.81,-0.44,7.03,0.0,0.0,0.0,6.12,-14.5,-32.75,0.31,-0.22,0.79,0.48
385,00:00:07.472,IMU1,9.34,1.32,3.12,0.0,0.0,0.0,-17.62,14.12,-26.0,0.28,-0.52,0.28,0.76
386,00:00:07.479,IMU7,1.74,3.49,-9.12,-0.03,-0.0,-0.01,21.44,8.44,27.88,0.47,0.86,0.2,0.01
386,00:00:07.479,IMU5,6.81,-0.44,7.03,0.0,0.0,0.0,6.12,-14.5,-32.75,0.31,-0.22,0.79,0.48
386,00:00:07.479,IMU1,9.34,1.36,3.12,0.0,0.0,0.0,-17.62,14.12,-26.0,0.28,-0.52,0.28,0.76
387,00:00:07.482,IMU7,1.74,3.49,-9.12,0.01,0.01,0.0,21.44,8.44,27.88,0.47,0.86,0.2,0.01
387,00:00:07.482,IMU5,6.81,-0.44,7.03,0.0,0.0,0.0,6.12,-14.5,-32.75,0.31,-0.22,0.79,0.48
387,00:00:07.482,IMU1,9.34,1.36,3.12,0.0,0.0,0.0,-17.62,14.12,-26.0,0.28,-0.52,0.28,0.76
388,00:00:07.485,IMU7,1.74,3.49,-9.12,0.01,0.01,0.0,21.44,8.44,27.88,0.47,0.86,0.2,0.01
388,00:00:07.485,IMU5,6.81,-0.44,7.03,0.0,0.0,0.0,6.12,-14.5,-32.75,0.31,-0.22,0.79,0.48
388,00:00:07.485,IMU1,9.34,1.36,3.12,0.0,0.0,0.0,-18.38,14.12,-26.56,0.28,-0.52,0.28,0.76
389,00:00:07.492,IMU7,1.74,3.49,-9.12,0.02,-0.0,0.01,21.44,8.44,27.88,0.47,0.86,0.2,0.01
389,00:00:07.492,IMU5,6.81,-0.44,7.03,0.0,0.0,0.0,6.12,-14.5,-32.75,0.31,-0.22,0.79,0.48
389,00:00:07.492,IMU1,9.34,1.36,3.12,0.0,0.0,0.0,-18.38,14.12,-26.56,0.28,-0.52,0.28,0.76
390,00:00:07.499,IMU7,1.74,3.49,-9.12,0.02,-0.0,0.01,21.44,8.44,27.88,0.47,0.86,0.2,0.01
390,00:00:07.499,IMU5,6.81,-0.44,7.03,0.0,0.0,0.0,6.12,-14.5,-32.75,0.31,-0.22,0.79,0.48
390,00:00:07.499,IMU1,9.34,1.36,3.12,0.0,0.0,0.0,-18.38,14.12,-26.56,0.28,-0.52,0.28,0.76
391,00:00:07.502,IMU7,1.74,3.49,-9.12,-0.01,0.0,-0.0,21.44,8.44,27.88,0.47,0.86,0.2,0.01
391,00:00:07.502,IMU5,6.81,-0.44,7.03,0.0,0.0,0.0,6.12,-14.5,-32.75,0.31,-0.22,0.79,0.48
391,00:00:07.502,IMU1,9.34,1.36,3.12,0.0,0.0,0.0,-18.38,14.12,-26.56,0.28,-0.52,0.28,0.76
392,00:00:07.508,IMU7,1.74,3.49,-9.12,-0.01,0.0,-0.0,21.44,8.44,27.88,0.47,0.86,0.2,0.01
392,00:00:07.508,IMU5,6.81,-0.44,7.03,0.0,0.0,0.0,6.12,-14.5,-32.75,0.31,-0.22,0.79,0.48
392,00:00:07.508,IMU1,9.34,1.28,3.16,0.0,0.0,0.0,-18.38,14.12,-26.56,0.28,-0.52,0.28,0.76
393,00:00:07.511,IMU7,1.78,3.53,-9.08,-0.01,0.0,-0.0,21.44,8.44,27.88,0.47,0.86,0.2,0.01
393,00:00:07.511,IMU5,6.81,-0.44,7.03,0.0,0.0,0.0,6.12,-14.5,-32.75,0.31,-0.22,0.79,0.48
393,00:00:07.511,IMU1,9.34,1.28,3.16,0.0,0.0,0.0,-17.12,13.75,-24.75,0.28,-0.52,0.28,0.76
394,00:00:07.515,IMU7,1.78,3.53,-9.08,-0.01,0.0,-0.0,22.56,9.5,28.12,0.47,0.86,0.2,0.01
394,00:00:07.515,IMU5,6.81,-0.44,7.03,0.0,0.0,0.0,6.12,-14.5,-32.75,0.31,-0.22,0.79,0.48
394,00:00:07.515,IMU1,9.34,1.28,3.16,0.0,0.0,0.0,-17.12,13.75,-24.75,0.28,-0.52,0.28,0.76
395,00:00:07.520,IMU7,1.78,3.53,-9.08,-0.02,-0.0,-0.01,22.56,9.5,28.12,0.47,0.86,0.2,0.01
395,00:00:07.520,IMU5,6.81,-0.44,7.03,0.0,0.0,0.0,6.12,-14.5,-32.75,0.31,-0.22,0.79,0.48
395,00:00:07.520,IMU1,9.34,1.28,3.16,0.0,0.0,0.0,-17.12,13.75,-24.75,0.28,-0.52,0.28,0.76
396,00:00:07.527,IMU7,1.78,3.53,-9.08,-0.02,-0.0,-0.01,22.56,9.5,28.12,0.47,0.86,0.2,0.01
396,00:00:07.527,IMU5,6.81,-0.44,7.03,0.0,0.0,0.0,6.12,-14.5,-32.75,0.31,-0.22,0.79,0.48
396,00:00:07.527,IMU1,9.34,1.28,3.16,0.0,0.0,0.0,-17.12,13.75,-24.75,0.28,-0.52,0.28,0.76
397,00:00:07.530,IMU7,1.78,3.53,-9.08,0.01,0.0,-0.0,22.56,9.5,28.12,0.47,0.86,0.2,0.01
397,00:00:07.530,IMU5,6.81,-0.4,6.98,0.0,0.0,0.0,6.12,-14.5,-32.75,0.31,-0.22,0.79,0.48
397,00:00:07.530,IMU1,9.34,1.28,3.16,0.0,0.0,0.0,-17.12,13.75,-24.75,0.28,-0.52,0.28,0.76
398,00:00:07.534,IMU7,1.78,3.53,-9.08,0.01,0.0,-0.0,22.56,9.5,28.12,0.47,0.86,0.2,0.01
398,00:00:07.534,IMU5,6.81,-0.4,6.98,0.0,0.0,0.0,6.12,-14.5,-32.75,0.31,-0.22,0.79,0.48
398,00:00:07.534,IMU1,9.34,1.28,3.16,0.0,0.0,0.0,-17.12,13.75,-24.75,0.28,-0.52,0.28,0.76
399,00:00:07.539,IMU7,1.78,3.53,-9.08,0.03,-0.01,0.01,22.56,9.5,28.12,0.47,0.86,0.2,0.01
399,00:00:07.539,IMU5,6.81,-0.4,6.98,0.0,0.0,0.0,5.06,-11.62,-34.75,0.31,-0.22,0.79,0.48
399,00:00:07.539,IMU1,9.34,1.28,3.16,0.0,0.0,0.0,-17.12,13.75,-24.75,0.28,-0.52,0.28,0.76
400,00:00:07.547,IMU7,1.78,3.53,-9.08,0.03,-0.01,0.01,22.56,9.5,28.12,0.47,0.86,0.2,0.01
400,00:00:07.547,IMU5,6.81,-0.4,6.98,0.0,0.0,0.0,5.06,-11.62,-34.75,0.31,-0.22,0.79,0.48
400,00:00:07.547,IMU1,9.34,1.28,3.16,0.0,0.0,0.0,-17.12,13.75,-24.75,0.28,-0.52,0.28,0.76
401,00:00:07.550,IMU7,1.82,3.49,-9.12,0.03,-0.01,0.01,22.56,9.5,28.12,0.47,0.86,0.2,0.01
401,00:00:07.550,IMU5,6.81,-0.4,6.98,0.0,0.0,0.0,5.06,-11.62,-34.75,0.31,-0.22,0.79,0.48
401,00:00:07.550,IMU1,9.34,1.28,3.16,0.0,0.0,0.0,-17.12,13.75,-24.75,0.28,-0.52,0.28,0.76
402,00:00:07.555,IMU7,1.82,3.49,-9.12,0.02,0.0,0.01,22.56,9.5,28.12,0.47,0.86,0.2,0.01
402,00:00:07.555,IMU5,6.81,-0.4,6.98,0.0,0.0,0.0,5.06,-11.62,-34.75,0.31,-0.22,0.79,0.48
402,00:00:07.555,IMU1,9.34,1.32,3.16,0.0,0.0,0.0,-17.12,13.75,-24.75,0.28,-0.52,0.28,0.76
403,00:00:07.558,IMU7,1.82,3.49,-9.12,0.02,0.0,0.01,21.12,9.06,27.56,0.47,0.86,0.2,0.01
403,00:00:07.558,IMU5,6.81,-0.4,6.98,0.0,0.0,0.0,5.06,-11.62,-34.75,0.31,-0.22,0.79,0.48
403,00:00:07.558,IMU1,9.34,1.32,3.16,0.0,0.0,0.0,-18.0,15.0,-26.5,0.28,-0.52,0.28,0.76
404,00:00:07.562,IMU7,1.82,3.49,-9.12,0.02,0.0,0.01,21.12,9.06,27.56,0.47,0.86,0.2,0.01
404,00:00:07.562,IMU5,6.81,-0.4,6.98,0.0,0.0,0.0,5.06,-11.62,-34.75,0.31,-0.22,0.79,0.48
404,00:00:07.562,IMU1,9.34,1.32,3.16,0.0,0.0,0.0,-18.0,15.0,-26.5,0.28,-0.52,0.28,0.76
405,00:00:07.568,IMU7,1.82,3.49,-9.12,0.02,0.0,0.0,21.12,9.06,27.56,0.47,0.86,0.2,0.01
405,00:00:07.568,IMU5,6.81,-0.4,6.98,0.0,0.0,0.0,5.06,-11.62,-34.75,0.31,-0.22,0.79,0.48
405,00:00:07.568,IMU1,9.34,1.32,3.16,0.0,0.0,0.0,-18.0,15.0,-26.5,0.28,-0.52,0.28,0.76
406,00:00:07.574,IMU7,1.82,3.49,-9.12,0.02,0.0,0.0,21.12,9.06,27.56,0.47,0.86,0.2,0.01
406,00:00:07.574,IMU5,6.81,-0.4,6.98,0.0,0.0,0.0,5.06,-11.62,-34.75,0.31,-0.22,0.79,0.48
406,00:00:07.574,IMU1,9.34,1.32,3.16,0.0,0.0,0.0,-18.0,15.0,-26.5,0.28,-0.52,0.28,0.76
407,00:00:07.577,IMU7,1.82,3.49,-9.12,0.02,0.0,-0.01,21.12,9.06,27.56,0.47,0.86,0.2,0.01
407,00:00:07.577,IMU5,6.81,-0.4,7.02,0.0,0.0,0.0,5.06,-11.62,-34.75,0.31,-0.22,0.79,0.48
407,00:00:07.577,IMU1,9.34,1.32,3.16,0.0,0.0,0.0,-18.0,15.0,-26.5,0.28,-0.52,0.28,0.76
408,00:00:07.583,IMU7,1.82,3.49,-9.12,0.02,0.0,-0.01,21.12,9.06,27.56,0.47,0.86,0.2,0.01
408,00:00:07.583,IMU5,6.81,-0.4,7.02,0.0,0.0,0.0,5.25,-12.56,-34.5,0.31,-0.22,0.79,0.48
408,00:00:07.583,IMU1,9.3,1.32,3.16,0.0,0.0,0.0,-18.0,15.0,-26.5,0.28,-0.52,0.28,0.76
409,00:00:07.586,IMU7,1.82,3.49,-9.12,0.01,0.0,-0.0,21.12,9.06,27.56,0.47,0.86,0.2,0.01
409,00:00:07.586,IMU5,6.81,-0.4,7.02,0.0,0.0,0.0,5.25,-12.56,-34.5,0.31,-0.22,0.79,0.48
409,00:00:07.586,IMU1,9.3,1.32,3.16,0.0,0.0,0.0,-17.5,15.88,-25.69,0.28,-0.52,0.28,0.76
410,00:00:07.591,IMU7,1.82,3.49,-9.12,0.01,0.0,-0.0,21.12,9.06,27.56,0.47,0.86,0.2,0.01
410,00:00:07.591,IMU5,6.81,-0.4,7.02,0.0,0.0,0.0,5.25,-12.56,-34.5,0.31,-0.22,0.79,0.48
410,00:00:07.591,IMU1,9.3,1.32,3.16,0.0,0.0,0.0,-17.5,15.88,-25.69,0.28,-0.52,0.28,0.76
411,00:00:07.596,IMU7,1.78,3.53,-9.16,0.01,0.0,-0.0,21.12,9.06,27.56,0.47,0.86,0.2,0.01
411,00:00:07.596,IMU5,6.81,-0.4,7.02,0.0,0.0,0.0,5.25,-12.56,-34.5,0.31,-0.22,0.79,0.48
411,00:00:07.596,IMU1,9.3,1.32,3.16,0.0,0.0,0.0,-17.5,15.88,-25.69,0.28,-0.52,0.28,0.76
412,00:00:07.602,IMU7,1.78,3.53,-9.16,0.02,0.0,0.0,21.12,9.06,27.56,0.47,0.86,0.2,0.01
412,00:00:07.602,IMU5,6.81,-0.4,7.02,0.0,0.0,0.0,5.25,-12.56,-34.5,0.31,-0.22,0.79,0.48
412,00:00:07.602,IMU1,9.3,1.32,3.16,0.0,0.0,0.0,-17.5,15.88,-25.69,0.28,-0.52,0.28,0.76
413,00:00:07.606,IMU7,1.78,3.53,-9.16,0.02,0.0,0.0,21.0,9.5,28.38,0.47,0.86,0.2,0.01
413,00:00:07.606,IMU5,6.81,-0.4,7.02,0.0,0.0,0.0,5.25,-12.56,-34.5,0.31,-0.22,0.79,0.48
413,00:00:07.606,IMU1,9.3,1.32,3.16,0.0,0.0,0.0,-17.5,15.88,-25.69,0.28,-0.52,0.28,0.76
414,00:00:07.612,IMU7,1.78,3.53,-9.16,0.02,0.0,0.0,21.0,9.5,28.38,0.47,0.86,0.2,0.01
414,00:00:07.612,IMU5,6.81,-0.4,7.02,0.0,0.0,0.0,5.25,-12.56,-34.5,0.31,-0.22,0.79,0.48
414,00:00:07.612,IMU1,9.34,1.32,3.2,0.0,0.0,0.0,-17.5,15.88,-25.69,0.28,-0.52,0.28,0.76
415,00:00:07.615,IMU7,1.78,3.53,-9.16,0.04,0.0,0.01,21.0,9.5,28.38,0.47,0.86,0.2,0.01
415,00:00:07.615,IMU5,6.81,-0.4,7.02,0.0,0.0,0.0,5.25,-12.56,-34.5,0.31,-0.22,0.79,0.48
415,00:00:07.615,IMU1,9.34,1.32,3.2,0.0,0.0,0.0,-17.31,15.5,-26.38,0.28,-0.52,0.28,0.76
416,00:00:07.619,IMU7,1.78,3.53,-9.16,0.04,0.0,0.01,21.0,9.5,28.38,0.47,0.86,0.2,0.01
416,00:00:07.619,IMU5,6.81,-0.4,7.02,0.0,0.0,0.0,5.25,-12.56,-34.5,0.31,-0.22,0.79,0.48
416,00:00:07.619,IMU1,9.34,1.32,3.2,0.0,0.0,0.0,-17.31,15.5,-26.38,0.28,-0.52,0.28,0.76
417,00:00:07.624,IMU7,1.78,3.53,-9.16,0.05,0.01,0.02,21.0,9.5,28.38,0.47,0.86,0.2,0.01
417,00:00:07.624,IMU5,6.85,-0.44,6.98,0.0,0.0,0.0,5.25,-12.56,-34.5,0.31,-0.22,0.79,0.48
417,00:00:07.624,IMU1,9.34,1.32,3.2,0.0,0.0,0.0,-17.31,15.5,-26.38,0.28,-0.52,0.28,0.76
418,00:00:07.629,IMU7,1.78,3.53,-9.16,0.05,0.01,0.02,21.0,9.5,28.38,0.47,0.86,0.2,0.01
418,00:00:07.629,IMU5,6.85,-0.44,6.98,0.0,0.0,0.0,5.25,-12.56,-34.5,0.31,-0.22,0.79,0.48
418,00:00:07.629,IMU1,9.34,1.32,3.2,0.0,0.0,0.0,-17.31,15.5,-26.38,0.28,-0.52,0.28,0.76
419,00:00:07.633,IMU7,1.89,3.41,-9.16,0.05,0.01,0.02,21.0,9.5,28.38,0.47,0.86,0.2,0.01
419,00:00:07.633,IMU5,6.85,-0.44,6.98,0.0,0.0,0.0,5.44,-12.5,-36.44,0.31,-0.22,0.79,0.48
419,00:00:07.633,IMU1,9.34,1.32,3.2,0.0,0.0,0.0,-17.31,15.5,-26.38,0.28,-0.52,0.28,0.76
420,00:00:07.641,IMU7,1.89,3.41,-9.16,0.05,0.01,0.02,22.0,7.69,26.94,0.47,0.86,0.2,0.01
420,00:00:07.641,IMU5,6.85,-0.44,6.98,0.0,0.0,0.0,5.44,-12.5,-36.44,0.31,-0.22,0.79,0.48
420,00:00:07.641,IMU1,9.3,1.32,3.12,0.0,0.0,0.0,-17.31,15.5,-26.38,0.28,-0.52,0.28,0.76
421,00:00:07.644,IMU7,1.89,3.41,-9.16,0.04,0.0,0.02,22.0,7.69,26.94,0.47,0.86,0.2,0.01
421,00:00:07.644,IMU5,6.85,-0.44,6.98,0.0,0.0,0.0,5.44,-12.5,-36.44,0.31,-0.22,0.79,0.48
421,00:00:07.644,IMU1,9.3,1.32,3.12,0.0,0.0,0.0,-17.31,15.5,-26.38,0.28,-0.52,0.28,0.76
422,00:00:07.647,IMU7,1.89,3.41,-9.16,0.04,0.0,0.02,22.0,7.69,26.94,0.47,0.86,0.2,0.01
422,00:00:07.647,IMU5,6.85,-0.44,6.98,0.0,0.0,0.0,5.44,-12.5,-36.44,0.31,-0.22,0.79,0.48
422,00:00:07.647,IMU1,9.3,1.32,3.12,0.0,0.0,0.0,-18.06,14.56,-26.88,0.28,-0.52,0.28,0.76
423,00:00:07.653,IMU7,1.89,3.41,-9.16,0.04,-0.01,0.0,22.0,7.69,26.94,0.47,0.86,0.2,0.01
423,00:00:07.653,IMU5,6.85,-0.44,6.98,0.0,0.0,0.0,5.44,-12.5,-36.44,0.31,-0.22,0.79,0.48
423,00:00:07.653,IMU1,9.3,1.32,3.12,0.0,0.0,0.0,-18.06,14.56,-26.88,0.28,-0.52,0.28,0.76
424,00:00:07.660,IMU7,1.89,3.41,-9.16,0.04,-0.01,0.0,22.0,7.69,26.94,0.47,0.86,0.2,0.01
424,00:00:07.660,IMU5,6.85,-0.44,6.98,0.0,0.0,0.0,5.44,-12.5,-36.44,0.31,-0.22,0.79,0.48
424,00:00:07.660,IMU1,9.3,1.32,3.12,0.0,0.0,0.0,-18.06,14.56,-26.88,0.28,-0.52,0.28,0.76
425,00:00:07.663,IMU7,1.89,3.41,-9.16,0.02,0.01,0.01,22.0,7.69,26.94,0.47,0.86,0.2,0.01
425,00:00:07.663,IMU5,6.85,-0.44,6.98,0.0,0.0,0.0,5.44,-12.5,-36.44,0.31,-0.22,0.79,0.48
425,00:00:07.663,IMU1,9.3,1.32,3.12,0.0,0.0,0.0,-18.06,14.56,-26.88,0.28,-0.52,0.28,0.76
426,00:00:07.668,IMU7,1.89,3.41,-9.16,0.02,0.01,0.01,22.0,7.69,26.94,0.47,0.86,0.2,0.01
426,00:00:07.668,IMU5,6.85,-0.44,6.98,0.0,0.0,0.0,5.44,-12.5,-36.44,0.31,-0.22,0.79,0.48
426,00:00:07.668,IMU1,9.3,1.32,3.16,0.0,0.0,0.0,-18.06,14.56,-26.88,0.28,-0.52,0.28,0.76
427,00:00:07.672,IMU7,1.89,3.41,-9.16,0.05,0.01,0.01,22.0,7.69,26.94,0.47,0.86,0.2,0.01
427,00:00:07.672,IMU5,6.85,-0.44,6.98,0.0,0.0,0.0,5.44,-12.5,-36.44,0.31,-0.22,0.79,0.48
427,00:00:07.672,IMU1,9.3,1.32,3.16,0.0,0.0,0.0,-17.0,14.62,-25.5,0.28,-0.52,0.28,0.76
428,00:00:07.676,IMU7,1.89,3.41,-9.16,0.05,0.01,0.01,22.0,7.69,26.94,0.47,0.86,0.2,0.01
428,00:00:07.676,IMU5,6.85,-0.44,6.98,0.0,0.0,0.0,5.44,-12.5,-36.44,0.31,-0.22,0.79,0.48
428,00:00:07.676,IMU1,9.3,1.32,3.16,0.0,0.0,0.0,-17.0,14.62,-25.5,0.28,-0.52,0.28,0.76
429,00:00:07.682,IMU7,1.89,3.41,-9.16,0.06,0.0,0.01,22.0,7.69,26.94,0.47,0.86,0.2,0.01
429,00:00:07.682,IMU5,6.85,-0.44,6.95,0.0,0.0,0.0,5.44,-12.5,-36.44,0.31,-0.22,0.79,0.48
429,00:00:07.682,IMU1,9.3,1.32,3.16,0.0,0.0,0.0,-17.0,14.62,-25.5,0.28,-0.52,0.28,0.76
430,00:00:07.687,IMU7,1.89,3.41,-9.16,0.06,0.0,0.01,22.0,7.69,26.94,0.47,0.86,0.2,0.01
430,00:00:07.687,IMU5,6.85,-0.44,6.95,0.0,0.0,0.0,5.44,-12.5,-36.44,0.31,-0.22,0.79,0.48
430,00:00:07.687,IMU1,9.3,1.32,3.16,0.0,0.0,0.0,-17.0,14.62,-25.5,0.28,-0.52,0.28,0.76
431,00:00:07.690,IMU7,1.82,3.45,-9.16,0.06,0.0,0.01,22.0,7.69,26.94,0.47,0.86,0.2,0.01
431,00:00:07.690,IMU5,6.85,-0.44,6.95,0.0,0.0,0.0,5.94,-12.69,-34.69,0.31,-0.22,0.79,0.48
431,00:00:07.690,IMU1,9.3,1.32,3.16,0.0,0.0,0.0,-17.0,14.62,-25.5,0.28,-0.52,0.28,0.76
432,00:00:07.695,IMU7,1.82,3.45,-9.16,0.06,0.0,0.01,21.81,9.5,28.25,0.47,0.86,0.2,0.01
432,00:00:07.695,IMU5,6.85,-0.44,6.95,0.0,0.0,0.0,5.94,-12.69,-34.69,0.31,-0.22,0.79,0.48
432,00:00:07.695,IMU1,9.34,1.32,3.16,0.0,0.0,0.0,-17.0,14.62,-25.5,0.28,-0.52,0.28,0.76
433,00:00:07.698,IMU7,1.82,3.45,-9.16,0.08,0.0,0.0,21.81,9.5,28.25,0.47,0.86,0.2,0.01
433,00:00:07.698,IMU5,6.85,-0.44,6.95,0.0,0.0,0.0,5.94,-12.69,-34.69,0.31,-0.22,0.79,0.48
433,00:00:07.698,IMU1,9.34,1.32,3.16,0.0,0.0,0.0,-17.81,14.19,-26.81,0.28,-0.52,0.28,0.76
434,00:00:07.702,IMU7,1.82,3.45,-9.16,0.08,0.0,0.0,21.81,9.5,28.25,0.47,0.86,0.2,0.01
434,00:00:07.702,IMU5,6.85,-0.44,6.95,0.0,0.0,0.0,5.94,-12.69,-34.69,0.31,-0.22,0.79,0.48
434,00:00:07.702,IMU1,9.34,1.32,3.16,0.0,0.0,0.0,-17.81,14.19,-26.81,0.28,-0.52,0.28,0.76
435,00:00:07.707,IMU7,1.82,3.45,-9.16,0.06,0.0,0.0,21.81,9.5,28.25,0.47,0.86,0.2,0.01
435,00:00:07.707,IMU5,6.85,-0.44,6.95,0.0,0.0,0.0,5.94,-12.69,-34.69,0.31,-0.22,0.79,0.48
435,00:00:07.707,IMU1,9.34,1.32,3.16,0.0,0.0,0.0,-17.81,14.19,-26.81,0.28,-0.52,0.28,0.76
436,00:00:07.713,IMU7,1.82,3.45,-9.16,0.06,0.0,0.0,21.81,9.5,28.25,0.47,0.86,0.2,0.01
436,00:00:07.713,IMU5,6.85,-0.44,6.95,0.0,0.0,0.0,5.94,-12.69,-34.69,0.31,-0.22,0.79,0.48
436,00:00:07.713,IMU1,9.34,1.32,3.16,0.0,0.0,0.0,-17.81,14.19,-26.81,0.28,-0.52,0.28,0.76
437,00:00:07.718,IMU7,1.82,3.45,-9.16,0.02,-0.0,0.0,21.81,9.5,28.25,0.47,0.86,0.2,0.01
437,00:00:07.718,IMU5,6.81,-0.44,7.03,0.0,0.0,0.0,5.94,-12.69,-34.69,0.31,-0.22,0.79,0.48
437,00:00:07.718,IMU1,9.34,1.32,3.16,0.0,0.0,0.0,-17.81,14.19,-26.81,0.28,-0.52,0.28,0.76
438,00:00:07.724,IMU7,1.82,3.45,-9.16,0.02,-0.0,0.0,21.81,9.5,28.25,0.47,0.86,0.2,0.0
438,00:00:07.724,IMU5,6.81,-0.44,7.03,0.0,0.0,0.0,5.94,-12.69,-34.69,0.31,-0.22,0.79,0.48
438,00:00:07.724,IMU1,9.34,1.32,3.2,0.0,0.0,0.0,-17.81,14.19,-26.81,0.28,-0.52,0.28,0.76
439,00:00:07.727,IMU7,1.82,3.49,-9.04,0.02,-0.0,0.0,21.81,9.5,28.25,0.47,0.86,0.2,0.0
439,00:00:07.727,IMU5,6.81,-0.44,7.03,0.0,0.0,0.0,5.06,-10.81,-36.06,0.31,-0.22,0.79,0.48
439,00:00:07.727,IMU1,9.34,1.32,3.2,0.0,0.0,0.0,-17.38,15.5,-26.75,0.28,-0.52,0.28,0.76
440,00:00:07.731,IMU7,1.82,3.49,-9.04,0.02,-0.0,0.0,21.88,8.06,27.75,0.47,0.86,0.2,0.0
440,00:00:07.731,IMU5,6.81,-0.44,7.03,0.0,0.0,0.0,5.06,-10.81,-36.06,0.31,-0.22,0.79,0.48
440,00:00:07.731,IMU1,9.34,1.32,3.2,0.0,0.0,0.0,-17.38,15.5,-26.75,0.28,-0.52,0.28,0.76
441,00:00:07.737,IMU7,1.82,3.49,-9.04,-0.01,-0.01,-0.01,21.88,8.06,27.75,0.47,0.86,0.2,0.0
441,00:00:07.737,IMU5,6.81,-0.44,7.03,0.0,0.0,0.0,5.06,-10.81,-36.06,0.31,-0.22,0.79,0.48
441,00:00:07.737,IMU1,9.34,1.32,3.2,0.0,0.0,0.0,-17.38,15.5,-26.75,0.28,-0.52,0.28,0.76
442,00:00:07.742,IMU7,1.82,3.49,-9.04,-0.01,-0.01,-0.01,21.88,8.06,27.75,0.47,0.86,0.2,0.0
442,00:00:07.742,IMU5,6.81,-0.44,7.03,0.0,0.0,0.0,5.06,-10.81,-36.06,0.31,-0.22,0.79,0.48
442,00:00:07.742,IMU1,9.34,1.32,3.2,0.0,0.0,0.0,-17.38,15.5,-26.75,0.28,-0.52,0.28,0.76
443,00:00:07.746,IMU7,1.82,3.49,-9.04,0.04,0.0,-0.0,21.88,8.06,27.75,0.47,0.86,0.2,0.0
443,00:00:07.746,IMU5,6.81,-0.44,7.03,0.0,0.0,0.0,5.06,-10.81,-36.06,0.31,-0.22,0.79,0.48
443,00:00:07.746,IMU1,9.34,1.32,3.2,0.0,0.0,0.0,-17.38,15.5,-26.75,0.28,-0.52,0.28,0.76
444,00:00:07.752,IMU7,1.82,3.49,-9.04,0.04,0.0,-0.0,21.88,8.06,27.75,0.47,0.86,0.2,0.0
444,00:00:07.752,IMU5,6.81,-0.44,7.03,0.0,0.0,0.0,5.06,-10.81,-36.06,0.31,-0.22,0.79,0.48
444,00:00:07.752,IMU1,9.34,1.32,3.2,0.0,0.0,0.0,-17.38,15.5,-26.75,0.28,-0.52,0.28,0.76
445,00:00:07.756,IMU7,1.82,3.49,-9.04,0.06,0.01,0.0,21.88,8.06,27.75,0.47,0.86,0.2,0.0
445,00:00:07.756,IMU5,6.81,-0.44,7.03,0.0,0.0,0.0,5.06,-10.81,-36.06,0.31,-0.22,0.79,0.48
445,00:00:07.756,IMU1,9.34,1.32,3.2,0.0,0.0,0.0,-17.38,15.5,-26.75,0.28,-0.52,0.28,0.76
446,00:00:07.762,IMU7,1.82,3.49,-9.04,0.06,0.01,0.0,21.88,8.06,27.75,0.47,0.86,0.2,0.0
446,00:00:07.762,IMU5,6.81,-0.44,7.03,0.0,0.0,0.0,5.06,-10.81,-36.06,0.31,-0.22,0.79,0.48
446,00:00:07.762,IMU1,9.34,1.28,3.16,0.0,0.0,0.0,-17.38,15.5,-26.75,0.28,-0.52,0.28,0.76
447,00:00:07.768,IMU7,1.86,3.41,-9.04,0.06,0.01,0.0,21.88,8.06,27.75,0.47,0.86,0.2,0.0
447,00:00:07.768,IMU5,6.81,-0.44,7.03,0.0,0.0,0.0,5.06,-10.81,-36.06,0.31,-0.22,0.79,0.48
447,00:00:07.768,IMU1,9.34,1.28,3.16,0.0,0.0,0.0,-18.06,14.56,-26.88,0.28,-0.52,0.28,0.76
448,00:00:07.773,IMU7,1.86,3.41,-9.04,0.04,0.01,-0.0,21.88,8.06,27.75,0.47,0.86,0.2,0.0
448,00:00:07.773,IMU5,6.81,-0.44,7.03,0.0,0.0,0.0,5.06,-10.81,-36.06,0.31,-0.22,0.79,0.48
448,00:00:07.773,IMU1,9.34,1.28,3.16,0.0,0.0,0.0,-18.06,14.56,-26.88,0.28,-0.52,0.28,0.76
449,00:00:07.777,IMU7,1.86,3.41,-9.04,0.04,0.01,-0.0,21.44,9.5,27.94,0.47,0.86,0.2,0.0
449,00:00:07.777,IMU5,6.81,-0.44,7.03,0.0,0.0,0.0,5.06,-10.81,-36.06,0.31,-0.22,0.79,0.48
449,00:00:07.777,IMU1,9.34,1.28,3.16,0.0,0.0,0.0,-18.06,14.56,-26.88,0.28,-0.52,0.28,0.76
450,00:00:07.782,IMU7,1.86,3.41,-9.04,0.04,0.01,-0.0,21.44,9.5,27.94,0.47,0.86,0.2,0.0
450,00:00:07.782,IMU5,6.81,-0.44,7.03,0.0,0.0,0.0,5.06,-10.81,-36.06,0.31,-0.22,0.79,0.48
450,00:00:07.782,IMU1,9.34,1.28,3.16,0.0,0.0,0.0,-18.06,14.56,-26.88,0.28,-0.52,0.28,0.76
451,00:00:07.787,IMU7,1.86,3.41,-9.04,0.07,0.01,-0.03,21.44,9.5,27.94,0.47,0.86,0.2,0.0
451,00:00:07.787,IMU5,6.81,-0.44,7.03,0.0,0.0,0.0,5.06,-10.81,-36.06,0.31,-0.22,0.79,0.48
451,00:00:07.787,IMU1,9.34,1.28,3.16,0.0,0.0,0.0,-18.06,14.56,-26.88,0.28,-0.52,0.28,0.76
452,00:00:07.794,IMU7,1.86,3.41,-9.04,0.07,0.01,-0.03,21.44,9.5,27.94,0.47,0.86,0.2,0.0
452,00:00:07.794,IMU5,6.81,-0.44,7.03,0.0,0.0,0.0,5.06,-10.81,-36.06,0.31,-0.22,0.79,0.48
452,00:00:07.794,IMU1,9.34,1.28,3.16,0.0,0.0,0.0,-18.06,14.56,-26.88,0.28,-0.52,0.28,0.76
453,00:00:07.797,IMU7,1.86,3.41,-9.04,0.07,-0.01,-0.02,21.44,9.5,27.94,0.47,0.86,0.2,0.0
453,00:00:07.797,IMU5,6.81,-0.48,7.07,0.0,0.0,0.0,5.06,-10.81,-36.06,0.31,-0.22,0.79,0.48
453,00:00:07.797,IMU1,9.34,1.28,3.16,0.0,0.0,0.0,-18.06,14.56,-26.88,0.28,-0.52,0.28,0.76
454,00:00:07.807,IMU7,1.86,3.41,-9.04,0.07,-0.01,-0.02,21.44,9.5,27.94,0.47,0.86,0.2,0.0
454,00:00:07.807,IMU5,6.81,-0.48,7.07,0.0,0.0,0.0,5.06,-10.81,-36.06,0.31,-0.22,0.79,0.48
454,00:00:07.807,IMU1,9.34,1.32,3.12,0.0,0.0,0.0,-18.06,14.56,-26.88,0.28,-0.52,0.28,0.76
455,00:00:07.810,IMU7,1.86,3.41,-9.04,0.09,0.0,0.02,21.44,9.5,27.94,0.47,0.86,0.2,0.0
455,00:00:07.810,IMU5,6.81,-0.48,7.07,0.0,0.0,0.0,5.38,-12.06,-36.5,0.31,-0.22,0.79,0.48
455,00:00:07.810,IMU1,9.34,1.32,3.12,0.0,0.0,0.0,-18.06,14.56,-26.88,0.28,-0.52,0.28,0.76
456,00:00:07.814,IMU7,1.86,3.41,-9.04,0.09,0.0,0.02,21.44,9.5,27.94,0.47,0.86,0.2,0.0
456,00:00:07.814,IMU5,6.81,-0.48,7.07,0.0,0.0,0.0,5.38,-12.06,-36.5,0.31,-0.22,0.79,0.48
456,00:00:07.814,IMU1,9.34,1.32,3.12,0.0,0.0,0.0,-17.5,14.12,-25.19,0.28,-0.52,0.28,0.76
457,00:00:07.819,IMU7,1.86,3.41,-9.04,0.05,-0.02,-0.0,21.44,9.5,27.94,0.47,0.86,0.2,0.0
457,00:00:07.819,IMU5,6.81,-0.48,7.07,0.0,0.0,0.0,5.38,-12.06,-36.5,0.31,-0.22,0.79,0.48
457,00:00:07.819,IMU1,9.34,1.32,3.12,0.0,0.0,0.0,-17.5,14.12,-25.19,0.28,-0.52,0.28,0.76
458,00:00:07.826,IMU7,1.86,3.41,-9.04,0.05,-0.02,-0.0,21.44,9.5,27.94,0.47,0.86,0.2,0.0
458,00:00:07.826,IMU5,6.81,-0.48,7.07,0.0,0.0,0.0,5.38,-12.06,-36.5,0.31,-0.22,0.79,0.48
458,00:00:07.826,IMU1,9.34,1.32,3.12,0.0,0.0,0.0,-17.5,14.12,-25.19,0.28,-0.52,0.28,0.76
459,00:00:07.829,IMU7,1.86,3.41,-9.04,0.06,-0.02,-0.02,21.44,9.5,27.94,0.47,0.86,0.2,0.0
459,00:00:07.829,IMU5,6.81,-0.48,7.07,0.0,0.0,0.0,5.38,-12.06,-36.5,0.31,-0.22,0.79,0.48
459,00:00:07.829,IMU1,9.34,1.32,3.12,0.0,0.0,0.0,-17.5,14.12,-25.19,0.28,-0.52,0.28,0.76
460,00:00:07.835,IMU7,1.86,3.41,-9.04,0.06,-0.02,-0.02,21.44,9.5,27.94,0.47,0.86,0.2,0.0
460,00:00:07.835,IMU5,6.81,-0.48,7.07,0.0,0.0,0.0,5.38,-12.06,-36.5,0.31,-0.22,0.79,0.48
460,00:00:07.835,IMU1,9.34,1.32,3.12,0.0,0.0,0.0,-17.5,14.12,-25.19,0.28,-0.52,0.28,0.76
461,00:00:07.838,IMU7,1.86,3.26,-9.35,0.06,-0.02,-0.02,21.44,9.5,27.94,0.47,0.86,0.2,0.0
461,00:00:07.838,IMU5,6.81,-0.48,7.07,0.0,0.0,0.0,5.38,-12.06,-36.5,0.31,-0.22,0.79,0.48
461,00:00:07.838,IMU1,9.34,1.32,3.12,0.0,0.0,0.0,-17.5,14.12,-25.19,0.28,-0.52,0.28,0.76
462,00:00:07.846,IMU7,1.86,3.26,-9.35,0.06,-0.02,-0.02,20.06,8.81,28.81,0.47,0.86,0.2,0.0
462,00:00:07.846,IMU5,6.81,-0.48,7.07,0.0,0.0,0.0,5.38,-12.06,-36.5,0.31,-0.22,0.79,0.48
462,00:00:07.846,IMU1,9.34,1.32,3.16,0.0,0.0,0.0,-17.5,14.12,-25.19,0.28,-0.52,0.28,0.76
463,00:00:07.849,IMU7,1.86,3.26,-9.35,0.05,-0.01,0.01,20.06,8.81,28.81,0.47,0.86,0.2,0.0
463,00:00:07.849,IMU5,6.81,-0.44,6.99,0.0,0.0,0.0,5.38,-12.06,-36.5,0.31,-0.22,0.79,0.48
463,00:00:07.849,IMU1,9.34,1.32,3.16,0.0,0.0,0.0,-17.5,14.12,-25.19,0.28,-0.52,0.28,0.76
464,00:00:07.852,IMU7,1.86,3.26,-9.35,0.05,-0.01,0.01,20.06,8.81,28.81,0.47,0.86,0.2,0.0
464,00:00:07.852,IMU5,6.81,-0.44,6.99,0.0,0.0,0.0,5.19,-12.44,-34.94,0.31,-0.22,0.79,0.48
464,00:00:07.852,IMU1,9.34,1.32,3.16,0.0,0.0,0.0,-17.31,14.62,-25.94,0.28,-0.52,0.28,0.76
465,00:00:07.857,IMU7,1.86,3.26,-9.35,-0.03,-0.01,0.01,20.06,8.81,28.81,0.47,0.86,0.2,0.0
465,00:00:07.857,IMU5,6.81,-0.44,6.99,0.0,0.0,0.0,5.19,-12.44,-34.94,0.31,-0.22,0.79,0.48
465,00:00:07.857,IMU1,9.34,1.32,3.16,0.0,0.0,0.0,-17.31,14.62,-25.94,0.28,-0.52,0.28,0.76
466,00:00:07.864,IMU7,1.86,3.26,-9.35,-0.03,-0.01,0.01,20.06,8.81,28.81,0.47,0.86,0.2,0.0
466,00:00:07.864,IMU5,6.81,-0.44,6.99,0.0,0.0,0.0,5.19,-12.44,-34.94,0.31,-0.22,0.79,0.48
466,00:00:07.864,IMU1,9.34,1.32,3.16,0.0,0.0,0.0,-17.31,14.62,-25.94,0.28,-0.52,0.28,0.76
467,00:00:07.867,IMU7,1.86,3.26,-9.35,-0.01,0.01,-0.01,20.06,8.81,28.81,0.47,0.86,0.2,0.0
467,00:00:07.867,IMU5,6.81,-0.44,6.99,0.0,0.0,0.0,5.19,-12.44,-34.94,0.31,-0.22,0.79,0.48
467,00:00:07.867,IMU1,9.34,1.32,3.16,0.0,0.0,0.0,-17.31,14.62,-25.94,0.28,-0.52,0.28,0.76
468,00:00:07.872,IMU7,1.86,3.26,-9.35,-0.01,0.01,-0.01,20.06,8.81,28.81,0.47,0.86,0.2,0.0
468,00:00:07.872,IMU5,6.81,-0.44,6.99,0.0,0.0,0.0,5.19,-12.44,-34.94,0.31,-0.22,0.79,0.48
468,00:00:07.872,IMU1,9.34,1.32,3.16,0.0,0.0,0.0,-17.31,14.62,-25.94,0.28,-0.52,0.28,0.76
469,00:00:07.877,IMU7,1.86,3.34,-9.2,-0.01,0.01,-0.01,20.06,8.81,28.81,0.47,0.86,0.2,0.0
469,00:00:07.877,IMU5,6.81,-0.44,6.99,0.0,0.0,0.0,5.19,-12.44,-34.94,0.31,-0.22,0.79,0.48
469,00:00:07.877,IMU1,9.34,1.32,3.16,0.0,0.0,0.0,-17.31,14.62,-25.94,0.28,-0.52,0.28,0.76
470,00:00:07.882,IMU7,1.86,3.34,-9.2,0.01,0.0,0.0,20.06,8.81,28.81,0.47,0.86,0.2,0.0
470,00:00:07.882,IMU5,6.81,-0.44,6.99,0.0,0.0,0.0,5.19,-12.44,-34.94,0.31,-0.22,0.79,0.48
470,00:00:07.882,IMU1,9.34,1.32,3.16,0.0,0.0,0.0,-17.31,14.62,-25.94,0.28,-0.52,0.28,0.76
471,00:00:07.885,IMU7,1.86,3.34,-9.2,0.01,0.0,0.0,21.06,9.12,28.0,0.47,0.86,0.2,0.0
471,00:00:07.885,IMU5,6.81,-0.44,6.99,0.0,0.0,0.0,5.19,-12.44,-34.94,0.31,-0.22,0.79,0.48
471,00:00:07.885,IMU1,9.34,1.32,3.16,0.0,0.0,0.0,-17.31,14.62,-25.94,0.28,-0.52,0.28,0.76
472,00:00:07.891,IMU7,1.86,3.34,-9.2,0.01,0.0,0.0,21.06,9.12,28.0,0.47,0.86,0.2,0.0
472,00:00:07.891,IMU5,6.81,-0.44,6.99,0.0,0.0,0.0,5.19,-12.44,-34.94,0.31,-0.22,0.79,0.48
472,00:00:07.891,IMU1,9.34,1.32,3.08,0.0,0.0,0.0,-17.31,14.62,-25.94,0.28,-0.52,0.28,0.76
473,00:00:07.895,IMU7,1.86,3.34,-9.2,0.01,0.0,0.01,21.06,9.12,28.0,0.47,0.86,0.2,0.0
473,00:00:07.895,IMU5,6.77,-0.48,6.98,0.0,0.0,0.0,5.19,-12.44,-34.94,0.31,-0.22,0.79,0.48
473,00:00:07.895,IMU1,9.34,1.32,3.08,0.0,0.0,0.0,-17.94,14.12,-26.06,0.28,-0.52,0.28,0.76
474,00:00:07.898,IMU7,1.86,3.34,-9.2,0.01,0.0,0.01,21.06,9.12,28.0,0.47,0.86,0.2,0.0
474,00:00:07.898,IMU5,6.77,-0.48,6.98,0.0,0.0,0.0,5.19,-12.44,-34.94,0.31,-0.22,0.79,0.48
474,00:00:07.898,IMU1,9.34,1.32,3.08,0.0,0.0,0.0,-17.94,14.12,-26.06,0.28,-0.52,0.28,0.76
475,00:00:07.902,IMU7,1.86,3.34,-9.2,0.0,-0.0,0.0,21.06,9.12,28.0,0.47,0.86,0.2,0.0
475,00:00:07.902,IMU5,6.77,-0.48,6.98,0.0,0.0,0.0,5.75,-12.06,-35.31,0.31,-0.22,0.79,0.48
475,00:00:07.902,IMU1,9.34,1.32,3.08,0.0,0.0,0.0,-17.94,14.12,-26.06,0.28,-0.52,0.28,0.76
476,00:00:07.907,IMU7,1.86,3.34,-9.2,0.0,-0.0,0.0,21.06,9.12,28.0,0.47,0.86,0.2,0.0
476,00:00:07.907,IMU5,6.77,-0.48,6.98,0.0,0.0,0.0,5.75,-12.06,-35.31,0.31,-0.22,0.79,0.48
476,00:00:07.907,IMU1,9.34,1.32,3.08,0.0,0.0,0.0,-17.94,14.12,-26.06,0.28,-0.52,0.28,0.76
477,00:00:07.913,IMU7,1.86,3.34,-9.2,-0.0,0.0,0.01,21.06,9.12,28.0,0.47,0.86,0.2,0.0
477,00:00:07.913,IMU5,6.77,-0.48,6.98,0.0,0.0,0.0,5.75,-12.06,-35.31,0.31,-0.22,0.79,0.48
477,00:00:07.913,IMU1,9.34,1.32,3.08,0.0,0.0,0.0,-17.94,14.12,-26.06,0.28,-0.52,0.28,0.76
478,00:00:07.919,IMU7,1.86,3.34,-9.2,-0.0,0.0,0.01,21.06,9.12,28.0,0.47,0.86,0.2,0.0
478,00:00:07.919,IMU5,6.77,-0.48,6.98,0.0,0.0,0.0,5.75,-12.06,-35.31,0.31,-0.22,0.79,0.48
478,00:00:07.919,IMU1,9.3,1.36,3.16,0.0,0.0,0.0,-17.94,14.12,-26.06,0.28,-0.52,0.28,0.76
479,00:00:07.922,IMU7,1.82,3.38,-9.23,-0.0,0.0,0.01,21.06,9.12,28.0,0.47,0.86,0.2,0.0
479,00:00:07.922,IMU5,6.77,-0.48,6.98,0.0,0.0,0.0,5.75,-12.06,-35.31,0.31,-0.22,0.79,0.48
479,00:00:07.922,IMU1,9.3,1.36,3.16,0.0,0.0,0.0,-17.25,13.31,-25.12,0.28,-0.52,0.28,0.76
480,00:00:07.926,IMU7,1.82,3.38,-9.23,-0.0,0.0,0.01,21.69,9.19,28.62,0.47,0.86,0.2,0.0
480,00:00:07.926,IMU5,6.77,-0.48,6.98,0.0,0.0,0.0,5.75,-12.06,-35.31,0.31,-0.22,0.79,0.48
480,00:00:07.926,IMU1,9.3,1.36,3.16,0.0,0.0,0.0,-17.25,13.31,-25.12,0.28,-0.52,0.28,0.76
481,00:00:07.930,IMU7,1.82,3.38,-9.23,0.01,0.0,0.01,21.69,9.19,28.62,0.47,0.86,0.2,0.0
481,00:00:07.930,IMU5,6.77,-0.48,6.98,0.0,0.0,0.0,5.75,-12.06,-35.31,0.31,-0.22,0.79,0.48
481,00:00:07.930,IMU1,9.3,1.36,3.16,0.0,0.0,0.0,-17.25,13.31,-25.12,0.28,-0.52,0.28,0.76
482,00:00:07.936,IMU7,1.82,3.38,-9.23,0.01,0.0,0.01,21.69,9.19,28.62,0.47,0.86,0.2,0.0
482,00:00:07.936,IMU5,6.77,-0.48,6.98,0.0,0.0,0.0,5.75,-12.06,-35.31,0.31,-0.22,0.79,0.48
482,00:00:07.936,IMU1,9.3,1.36,3.16,0.0,0.0,0.0,-17.25,13.31,-25.12,0.28,-0.52,0.28,0.76
483,00:00:07.939,IMU7,1.82,3.38,-9.23,0.0,-0.01,-0.0,21.69,9.19,28.62,0.47,0.86,0.2,0.0
483,00:00:07.939,IMU5,6.77,-0.48,6.98,0.0,0.0,0.0,5.75,-12.06,-35.31,0.31,-0.22,0.79,0.48
483,00:00:07.939,IMU1,9.3,1.36,3.16,0.0,0.0,0.0,-17.25,13.31,-25.12,0.28,-0.52,0.28,0.76
484,00:00:07.943,IMU7,1.82,3.38,-9.23,0.0,-0.01,-0.0,21.69,9.19,28.62,0.47,0.86,0.2,0.0
484,00:00:07.943,IMU5,6.77,-0.48,6.98,0.0,0.0,0.0,5.75,-12.06,-35.31,0.31,-0.22,0.79,0.48
484,00:00:07.943,IMU1,9.3,1.32,3.16,0.0,0.0,0.0,-17.25,13.31,-25.12,0.28,-0.52,0.28,0.76
485,00:00:07.947,IMU7,1.82,3.38,-9.23,-0.0,0.0,-0.0,21.69,9.19,28.62,0.47,0.86,0.2,0.0
485,00:00:07.947,IMU5,6.85,-0.44,7.07,0.0,0.0,0.0,5.75,-12.06,-35.31,0.31,-0.22,0.79,0.48
485,00:00:07.947,IMU1,9.3,1.32,3.16,0.0,0.0,0.0,-17.25,15.5,-25.94,0.28,-0.52,0.28,0.76
486,00:00:07.951,IMU7,1.82,3.38,-9.23,-0.0,0.0,-0.0,21.69,9.19,28.62,0.47,0.86,0.2,0.0
486,00:00:07.951,IMU5,6.85,-0.44,7.07,0.0,0.0,0.0,5.44,-12.5,-34.88,0.31,-0.22,0.79,0.48
486,00:00:07.951,IMU1,9.3,1.32,3.16,0.0,0.0,0.0,-17.25,15.5,-25.94,0.28,-0.52,0.28,0.76
487,00:00:07.955,IMU7,1.82,3.38,-9.16,-0.0,0.0,-0.0,21.69,9.19,28.62,0.47,0.86,0.2,0.0
487,00:00:07.955,IMU5,6.85,-0.44,7.07,0.0,0.0,0.0,5.44,-12.5,-34.88,0.31,-0.22,0.79,0.48
487,00:00:07.955,IMU1,9.3,1.32,3.16,0.0,0.0,0.0,-17.25,15.5,-25.94,0.28,-0.52,0.28,0.76
488,00:00:07.960,IMU7,1.82,3.38,-9.16,-0.0,0.0,-0.0,21.12,9.44,27.62,0.47,0.86,0.2,0.0
488,00:00:07.960,IMU5,6.85,-0.44,7.07,0.0,0.0,0.0,5.44,-12.5,-34.88,0.31,-0.22,0.79,0.48
488,00:00:07.960,IMU1,9.3,1.32,3.16,0.0,0.0,0.0,-17.25,15.5,-25.94,0.28,-0.52,0.28,0.76
489,00:00:07.964,IMU7,1.82,3.38,-9.16,0.0,0.0,-0.0,21.12,9.44,27.62,0.47,0.86,0.2,0.0
489,00:00:07.964,IMU5,6.85,-0.44,7.07,0.0,0.0,0.0,5.44,-12.5,-34.88,0.31,-0.22,0.79,0.48
489,00:00:07.964,IMU1,9.3,1.32,3.16,0.0,0.0,0.0,-17.25,15.5,-25.94,0.28,-0.52,0.28,0.76
490,00:00:07.969,IMU7,1.82,3.38,-9.16,0.0,0.0,-0.0,21.12,9.44,27.62,0.47,0.86,0.2,0.0
490,00:00:07.969,IMU5,6.85,-0.44,7.07,0.0,0.0,0.0,5.44,-12.5,-34.88,0.31,-0.22,0.79,0.48
490,00:00:07.969,IMU1,9.34,1.28,3.16,0.0,0.0,0.0,-17.25,15.5,-25.94,0.28,-0.52,0.28,0.76
491,00:00:07.972,IMU7,1.82,3.38,-9.16,0.0,-0.0,-0.0,21.12,9.44,27.62,0.47,0.86,0.2,0.0
491,00:00:07.972,IMU5,6.85,-0.44,7.07,0.0,0.0,0.0,5.44,-12.5,-34.88,0.31,-0.22,0.79,0.48
491,00:00:07.972,IMU1,9.34,1.28,3.16,0.0,0.0,0.0,-18.19,15.44,-26.12,0.28,-0.52,0.28,0.76
492,00:00:07.976,IMU7,1.82,3.38,-9.16,0.0,-0.0,-0.0,21.12,9.44,27.62,0.47,0.86,0.2,0.0
492,00:00:07.976,IMU5,6.85,-0.44,7.07,0.0,0.0,0.0,5.44,-12.5,-34.88,0.31,-0.22,0.79,0.48
492,00:00:07.976,IMU1,9.34,1.28,3.16,0.0,0.0,0.0,-18.19,15.44,-26.12,0.28,-0.52,0.28,0.76
493,00:00:07.981,IMU7,1.82,3.38,-9.16,-0.01,0.0,-0.0,21.12,9.44,27.62,0.47,0.86,0.2,0.0
493,00:00:07.981,IMU5,6.85,-0.44,7.07,0.0,0.0,0.0,5.44,-12.5,-34.88,0.31,-0.22,0.79,0.48
493,00:00:07.981,IMU1,9.34,1.28,3.16,0.0,0.0,0.0,-18.19,15.44,-26.12,0.28,-0.52,0.28,0.76
494,00:00:07.987,IMU7,1.82,3.38,-9.16,-0.01,0.0,-0.0,21.12,9.44,27.62,0.47,0.86,0.2,0.0
494,00:00:07.987,IMU5,6.85,-0.44,7.07,0.0,0.0,0.0,5.44,-12.5,-34.88,0.31,-0.22,0.79,0.48
494,00:00:07.987,IMU1,9.34,1.28,3.16,0.0,0.0,0.0,-18.19,15.44,-26.12,0.28,-0.52,0.28,0.76
495,00:00:07.994,IMU7,1.86,3.38,-9.16,-0.01,0.0,-0.0,21.12,9.44,27.62,0.47,0.86,0.2,0.0
495,00:00:07.994,IMU5,6.85,-0.48,6.99,0.0,0.0,0.0,5.44,-12.5,-34.88,0.31,-0.22,0.79,0.48
495,00:00:07.994,IMU1,9.34,1.28,3.16,0.0,0.0,0.0,-18.19,15.44,-26.12,0.28,-0.52,0.28,0.76
496,00:00:08.001,IMU7,1.86,3.38,-9.16,-0.01,0.0,-0.0,21.56,9.06,27.19,0.47,0.86,0.2,0.0
496,00:00:08.001,IMU5,6.85,-0.48,6.99,0.0,0.0,0.0,5.44,-12.5,-34.88,0.31,-0.22,0.79,0.48
496,00:00:08.001,IMU1,9.3,1.36,3.16,0.0,0.0,0.0,-18.19,15.44,-26.12,0.28,-0.52,0.28,0.76
497,00:00:08.004,IMU7,1.86,3.38,-9.16,-0.01,0.0,-0.01,21.56,9.06,27.19,0.47,0.86,0.2,0.0
497,00:00:08.004,IMU5,6.85,-0.48,6.99,0.0,0.0,0.0,6.0,-13.88,-33.31,0.31,-0.22,0.79,0.48
497,00:00:08.004,IMU1,9.3,1.36,3.16,0.0,0.0,0.0,-17.69,14.56,-26.44,0.28,-0.52,0.28,0.76
498,00:00:08.009,IMU7,1.86,3.38,-9.16,-0.01,0.0,-0.01,21.56,9.06,27.19,0.47,0.86,0.2,0.0
498,00:00:08.009,IMU5,6.85,-0.48,6.99,0.0,0.0,0.0,6.0,-13.88,-33.31,0.31,-0.22,0.79,0.48
498,00:00:08.009,IMU1,9.3,1.36,3.16,0.0,0.0,0.0,-17.69,14.56,-26.44,0.28,-0.52,0.28,0.76
