Count,Timestamp,IMU,AccelX,AccelY,AccelZ,GyroX,GyroY,GyroZ,MagX,MagY,MagZ,QuatW,QuatX,QuatY,QuatZ
5540,00:00:35.067,IMU1,0.38,-0.03,9.79,0.0,0.0,0.0,33.38,-16.94,-41.5,0.02,-0.01,0.79,0.61
5540,00:00:35.067,IMU2,0.24,0.11,9.79,0.0,0.0,0.0,27.69,-30.5,-47.56,0.01,0.0,0.78,0.63
5540,00:00:35.067,IMU3,0.28,0.12,9.73,0.0,0.0,0.0,17.81,-19.19,-37.38,0.01,-0.01,0.79,0.61
5540,00:00:35.067,IMU4,0.31,0.1,9.84,0.0,0.0,0.0,7.12,-3.69,-21.69,0.02,-0.01,0.81,0.58
6391,00:00:35.070,IMU5,0.03,0.29,9.79,0.0,0.0,-0.0,30.94,-15.06,-20.0,0.01,0.01,0.73,0.68
6391,00:00:35.070,IMU6,0.22,0.09,9.82,0.0,0.0,0.0,26.19,-12.75,-15.19,0.01,-0.01,0.77,0.63
6391,00:00:35.070,IMU7,0.5,0.11,9.75,0.0,0.0,0.0,19.19,-12.75,-18.31,0.03,-0.01,0.7,0.72
5541,00:00:35.071,IMU1,0.38,-0.03,9.79,0.0,0.0,0.0,33.38,-16.94,-41.5,0.02,-0.01,0.79,0.61
5541,00:00:35.071,IMU2,0.24,0.11,9.79,0.0,0.0,0.0,27.69,-30.5,-47.56,0.01,0.0,0.78,0.63
5541,00:00:35.071,IMU3,0.2,0.16,9.73,0.0,0.0,0.0,17.81,-19.19,-37.38,0.01,-0.01,0.79,0.61
5541,00:00:35.071,IMU4,0.31,0.1,9.84,0.0,0.0,0.0,7.12,-3.69,-21.69,0.02,-0.01,0.81,0.58
6392,00:00:35.074,IMU5,0.03,0.29,9.79,0.0,0.0,-0.0,30.94,-15.06,-20.0,0.01,0.01,0.73,0.68
6392,00:00:35.074,IMU6,0.22,0.09,9.82,0.0,0.0,0.0,26.19,-12.75,-15.19,0.01,-0.01,0.77,0.63
6392,00:00:35.074,IMU7,0.54,0.19,9.79,0.0,0.0,0.0,19.19,-12.75,-18.31,0.03,-0.01,0.7,0.72
5542,00:00:35.075,IMU1,0.38,-0.03,9.79,0.0,0.0,0.0,33.38,-16.94,-41.5,0.02,-0.01,0.79,0.61
5542,00:00:35.075,IMU2,0.24,0.11,9.79,0.0,0.0,0.0,27.69,-30.5,-47.56,0.01,0.0,0.78,0.63
5542,00:00:35.075,IMU3,0.2,0.16,9.73,0.0,0.0,0.0,17.81,-19.19,-37.38,0.01,-0.01,0.79,0.61
5542,00:00:35.075,IMU4,0.31,0.1,9.84,0.0,0.0,0.0,5.94,-5.75,-20.88,0.02,-0.01,0.81,0.58
6393,00:00:35.078,IMU5,0.03,0.29,9.79,0.0,-0.0,0.0,30.94,-15.06,-20.0,0.01,0.01,0.73,0.68
6393,00:00:35.078,IMU6,0.22,0.09,9.82,0.0,0.0,0.0,26.19,-12.75,-15.19,0.01,-0.01,0.77,0.63
6393,00:00:35.078,IMU7,0.54,0.19,9.79,0.0,0.0,0.0,18.81,-11.38,-19.06,0.03,-0.01,0.7,0.72
5543,00:00:35.081,IMU1,0.38,-0.03,9.79,0.0,0.0,0.0,33.38,-16.94,-41.5,0.02,-0.01,0.79,0.61
5543,00:00:35.081,IMU2,0.24,0.11,9.79,0.0,0.0,0.0,27.69,-30.5,-47.56,0.01,0.0,0.78,0.63
5543,00:00:35.081,IMU3,0.2,0.16,9.73,0.0,0.0,0.0,20.81,-17.0,-37.38,0.01,-0.01,0.79,0.61
5543,00:00:35.081,IMU4,0.31,0.1,9.84,0.0,0.0,0.0,5.94,-5.75,-20.88,0.02,-0.01,0.81,0.58
6394,00:00:35.083,IMU5,0.03,0.29,9.79,0.0,-0.0,0.0,30.94,-15.06,-20.0,0.01,0.01,0.73,0.68
6394,00:00:35.083,IMU6,0.22,0.09,9.82,0.0,0.0,0.0,26.19,-12.75,-15.19,0.01,-0.01,0.77,0.63
6394,00:00:35.083,IMU7,0.54,0.19,9.79,0.0,0.0,0.0,18.81,-11.38,-19.06,0.03,-0.01,0.7,0.72
5544,00:00:35.088,IMU1,0.38,-0.03,9.79,0.0,0.0,0.0,33.38,-16.94,-41.5,0.02,-0.01,0.79,0.61
5544,00:00:35.088,IMU2,0.24,0.11,9.79,0.0,0.0,0.0,27.69,-30.5,-47.56,0.01,0.0,0.78,0.63
5544,00:00:35.088,IMU3,0.2,0.16,9.73,0.0,0.0,0.0,20.81,-17.0,-37.38,0.01,-0.01,0.79,0.61
5544,00:00:35.088,IMU4,0.31,0.1,9.84,0.0,0.0,0.0,5.94,-5.75,-20.88,0.02,-0.01,0.81,0.58
6395,00:00:35.089,IMU5,0.03,0.29,9.79,0.0,-0.0,0.0,30.94,-15.06,-20.0,0.01,0.01,0.73,0.68
6395,00:00:35.089,IMU6,0.25,0.12,9.82,0.0,0.0,0.0,26.19,-12.75,-15.19,0.01,-0.01,0.77,0.63
6395,00:00:35.089,IMU7,0.54,0.19,9.79,0.0,0.0,0.0,18.81,-11.38,-19.06,0.03,-0.01,0.7,0.72
5545,00:00:35.091,IMU1,0.34,0.01,9.87,0.0,0.0,0.0,33.38,-16.94,-41.5,0.02,-0.01,0.79,0.61
5545,00:00:35.091,IMU2,0.24,0.11,9.79,0.0,0.0,0.0,27.69,-30.5,-47.56,0.01,0.0,0.78,0.63
5545,00:00:35.091,IMU3,0.2,0.16,9.73,0.0,0.0,0.0,20.81,-17.0,-37.38,0.01,-0.01,0.79,0.61
5545,00:00:35.091,IMU4,0.31,0.1,9.84,0.0,0.0,0.0,5.94,-5.75,-20.88,0.02,-0.01,0.81,0.58
6396,00:00:35.094,IMU5,0.03,0.29,9.79,0.0,-0.0,0.0,32.31,-15.0,-20.12,0.01,0.01,0.73,0.68
6396,00:00:35.094,IMU6,0.25,0.12,9.82,0.0,0.0,0.0,26.19,-12.75,-15.19,0.01,-0.01,0.77,0.63
6396,00:00:35.094,IMU7,0.54,0.19,9.79,0.0,0.0,0.0,18.81,-11.38,-19.06,0.03,-0.01,0.7,0.72
6397,00:00:35.097,IMU5,0.03,0.29,9.79,0.0,0.0,0.0,32.31,-15.0,-20.12,0.01,0.01,0.73,0.68
6397,00:00:35.097,IMU6,0.25,0.12,9.82,0.0,0.0,0.0,25.06,-13.06,-15.5,0.01,-0.01,0.77,0.63
6397,00:00:35.097,IMU7,0.54,0.19,9.79,0.0,0.0,0.0,18.81,-11.38,-19.06,0.03,-0.01,0.7,0.72
5546,00:00:35.099,IMU1,0.34,0.01,9.87,0.0,0.0,0.0,33.19,-16.62,-40.62,0.02,-0.01,0.79,0.61
5546,00:00:35.099,IMU2,0.24,0.11,9.79,0.0,0.0,0.0,27.69,-30.5,-47.56,0.01,0.0,0.78,0.63
5546,00:00:35.099,IMU3,0.2,0.16,9.73,0.0,0.0,0.0,20.81,-17.0,-37.38,0.01,-0.01,0.79,0.61
5546,00:00:35.099,IMU4,0.31,0.1,9.84,0.0,0.0,0.0,5.94,-5.75,-20.88,0.02,-0.01,0.81,0.58
6398,00:00:35.102,IMU5,0.03,0.29,9.79,0.0,0.0,0.0,32.31,-15.0,-20.12,0.01,0.01,0.73,0.68
6398,00:00:35.102,IMU6,0.25,0.12,9.82,0.0,0.0,0.0,25.06,-13.06,-15.5,0.01,-0.01,0.77,0.63
6398,00:00:35.102,IMU7,0.54,0.11,9.75,0.0,0.0,0.0,18.81,-11.38,-19.06,0.03,-0.01,0.7,0.72
5547,00:00:35.103,IMU1,0.34,0.01,9.87,0.0,0.0,0.0,33.19,-16.62,-40.62,0.02,-0.01,0.79,0.61
5547,00:00:35.103,IMU2,0.24,0.11,9.79,0.0,0.0,0.0,27.69,-30.5,-47.56,0.01,0.0,0.78,0.63
5547,00:00:35.103,IMU3,0.2,0.16,9.73,0.0,0.0,0.0,20.81,-17.0,-37.38,0.01,-0.01,0.79,0.61
5547,00:00:35.103,IMU4,0.31,0.1,9.84,0.0,0.0,0.0,5.94,-5.75,-20.88,0.02,-0.01,0.81,0.58
6399,00:00:35.106,IMU5,0.03,0.29,9.79,-0.0,0.0,-0.01,32.31,-15.0,-20.12,0.01,0.01,0.73,0.68
6399,00:00:35.106,IMU6,0.25,0.12,9.82,0.0,0.0,0.0,25.06,-13.06,-15.5,0.01,-0.01,0.77,0.63
6399,00:00:35.106,IMU7,0.54,0.11,9.75,0.0,0.0,0.0,18.81,-12.06,-18.62,0.03,-0.01,0.7,0.72
5548,00:00:35.107,IMU1,0.34,0.01,9.87,0.0,0.0,0.0,33.19,-16.62,-40.62,0.02,-0.01,0.79,0.61
5548,00:00:35.107,IMU2,0.24,0.11,9.79,0.0,0.0,0.0,27.69,-30.5,-47.56,0.01,0.0,0.78,0.63
5548,00:00:35.107,IMU3,0.2,0.16,9.73,0.0,0.0,0.0,20.81,-17.0,-37.38,0.01,-0.01,0.79,0.61
5548,00:00:35.107,IMU4,0.35,0.02,9.8,0.0,0.0,0.0,5.94,-5.75,-20.88,0.02,-0.01,0.81,0.58
5549,00:00:35.112,IMU1,0.34,0.01,9.87,0.0,0.0,0.0,33.19,-16.62,-40.62,0.02,-0.01,0.79,0.61
5549,00:00:35.112,IMU2,0.24,0.11,9.79,0.0,0.0,0.0,27.75,-30.69,-45.56,0.01,0.0,0.78,0.63
5549,00:00:35.112,IMU3,0.2,0.16,9.73,0.0,0.0,0.0,20.81,-17.0,-37.38,0.01,-0.01,0.79,0.61
5549,00:00:35.112,IMU4,0.35,0.02,9.8,0.0,0.0,0.0,4.5,-6.0,-19.94,0.02,-0.01,0.81,0.58
5550,00:00:35.119,IMU1,0.34,0.01,9.87,0.0,0.0,0.0,33.19,-16.62,-40.62,0.02,-0.01,0.79,0.61
5550,00:00:35.119,IMU2,0.24,0.11,9.79,0.0,0.0,0.0,27.75,-30.69,-45.56,0.01,0.0,0.78,0.63
5550,00:00:35.119,IMU3,0.2,0.16,9.73,0.0,0.0,0.0,20.81,-17.0,-37.38,0.01,-0.01,0.79,0.61
5550,00:00:35.119,IMU4,0.35,0.02,9.8,0.0,0.0,0.0,4.5,-6.0,-19.94,0.02,-0.01,0.81,0.58
5551,00:00:35.124,IMU1,0.34,0.01,9.87,0.0,0.0,0.0,33.19,-16.62,-40.62,0.02,-0.01,0.79,0.61
5551,00:00:35.124,IMU2,0.24,0.11,9.79,0.0,0.0,0.0,27.75,-30.69,-45.56,0.01,0.0,0.78,0.63
5551,00:00:35.124,IMU3,0.24,0.08,9.77,0.0,0.0,0.0,20.81,-17.0,-37.38,0.01,-0.01,0.79,0.61
5551,00:00:35.124,IMU4,0.35,0.02,9.8,0.0,0.0,0.0,4.5,-6.0,-19.94,0.02,-0.01,0.81,0.58
5552,00:00:35.130,IMU1,0.34,0.01,9.87,0.0,0.0,0.0,33.19,-16.62,-40.62,0.02,-0.01,0.79,0.61
5552,00:00:35.130,IMU2,0.24,0.11,9.79,0.0,0.0,0.0,27.75,-30.69,-45.56,0.01,0.0,0.78,0.63
5552,00:00:35.130,IMU3,0.24,0.08,9.77,0.0,0.0,0.0,20.81,-17.0,-37.38,0.01,-0.01,0.79,0.61
5552,00:00:35.130,IMU4,0.27,0.02,9.76,0.0,0.0,0.0,4.5,-6.0,-19.94,0.02,-0.01,0.81,0.58
6400,00:00:35.111,IMU5,0.03,0.29,9.79,-0.0,0.0,-0.01,32.31,-15.0,-20.12,0.01,0.01,0.73,0.68
6400,00:00:35.111,IMU6,0.25,0.12,9.82,0.0,0.0,0.0,25.06,-13.06,-15.5,0.01,-0.01,0.77,0.63
6400,00:00:35.111,IMU7,0.54,0.11,9.75,0.0,0.0,0.0,18.81,-12.06,-18.62,0.03,-0.01,0.7,0.72
6401,00:00:35.116,IMU5,0.03,0.29,9.79,-0.0,0.0,-0.01,32.31,-15.0,-20.12,0.01,0.01,0.73,0.68
6401,00:00:35.116,IMU6,0.25,0.12,9.82,0.0,0.0,0.0,25.06,-13.06,-15.5,0.01,-0.01,0.77,0.63
6401,00:00:35.116,IMU7,0.54,0.11,9.75,0.0,0.0,0.0,18.81,-12.06,-18.62,0.03,-0.01,0.7,0.72
6402,00:00:35.121,IMU5,0.03,0.29,9.79,-0.0,0.0,-0.01,32.31,-15.0,-20.12,0.01,0.01,0.73,0.68
6402,00:00:35.121,IMU6,0.25,0.12,9.82,0.0,0.0,0.0,25.06,-13.06,-15.5,0.01,-0.01,0.77,0.63
6402,00:00:35.121,IMU7,0.54,0.11,9.75,0.0,0.0,0.0,18.81,-12.06,-18.62,0.03,-0.01,0.7,0.72
6403,00:00:35.126,IMU5,0.03,0.29,9.79,-0.0,0.0,-0.01,32.31,-15.0,-20.12,0.01,0.01,0.73,0.68
6403,00:00:35.126,IMU6,0.25,0.12,9.82,0.0,0.0,0.0,25.06,-13.06,-15.5,0.01,-0.01,0.77,0.63
6403,00:00:35.126,IMU7,0.54,0.11,9.75,0.0,0.0,0.0,18.81,-12.06,-18.62,0.03,-0.01,0.7,0.72
6404,00:00:35.131,IMU5,0.03,0.29,9.79,-0.0,0.0,-0.01,32.06,-14.25,-20.06,0.01,0.01,0.73,0.68
6404,00:00:35.131,IMU6,0.25,0.12,9.82,0.0,0.0,0.0,25.06,-13.06,-15.5,0.01,-0.01,0.77,0.63
6404,00:00:35.131,IMU7,0.54,0.11,9.75,0.0,0.0,0.0,18.81,-12.06,-18.62,0.03,-0.01,0.7,0.72
5553,00:00:35.134,IMU1,0.34,0.01,9.87,0.0,0.0,0.0,33.19,-16.62,-40.62,0.02,-0.01,0.79,0.61
5553,00:00:35.134,IMU2,0.24,0.11,9.79,0.0,0.0,0.0,27.75,-30.69,-45.56,0.01,0.0,0.78,0.63
5553,00:00:35.134,IMU3,0.24,0.08,9.77,0.0,0.0,0.0,19.31,-18.38,-39.06,0.01,-0.01,0.79,0.61
5553,00:00:35.134,IMU4,0.27,0.02,9.76,0.0,0.0,0.0,6.81,-4.75,-21.5,0.02,-0.01,0.81,0.58
6405,00:00:35.135,IMU5,0.03,0.29,9.79,-0.0,0.0,-0.0,32.06,-14.25,-20.06,0.01,0.01,0.73,0.68
6405,00:00:35.135,IMU6,0.25,0.12,9.82,0.0,0.0,0.0,25.06,-13.06,-15.5,0.01,-0.01,0.77,0.63
6405,00:00:35.135,IMU7,0.54,0.11,9.75,0.0,0.0,0.0,18.81,-12.06,-18.62,0.03,-0.01,0.7,0.72
6406,00:00:35.141,IMU5,0.03,0.29,9.79,-0.0,0.0,-0.0,32.06,-14.25,-20.06,0.01,0.01,0.73,0.68
6406,00:00:35.141,IMU6,0.25,0.12,9.82,0.0,0.0,0.0,25.06,-13.06,-15.5,0.01,-0.01,0.77,0.63
6406,00:00:35.141,IMU7,0.54,0.15,9.71,0.0,0.0,0.0,18.81,-12.06,-18.62,0.03,-0.01,0.7,0.72
5554,00:00:35.138,IMU1,0.34,0.01,9.87,0.0,0.0,0.0,33.19,-16.62,-40.62,0.02,-0.01,0.79,0.61
5554,00:00:35.138,IMU2,0.24,0.11,9.79,0.0,0.0,0.0,27.75,-30.69,-45.56,0.01,0.0,0.78,0.63
5554,00:00:35.138,IMU3,0.24,0.08,9.77,0.0,0.0,0.0,19.31,-18.38,-39.06,0.01,-0.01,0.79,0.61
5554,00:00:35.138,IMU4,0.27,0.02,9.76,0.0,0.0,0.0,6.81,-4.75,-21.5,0.02,-0.01,0.81,0.58
6407,00:00:35.144,IMU5,0.03,0.29,9.79,0.0,0.0,0.0,32.06,-14.25,-20.06,0.01,0.01,0.73,0.68
6407,00:00:35.144,IMU6,0.25,0.12,9.82,0.0,0.0,0.0,25.06,-13.06,-15.5,0.01,-0.01,0.77,0.63
6407,00:00:35.144,IMU7,0.54,0.15,9.71,0.0,0.0,0.0,19.12,-12.06,-18.31,0.03,-0.01,0.7,0.72
5555,00:00:35.144,IMU1,0.34,0.01,9.87,0.0,0.0,0.0,33.19,-16.62,-40.62,0.02,-0.01,0.79,0.61
5555,00:00:35.144,IMU2,0.24,0.11,9.79,0.0,0.0,0.0,27.75,-30.69,-45.56,0.01,0.0,0.78,0.63
5555,00:00:35.144,IMU3,0.24,0.08,9.77,0.0,0.0,0.0,19.31,-18.38,-39.06,0.01,-0.01,0.79,0.61
5555,00:00:35.144,IMU4,0.27,0.02,9.76,0.0,0.0,0.0,6.81,-4.75,-21.5,0.02,-0.01,0.81,0.58
6408,00:00:35.148,IMU5,0.03,0.29,9.79,0.0,0.0,0.0,32.06,-14.25,-20.06,0.01,0.01,0.73,0.68
6408,00:00:35.148,IMU6,0.25,0.12,9.82,0.0,0.0,0.0,25.06,-13.06,-15.5,0.01,-0.01,0.77,0.63
6408,00:00:35.148,IMU7,0.54,0.15,9.71,0.0,0.0,0.0,19.12,-12.06,-18.31,0.03,-0.01,0.7,0.72
6409,00:00:35.152,IMU5,0.03,0.29,9.79,-0.0,0.0,-0.0,32.06,-14.25,-20.06,0.01,0.01,0.73,0.68
6409,00:00:35.152,IMU6,0.29,0.09,9.82,0.0,0.0,0.0,25.06,-13.06,-15.5,0.01,-0.01,0.77,0.63
6409,00:00:35.152,IMU7,0.54,0.15,9.71,0.0,0.0,0.0,19.12,-12.06,-18.31,0.03,-0.01,0.7,0.72
5556,00:00:35.150,IMU1,0.34,0.01,9.87,0.0,0.0,0.0,33.19,-16.62,-40.62,0.02,-0.01,0.79,0.61
5556,00:00:35.150,IMU2,0.24,0.11,9.79,0.0,0.0,0.0,27.75,-30.69,-45.56,0.01,0.0,0.78,0.63
5556,00:00:35.150,IMU3,0.24,0.08,9.77,0.0,0.0,0.0,19.31,-18.38,-39.06,0.01,-0.01,0.79,0.61
5556,00:00:35.150,IMU4,0.27,0.02,9.76,0.0,0.0,0.0,6.81,-4.75,-21.5,0.02,-0.01,0.81,0.58
5557,00:00:35.154,IMU1,0.38,0.04,9.87,0.0,0.0,0.0,33.19,-16.62,-40.62,0.02,-0.01,0.79,0.61
5557,00:00:35.154,IMU2,0.24,0.11,9.79,0.0,0.0,0.0,27.75,-30.69,-45.56,0.01,0.0,0.78,0.63
5557,00:00:35.154,IMU3,0.24,0.08,9.77,0.0,0.0,0.0,19.31,-18.38,-39.06,0.01,-0.01,0.79,0.61
5557,00:00:35.154,IMU4,0.27,0.02,9.76,0.0,0.0,0.0,6.81,-4.75,-21.5,0.02,-0.01,0.81,0.58
6410,00:00:35.160,IMU5,0.03,0.29,9.79,-0.0,0.0,-0.0,32.06,-14.25,-20.06,0.01,0.01,0.73,0.68
6410,00:00:35.160,IMU6,0.29,0.09,9.82,0.0,0.0,0.0,25.88,-12.69,-15.94,0.01,-0.01,0.77,0.63
6410,00:00:35.160,IMU7,0.54,0.15,9.71,0.0,0.0,0.0,19.12,-12.06,-18.31,0.03,-0.01,0.7,0.72
6411,00:00:35.163,IMU5,0.07,0.29,9.74,-0.0,0.0,-0.0,32.06,-14.25,-20.06,0.01,0.01,0.73,0.68
6411,00:00:35.163,IMU6,0.29,0.09,9.82,0.0,0.0,0.0,25.88,-12.69,-15.94,0.01,-0.01,0.77,0.63
6411,00:00:35.163,IMU7,0.54,0.15,9.71,0.0,0.0,0.0,19.12,-12.06,-18.31,0.03,-0.01,0.7,0.72
5558,00:00:35.161,IMU1,0.38,0.04,9.87,0.0,0.0,0.0,32.12,-17.12,-38.75,0.02,-0.01,0.79,0.61
5558,00:00:35.161,IMU2,0.24,0.11,9.79,0.0,0.0,0.0,28.88,-30.69,-45.12,0.01,0.0,0.78,0.63
5558,00:00:35.161,IMU3,0.24,0.08,9.77,0.0,0.0,0.0,19.31,-18.38,-39.06,0.01,-0.01,0.79,0.61
5558,00:00:35.161,IMU4,0.35,0.02,9.8,0.0,0.0,0.0,6.81,-4.75,-21.5,0.02,-0.01,0.81,0.58
5559,00:00:35.164,IMU1,0.38,0.04,9.87,0.0,0.0,0.0,32.12,-17.12,-38.75,0.02,-0.01,0.79,0.61
5559,00:00:35.164,IMU2,0.24,0.11,9.79,0.0,0.0,0.0,28.88,-30.69,-45.12,0.01,0.0,0.78,0.63
5559,00:00:35.164,IMU3,0.24,0.08,9.77,0.0,0.0,0.0,19.31,-18.38,-39.06,0.01,-0.01,0.79,0.61
5559,00:00:35.164,IMU4,0.35,0.02,9.8,0.0,0.0,0.0,6.81,-4.75,-21.5,0.02,-0.01,0.81,0.58
6412,00:00:35.167,IMU5,0.07,0.29,9.74,-0.0,0.0,-0.0,31.62,-13.31,-19.31,0.01,0.01,0.73,0.68
6412,00:00:35.167,IMU6,0.29,0.09,9.82,0.0,0.0,0.0,25.88,-12.69,-15.94,0.01,-0.01,0.77,0.63
6412,00:00:35.167,IMU7,0.57,0.15,9.91,0.0,0.0,0.0,19.12,-12.06,-18.31,0.03,-0.01,0.7,0.72
5560,00:00:35.168,IMU1,0.38,0.04,9.87,0.0,0.0,0.0,32.12,-17.12,-38.75,0.02,-0.01,0.79,0.61
5560,00:00:35.168,IMU2,0.24,0.11,9.79,0.0,0.0,0.0,28.88,-30.69,-45.12,0.01,-0.0,0.78,0.63
5560,00:00:35.168,IMU3,0.24,0.08,9.77,0.0,0.0,0.0,19.31,-18.38,-39.06,0.01,-0.01,0.79,0.61
5560,00:00:35.168,IMU4,0.35,0.02,9.8,0.0,0.0,0.0,7.12,-6.62,-21.25,0.02,-0.01,0.81,0.58
6413,00:00:35.171,IMU5,0.07,0.29,9.74,0.0,0.0,0.0,31.62,-13.31,-19.31,0.01,0.01,0.73,0.68
6413,00:00:35.171,IMU6,0.29,0.09,9.82,0.0,0.0,0.0,25.88,-12.69,-15.94,0.01,-0.01,0.77,0.63
6413,00:00:35.171,IMU7,0.57,0.15,9.91,0.0,0.0,0.0,17.88,-11.0,-17.75,0.03,-0.01,0.7,0.72
6414,00:00:35.175,IMU5,0.07,0.29,9.74,0.0,0.0,0.0,31.62,-13.31,-19.31,0.01,0.01,0.73,0.68
6414,00:00:35.175,IMU6,0.29,0.09,9.82,0.0,0.0,0.0,25.88,-12.69,-15.94,0.01,-0.01,0.77,0.63
6414,00:00:35.175,IMU7,0.57,0.15,9.91,0.0,0.0,0.0,17.88,-11.0,-17.75,0.03,-0.01,0.7,0.72
5561,00:00:35.174,IMU1,0.38,0.04,9.87,0.0,0.0,0.0,32.12,-17.12,-38.75,0.02,-0.01,0.79,0.61
5561,00:00:35.174,IMU2,0.24,0.11,9.79,0.0,0.0,0.0,28.88,-30.69,-45.12,0.01,-0.0,0.78,0.63
5561,00:00:35.174,IMU3,0.24,0.08,9.77,0.0,0.0,0.0,19.31,-18.38,-39.06,0.01,-0.01,0.79,0.61
5561,00:00:35.174,IMU4,0.35,0.02,9.8,0.0,0.0,0.0,7.12,-6.62,-21.25,0.02,-0.01,0.81,0.58
6415,00:00:35.181,IMU5,0.07,0.29,9.74,0.0,0.0,0.0,31.62,-13.31,-19.31,0.01,0.01,0.73,0.68
6415,00:00:35.181,IMU6,0.29,0.09,9.82,0.0,0.0,0.0,25.88,-12.69,-15.94,0.01,-0.01,0.77,0.63
6415,00:00:35.181,IMU7,0.57,0.15,9.91,0.0,0.0,0.0,17.88,-11.0,-17.75,0.03,-0.01,0.7,0.72
5562,00:00:35.182,IMU1,0.38,0.04,9.87,0.0,0.0,0.0,32.12,-17.12,-38.75,0.02,-0.01,0.79,0.61
5562,00:00:35.182,IMU2,0.24,0.11,9.79,0.0,0.0,0.0,28.88,-30.69,-45.12,0.01,-0.0,0.78,0.63
5562,00:00:35.182,IMU3,0.24,0.08,9.77,0.0,0.0,0.0,19.31,-18.38,-39.06,0.01,-0.01,0.79,0.61
5562,00:00:35.182,IMU4,0.35,0.02,9.8,0.0,0.0,0.0,7.12,-6.62,-21.25,0.02,-0.01,0.81,0.58
6416,00:00:35.186,IMU5,0.07,0.29,9.74,0.0,0.0,0.0,31.62,-13.31,-19.31,0.01,0.01,0.73,0.68
6416,00:00:35.186,IMU6,0.29,0.09,9.82,0.0,0.0,0.0,25.88,-12.69,-15.94,0.01,-0.01,0.77,0.63
6416,00:00:35.186,IMU7,0.57,0.15,9.91,0.0,0.0,0.0,17.88,-11.0,-17.75,0.03,-0.01,0.7,0.72
5563,00:00:35.185,IMU1,0.38,0.04,9.87,0.0,0.0,0.0,32.12,-17.12,-38.75,0.02,-0.01,0.79,0.61
5563,00:00:35.185,IMU2,0.24,0.11,9.79,0.0,0.0,0.0,28.88,-30.69,-45.12,0.01,-0.0,0.78,0.63
5563,00:00:35.185,IMU3,0.24,0.08,9.77,0.0,0.0,0.0,19.31,-18.38,-39.06,0.01,-0.01,0.79,0.61
5563,00:00:35.185,IMU4,0.35,0.02,9.8,0.0,0.0,0.0,7.12,-6.62,-21.25,0.02,-0.01,0.81,0.58
6417,00:00:35.191,IMU5,0.07,0.29,9.74,0.0,0.0,-0.0,31.62,-13.31,-19.31,0.01,0.01,0.73,0.68
6417,00:00:35.191,IMU6,0.22,0.12,9.78,0.0,0.0,0.0,25.88,-12.69,-15.94,0.01,-0.01,0.77,0.63
6417,00:00:35.191,IMU7,0.57,0.15,9.91,0.0,0.0,0.0,17.88,-11.0,-17.75,0.03,-0.01,0.7,0.72
5564,00:00:35.191,IMU1,0.38,0.04,9.87,0.0,0.0,0.0,32.12,-17.12,-38.75,0.02,-0.01,0.79,0.61
5564,00:00:35.191,IMU2,0.24,0.11,9.79,0.0,0.0,0.0,28.88,-30.69,-45.12,0.01,-0.0,0.78,0.63
5564,00:00:35.191,IMU3,0.24,0.08,9.77,0.0,0.0,0.0,19.31,-18.38,-39.06,0.01,-0.01,0.79,0.61
5564,00:00:35.191,IMU4,0.35,0.02,9.8,0.0,0.0,0.0,7.12,-6.62,-21.25,0.02,-0.01,0.81,0.58
6418,00:00:35.196,IMU5,0.07,0.29,9.74,0.0,0.0,-0.0,31.62,-13.31,-19.31,0.01,0.01,0.73,0.68
6418,00:00:35.196,IMU6,0.22,0.12,9.78,0.0,0.0,0.0,26.31,-12.06,-16.5,0.01,-0.01,0.77,0.63
6418,00:00:35.196,IMU7,0.57,0.11,9.79,0.0,0.0,0.0,17.88,-11.0,-17.75,0.03,-0.01,0.7,0.72
5565,00:00:35.195,IMU1,0.38,0.04,9.87,0.0,0.0,0.0,32.12,-17.12,-38.75,0.02,-0.01,0.79,0.61
5565,00:00:35.195,IMU2,0.24,0.11,9.79,0.0,0.0,0.0,28.88,-30.69,-45.12,0.01,-0.0,0.78,0.63
5565,00:00:35.195,IMU3,0.2,0.08,9.81,0.0,0.0,0.0,19.31,-18.38,-39.06,0.01,-0.01,0.79,0.61
5565,00:00:35.195,IMU4,0.35,0.02,9.8,0.0,0.0,0.0,7.12,-6.62,-21.25,0.02,-0.01,0.81,0.58
6419,00:00:35.200,IMU5,0.07,0.29,9.74,0.0,0.0,0.0,31.62,-13.31,-19.31,0.01,0.01,0.73,0.68
6419,00:00:35.200,IMU6,0.22,0.12,9.78,0.0,0.0,0.0,26.31,-12.06,-16.5,0.01,-0.01,0.77,0.63
6419,00:00:35.200,IMU7,0.57,0.11,9.79,0.0,0.0,0.0,18.25,-10.62,-17.81,0.03,-0.01,0.7,0.72
5566,00:00:35.201,IMU1,0.38,0.04,9.87,0.0,0.0,0.0,32.12,-17.12,-38.75,0.02,-0.01,0.79,0.61
5566,00:00:35.201,IMU2,0.24,0.11,9.79,0.0,0.0,0.0,28.88,-30.69,-45.12,0.01,-0.0,0.78,0.63
5566,00:00:35.201,IMU3,0.2,0.08,9.81,0.0,0.0,0.0,19.31,-18.38,-39.06,0.01,-0.01,0.79,0.61
5566,00:00:35.201,IMU4,0.35,0.02,9.8,0.0,0.0,0.0,7.12,-6.62,-21.25,0.02,-0.01,0.81,0.58
6420,00:00:35.203,IMU5,0.07,0.29,9.74,0.0,0.0,0.0,31.62,-13.31,-19.31,0.01,0.01,0.73,0.68
6420,00:00:35.203,IMU6,0.22,0.12,9.78,0.0,0.0,0.0,26.31,-12.06,-16.5,0.01,-0.01,0.77,0.63
6420,00:00:35.203,IMU7,0.57,0.11,9.79,0.0,0.0,0.0,18.25,-10.62,-17.81,0.03,-0.01,0.7,0.72
5567,00:00:35.205,IMU1,0.34,0.01,9.79,0.0,0.0,0.0,32.12,-17.12,-38.75,0.02,-0.01,0.79,0.61
5567,00:00:35.205,IMU2,0.24,0.11,9.79,0.0,0.0,0.0,28.88,-30.69,-45.12,0.01,-0.0,0.78,0.63
5567,00:00:35.205,IMU3,0.2,0.08,9.81,0.0,0.0,0.0,19.31,-19.88,-38.56,0.01,-0.01,0.79,0.61
5567,00:00:35.205,IMU4,0.35,0.02,9.8,0.0,0.0,0.0,7.12,-6.62,-21.25,0.02,-0.01,0.81,0.58
6421,00:00:35.208,IMU5,0.07,0.29,9.74,-0.0,0.0,0.01,31.62,-13.31,-19.31,0.01,0.01,0.73,0.68
6421,00:00:35.208,IMU6,0.22,0.12,9.78,0.0,0.0,0.0,26.31,-12.06,-16.5,0.01,-0.01,0.77,0.63
6421,00:00:35.208,IMU7,0.57,0.11,9.79,0.0,0.0,0.0,18.25,-10.62,-17.81,0.03,-0.01,0.7,0.72
6422,00:00:35.213,IMU5,0.07,0.29,9.74,-0.0,0.0,0.01,31.62,-13.31,-19.31,0.01,0.01,0.73,0.68
6422,00:00:35.213,IMU6,0.22,0.12,9.78,0.0,0.0,0.0,26.31,-12.06,-16.5,0.01,-0.01,0.77,0.63
6422,00:00:35.213,IMU7,0.57,0.11,9.79,0.0,0.0,0.0,18.25,-10.62,-17.81,0.03,-0.01,0.7,0.72
5568,00:00:35.210,IMU1,0.34,0.01,9.79,0.0,0.0,0.0,33.25,-17.5,-40.62,0.02,-0.01,0.79,0.61
5568,00:00:35.210,IMU2,0.24,0.11,9.79,0.0,0.0,0.0,28.88,-30.69,-45.12,0.01,-0.0,0.78,0.63
5568,00:00:35.210,IMU3,0.2,0.08,9.81,0.0,0.0,0.0,19.31,-19.88,-38.56,0.01,-0.01,0.79,0.61
5568,00:00:35.210,IMU4,0.27,0.1,9.88,0.0,0.0,0.0,7.12,-6.62,-21.25,0.02,-0.01,0.81,0.58
6423,00:00:35.217,IMU5,0.07,0.29,9.78,-0.0,0.0,0.01,31.62,-13.31,-19.31,0.01,0.01,0.73,0.68
6423,00:00:35.217,IMU6,0.22,0.12,9.78,0.0,0.0,0.0,26.31,-12.06,-16.5,0.01,-0.01,0.77,0.63
6423,00:00:35.217,IMU7,0.57,0.11,9.79,0.0,0.0,0.0,18.25,-10.62,-17.81,0.03,-0.01,0.7,0.72
5569,00:00:35.216,IMU1,0.34,0.01,9.79,0.0,0.0,0.0,33.25,-17.5,-40.62,0.02,-0.01,0.79,0.61
5569,00:00:35.216,IMU2,0.24,0.11,9.79,0.0,0.0,0.0,28.88,-30.69,-45.12,0.01,-0.0,0.78,0.63
5569,00:00:35.216,IMU3,0.2,0.08,9.81,0.0,0.0,0.0,19.31,-19.88,-38.56,0.01,-0.01,0.79,0.61
5569,00:00:35.216,IMU4,0.27,0.1,9.88,0.0,0.0,0.0,5.88,-5.56,-20.56,0.02,-0.01,0.81,0.58
6424,00:00:35.223,IMU5,0.07,0.29,9.78,-0.0,0.0,0.01,32.12,-13.88,-20.75,0.01,0.01,0.73,0.68
6424,00:00:35.223,IMU6,0.22,0.12,9.78,0.0,0.0,0.0,26.31,-12.06,-16.5,0.01,-0.01,0.77,0.63
6424,00:00:35.223,IMU7,0.54,0.19,9.83,0.0,0.0,0.0,18.25,-10.62,-17.81,0.03,-0.01,0.7,0.72
5570,00:00:35.222,IMU1,0.34,0.01,9.79,0.0,0.0,0.0,33.25,-17.5,-40.62,0.02,-0.01,0.79,0.61
5570,00:00:35.222,IMU2,0.24,0.11,9.79,0.0,0.0,0.0,28.88,-30.69,-45.12,0.01,-0.0,0.78,0.63
5570,00:00:35.222,IMU3,0.2,0.08,9.81,0.0,0.0,0.0,19.31,-19.88,-38.56,0.01,-0.01,0.79,0.61
5570,00:00:35.222,IMU4,0.27,0.1,9.88,0.0,0.0,0.0,5.88,-5.56,-20.56,0.02,-0.01,0.81,0.58
6425,00:00:35.227,IMU5,0.07,0.29,9.78,0.0,0.0,0.0,32.12,-13.88,-20.75,0.01,0.01,0.73,0.68
6425,00:00:35.227,IMU6,0.22,0.12,9.78,0.0,0.0,0.0,26.31,-12.06,-16.5,0.01,-0.01,0.77,0.63
6425,00:00:35.227,IMU7,0.54,0.19,9.83,0.0,0.0,0.0,17.94,-11.31,-18.19,0.03,-0.01,0.7,0.72
6426,00:00:35.233,IMU5,0.07,0.29,9.78,0.0,0.0,0.0,32.12,-13.88,-20.75,0.01,0.01,0.73,0.68
6426,00:00:35.233,IMU6,0.22,0.12,9.78,0.0,0.0,0.0,26.31,-12.06,-16.5,0.01,-0.01,0.77,0.63
6426,00:00:35.233,IMU7,0.54,0.19,9.83,0.0,0.0,0.0,17.94,-11.31,-18.19,0.03,-0.01,0.7,0.72
5571,00:00:35.232,IMU1,0.34,0.01,9.79,0.0,0.0,0.0,33.25,-17.5,-40.62,0.02,-0.01,0.79,0.61
5571,00:00:35.232,IMU2,0.24,0.11,9.79,0.0,0.0,0.0,27.0,-29.88,-44.69,0.01,-0.0,0.78,0.63
5571,00:00:35.232,IMU3,0.2,0.08,9.81,0.0,0.0,0.0,19.31,-19.88,-38.56,0.01,-0.01,0.79,0.61
5571,00:00:35.232,IMU4,0.27,0.1,9.88,0.0,0.0,0.0,5.88,-5.56,-20.56,0.02,-0.01,0.81,0.58
6427,00:00:35.238,IMU5,0.07,0.29,9.78,-0.0,0.01,-0.0,32.12,-13.88,-20.75,0.01,0.01,0.73,0.68
6427,00:00:35.238,IMU6,0.25,0.12,9.82,0.0,0.0,0.0,26.31,-12.06,-16.5,0.01,-0.01,0.77,0.63
6427,00:00:35.238,IMU7,0.54,0.19,9.83,0.0,0.0,0.0,17.94,-11.31,-18.19,0.03,-0.01,0.7,0.72
5572,00:00:35.240,IMU1,0.34,0.01,9.79,0.0,0.0,0.0,33.25,-17.5,-40.62,0.02,-0.01,0.79,0.61
5572,00:00:35.240,IMU2,0.24,0.11,9.79,0.0,0.0,0.0,27.0,-29.88,-44.69,0.01,-0.0,0.78,0.63
5572,00:00:35.240,IMU3,0.2,0.08,9.81,0.0,0.0,0.0,19.31,-19.88,-38.56,0.01,-0.01,0.79,0.61
5572,00:00:35.240,IMU4,0.27,0.1,9.88,0.0,0.0,0.0,5.88,-5.56,-20.56,0.02,-0.01,0.81,0.58
6428,00:00:35.245,IMU5,0.07,0.29,9.78,-0.0,0.01,-0.0,32.12,-13.88,-20.75,0.01,0.01,0.73,0.68
6428,00:00:35.245,IMU6,0.25,0.12,9.82,0.0,0.0,0.0,27.12,-13.38,-16.06,0.01,-0.01,0.77,0.63
6428,00:00:35.245,IMU7,0.54,0.19,9.83,0.0,0.0,0.0,17.94,-11.31,-18.19,0.03,-0.01,0.7,0.72
5573,00:00:35.243,IMU1,0.34,0.08,9.79,0.0,0.0,0.0,33.25,-17.5,-40.62,0.02,-0.01,0.79,0.61
5573,00:00:35.243,IMU2,0.24,0.11,9.79,0.0,0.0,0.0,27.0,-29.88,-44.69,0.01,-0.0,0.78,0.63
5573,00:00:35.243,IMU3,0.2,0.08,9.81,0.0,0.0,0.0,19.31,-19.88,-38.56,0.01,-0.01,0.79,0.61
5573,00:00:35.243,IMU4,0.27,0.1,9.88,0.0,0.0,0.0,5.88,-5.56,-20.56,0.02,-0.01,0.81,0.58
6429,00:00:35.248,IMU5,0.07,0.29,9.78,0.0,0.0,0.0,32.12,-13.88,-20.75,0.01,0.01,0.73,0.68
6429,00:00:35.248,IMU6,0.25,0.12,9.82,0.0,0.0,0.0,27.12,-13.38,-16.06,0.01,-0.01,0.77,0.63
6429,00:00:35.248,IMU7,0.54,0.19,9.83,0.0,0.0,0.0,17.94,-11.31,-18.19,0.03,-0.01,0.7,0.72
5574,00:00:35.247,IMU1,0.34,0.08,9.79,0.0,0.0,0.0,33.62,-17.25,-40.69,0.02,-0.01,0.79,0.61
5574,00:00:35.247,IMU2,0.24,0.11,9.79,0.0,0.0,0.0,27.0,-29.88,-44.69,0.01,-0.0,0.78,0.63
5574,00:00:35.247,IMU3,0.2,0.08,9.81,0.0,0.0,0.0,19.31,-19.88,-38.56,0.01,-0.01,0.79,0.61
5574,00:00:35.247,IMU4,0.27,0.1,9.88,0.0,0.0,0.0,5.88,-5.56,-20.56,0.02,-0.01,0.81,0.58
6430,00:00:35.253,IMU5,0.07,0.29,9.78,0.0,0.0,0.0,32.12,-13.88,-20.75,0.01,0.01,0.73,0.68
6430,00:00:35.253,IMU6,0.25,0.12,9.82,0.0,0.0,0.0,27.12,-13.38,-16.06,0.01,-0.01,0.77,0.63
6430,00:00:35.253,IMU7,0.54,0.19,9.83,0.0,0.0,0.0,17.94,-11.31,-18.19,0.03,-0.01,0.7,0.72
5575,00:00:35.255,IMU1,0.34,0.08,9.79,0.0,0.0,0.0,33.62,-17.25,-40.69,0.02,-0.01,0.79,0.61
5575,00:00:35.255,IMU2,0.24,0.11,9.76,0.0,0.0,0.0,27.0,-29.88,-44.69,0.01,-0.0,0.78,0.63
5575,00:00:35.255,IMU3,0.2,0.08,9.81,0.0,0.0,0.0,19.31,-19.88,-38.56,0.01,-0.01,0.79,0.61
5575,00:00:35.255,IMU4,0.27,0.1,9.88,0.0,0.0,0.0,5.88,-5.56,-20.56,0.02,-0.01,0.81,0.58
6431,00:00:35.257,IMU5,0.07,0.29,9.78,0.0,-0.0,-0.0,32.12,-13.88,-20.75,0.01,0.01,0.73,0.68
6431,00:00:35.257,IMU6,0.25,0.12,9.82,0.0,0.0,0.0,27.12,-13.38,-16.06,0.01,-0.01,0.77,0.63
6431,00:00:35.257,IMU7,0.54,0.19,9.83,0.0,0.0,0.0,17.94,-11.31,-18.19,0.03,-0.01,0.7,0.72
6432,00:00:35.263,IMU5,0.07,0.29,9.78,0.0,-0.0,-0.0,32.12,-13.88,-20.75,0.01,0.01,0.73,0.68
6432,00:00:35.263,IMU6,0.25,0.12,9.82,0.0,0.0,0.0,27.12,-13.38,-16.06,0.01,-0.01,0.77,0.63
6432,00:00:35.263,IMU7,0.54,0.19,9.83,0.0,0.0,0.0,17.94,-11.31,-18.19,0.03,-0.01,0.7,0.72
5576,00:00:35.263,IMU1,0.34,0.08,9.79,0.0,0.0,0.0,33.62,-17.25,-40.69,0.02,-0.01,0.79,0.61
5576,00:00:35.263,IMU2,0.24,0.11,9.76,0.0,0.0,0.0,27.0,-29.88,-44.69,0.01,-0.0,0.78,0.63
5576,00:00:35.263,IMU3,0.2,0.08,9.81,0.0,0.0,0.0,19.31,-19.88,-38.56,0.01,-0.01,0.79,0.61
5576,00:00:35.263,IMU4,0.27,0.1,9.88,0.0,0.0,0.0,5.88,-5.56,-20.56,0.02,-0.01,0.81,0.58
6433,00:00:35.266,IMU5,0.07,0.29,9.78,-0.0,0.0,-0.0,32.12,-13.88,-20.75,0.01,0.01,0.73,0.68
6433,00:00:35.266,IMU6,0.25,0.09,9.82,0.0,0.0,0.0,27.12,-13.38,-16.06,0.01,-0.01,0.77,0.63
6433,00:00:35.266,IMU7,0.54,0.19,9.83,0.0,0.0,0.0,17.94,-11.31,-18.19,0.03,-0.01,0.7,0.72
5577,00:00:35.267,IMU1,0.34,0.08,9.79,0.0,0.0,0.0,33.62,-17.25,-40.69,0.02,-0.01,0.79,0.61
5577,00:00:35.267,IMU2,0.24,0.11,9.76,0.0,0.0,0.0,27.0,-31.38,-45.19,0.01,-0.0,0.78,0.63
5577,00:00:35.267,IMU3,0.2,0.08,9.81,0.0,0.0,0.0,19.31,-19.88,-38.56,0.01,-0.01,0.79,0.61
5577,00:00:35.267,IMU4,0.27,0.1,9.88,0.0,0.0,0.0,5.88,-5.56,-20.56,0.02,-0.01,0.81,0.58
6434,00:00:35.271,IMU5,0.07,0.29,9.78,-0.0,0.0,-0.0,32.12,-13.88,-20.75,0.01,0.01,0.73,0.68
6434,00:00:35.271,IMU6,0.25,0.09,9.82,0.0,0.0,0.0,26.25,-12.38,-15.62,0.01,-0.01,0.77,0.63
6434,00:00:35.271,IMU7,0.54,0.19,9.83,0.0,0.0,0.0,17.94,-11.31,-18.19,0.03,-0.01,0.7,0.72
5578,00:00:35.272,IMU1,0.34,0.08,9.79,0.0,0.0,0.0,33.62,-17.25,-40.69,0.02,-0.01,0.79,0.61
5578,00:00:35.272,IMU2,0.24,0.11,9.76,0.0,0.0,0.0,27.0,-31.38,-45.19,0.01,-0.0,0.78,0.63
5578,00:00:35.272,IMU3,0.2,0.08,9.81,0.0,0.0,0.0,19.31,-19.88,-38.56,0.01,-0.01,0.79,0.61
5578,00:00:35.272,IMU4,0.27,0.02,9.76,0.0,0.0,0.0,5.88,-5.56,-20.56,0.02,-0.01,0.81,0.58
6435,00:00:35.276,IMU5,0.07,0.29,9.78,-0.0,0.0,0.0,32.12,-13.88,-20.75,0.01,0.01,0.73,0.68
6435,00:00:35.276,IMU6,0.25,0.09,9.82,0.0,0.0,0.0,26.25,-12.38,-15.62,0.01,-0.01,0.77,0.63
6435,00:00:35.276,IMU7,0.54,0.19,9.83,0.0,0.0,0.0,17.94,-11.31,-18.19,0.03,-0.01,0.7,0.72
5579,00:00:35.277,IMU1,0.34,0.08,9.79,0.0,0.0,0.0,33.62,-17.25,-40.69,0.02,-0.01,0.79,0.61
5579,00:00:35.277,IMU2,0.24,0.11,9.76,0.0,0.0,0.0,27.0,-31.38,-45.19,0.01,-0.0,0.78,0.63
5579,00:00:35.277,IMU3,0.2,0.08,9.81,0.0,0.0,0.0,19.31,-19.88,-38.56,0.01,-0.01,0.79,0.61
5579,00:00:35.277,IMU4,0.27,0.02,9.76,0.0,0.0,0.0,6.69,-5.31,-22.88,0.02,-0.01,0.81,0.58
6436,00:00:35.282,IMU5,0.07,0.29,9.78,-0.0,0.0,0.0,32.12,-13.88,-20.75,0.01,0.01,0.73,0.68
6436,00:00:35.282,IMU6,0.25,0.09,9.82,0.0,0.0,0.0,26.25,-12.38,-15.62,0.01,-0.01,0.77,0.63
6436,00:00:35.282,IMU7,0.54,0.19,9.83,0.0,0.0,0.0,17.94,-11.31,-18.19,0.03,-0.01,0.7,0.72
5580,00:00:35.282,IMU1,0.34,0.08,9.79,0.0,0.0,0.0,33.62,-17.25,-40.69,0.02,-0.01,0.79,0.61
5580,00:00:35.282,IMU2,0.24,0.11,9.76,0.0,0.0,0.0,27.0,-31.38,-45.19,0.01,-0.0,0.78,0.63
5580,00:00:35.282,IMU3,0.2,0.08,9.81,0.0,0.0,0.0,19.31,-19.88,-38.56,0.01,-0.01,0.79,0.61
5580,00:00:35.282,IMU4,0.27,0.02,9.76,0.0,0.0,0.0,6.69,-5.31,-22.88,0.02,-0.01,0.81,0.58
6437,00:00:35.285,IMU5,0.03,0.29,9.75,-0.0,0.0,0.0,32.12,-13.88,-20.75,0.01,0.01,0.73,0.68
6437,00:00:35.285,IMU6,0.25,0.09,9.82,0.0,0.0,0.0,26.25,-12.38,-15.62,0.01,-0.01,0.77,0.63
6437,00:00:35.285,IMU7,0.54,0.19,9.83,0.0,0.0,0.0,17.94,-11.31,-18.19,0.03,-0.01,0.7,0.72
6438,00:00:35.289,IMU5,0.03,0.29,9.75,-0.0,0.0,0.0,31.62,-15.0,-19.75,0.01,0.01,0.73,0.68
6438,00:00:35.289,IMU6,0.25,0.09,9.82,0.0,0.0,0.0,26.25,-12.38,-15.62,0.01,-0.01,0.77,0.63
6438,00:00:35.289,IMU7,0.5,0.15,9.79,0.0,0.0,0.0,17.94,-11.31,-18.19,0.03,-0.01,0.7,0.72
6439,00:00:35.293,IMU5,0.03,0.29,9.75,0.0,0.0,-0.0,31.62,-15.0,-19.75,0.01,0.01,0.73,0.68
6439,00:00:35.293,IMU6,0.25,0.09,9.82,0.0,0.0,0.0,26.25,-12.38,-15.62,0.01,-0.01,0.77,0.63
6439,00:00:35.293,IMU7,0.5,0.15,9.79,0.0,0.0,0.0,18.56,-11.31,-16.62,0.03,-0.01,0.7,0.72
5581,00:00:35.287,IMU1,0.34,0.08,9.79,0.0,0.0,0.0,33.62,-17.25,-40.69,0.02,-0.01,0.79,0.61
5581,00:00:35.287,IMU2,0.24,0.11,9.76,0.0,0.0,0.0,27.0,-31.38,-45.19,0.01,-0.0,0.78,0.63
5581,00:00:35.287,IMU3,0.24,0.05,9.81,0.0,0.0,0.0,19.31,-19.88,-38.56,0.01,-0.01,0.79,0.61
5581,00:00:35.287,IMU4,0.27,0.02,9.76,0.0,0.0,0.0,6.69,-5.31,-22.88,0.02,-0.01,0.82,0.57
5582,00:00:35.293,IMU1,0.34,0.08,9.79,0.0,0.0,0.0,33.62,-17.25,-40.69,0.02,-0.01,0.79,0.61
5582,00:00:35.293,IMU2,0.24,0.11,9.76,0.0,0.0,0.0,27.0,-31.38,-45.19,0.01,-0.0,0.78,0.63
5582,00:00:35.293,IMU3,0.24,0.05,9.81,0.0,0.0,0.0,19.75,-18.81,-36.88,0.01,-0.01,0.79,0.61
5582,00:00:35.293,IMU4,0.27,0.02,9.76,0.0,0.0,0.0,6.69,-5.31,-22.88,0.02,-0.01,0.82,0.57
5583,00:00:35.296,IMU1,0.34,0.08,9.79,0.0,0.0,0.0,33.62,-17.25,-40.69,0.02,-0.01,0.79,0.61
5583,00:00:35.296,IMU2,0.24,0.11,9.83,0.0,0.0,0.0,27.0,-31.38,-45.19,0.01,-0.0,0.78,0.63
5583,00:00:35.296,IMU3,0.24,0.05,9.81,0.0,0.0,0.0,19.75,-18.81,-36.88,0.01,-0.01,0.79,0.61
5583,00:00:35.296,IMU4,0.27,0.02,9.76,0.0,0.0,0.0,6.69,-5.31,-22.88,0.02,-0.01,0.82,0.57
6440,00:00:35.298,IMU5,0.03,0.29,9.75,0.0,0.0,-0.0,31.62,-15.0,-19.75,0.01,0.01,0.73,0.68
6440,00:00:35.298,IMU6,0.25,0.09,9.82,0.0,0.0,0.0,26.25,-12.38,-15.62,0.01,-0.01,0.77,0.63
6440,00:00:35.298,IMU7,0.5,0.15,9.79,0.0,0.0,0.0,18.56,-11.31,-16.62,0.03,-0.01,0.7,0.72
5584,00:00:35.301,IMU1,0.34,0.08,9.79,0.0,0.0,0.0,33.62,-17.25,-40.69,0.02,-0.01,0.79,0.61
5584,00:00:35.301,IMU2,0.24,0.11,9.83,0.0,0.0,0.0,27.75,-29.94,-45.06,0.01,-0.0,0.78,0.63
5584,00:00:35.301,IMU3,0.24,0.05,9.81,0.0,0.0,0.0,19.75,-18.81,-36.88,0.01,-0.01,0.79,0.61
5584,00:00:35.301,IMU4,0.27,0.02,9.76,0.0,0.0,0.0,6.69,-5.31,-22.88,0.02,-0.01,0.82,0.57
6441,00:00:35.302,IMU5,0.03,0.29,9.75,0.01,0.0,-0.0,31.62,-15.0,-19.75,0.01,0.01,0.73,0.68
6441,00:00:35.302,IMU6,0.25,0.09,9.82,0.0,0.0,0.0,26.25,-12.38,-15.62,0.01,-0.01,0.77,0.63
6441,00:00:35.302,IMU7,0.5,0.15,9.79,0.0,0.0,0.0,18.56,-11.31,-16.62,0.03,-0.01,0.7,0.72
5585,00:00:35.305,IMU1,0.3,-0.03,9.79,0.0,0.0,0.0,33.62,-17.25,-40.69,0.02,-0.01,0.79,0.61
5585,00:00:35.305,IMU2,0.24,0.11,9.83,0.0,0.0,0.0,27.75,-29.94,-45.06,0.01,-0.0,0.78,0.63
5585,00:00:35.305,IMU3,0.24,0.05,9.81,0.0,0.0,0.0,19.75,-18.81,-36.88,0.01,-0.01,0.79,0.61
5585,00:00:35.305,IMU4,0.27,0.02,9.76,0.0,0.0,0.0,6.69,-5.31,-22.88,0.02,-0.01,0.82,0.57
6442,00:00:35.307,IMU5,0.03,0.29,9.75,0.01,0.0,-0.0,31.62,-15.0,-19.75,0.01,0.01,0.73,0.68
6442,00:00:35.307,IMU6,0.25,0.09,9.82,0.0,0.0,0.0,26.25,-12.38,-15.62,0.01,-0.01,0.77,0.63
6442,00:00:35.307,IMU7,0.5,0.15,9.79,0.0,0.0,0.0,18.56,-11.31,-16.62,0.03,-0.01,0.7,0.72
6443,00:00:35.310,IMU5,0.03,0.29,9.75,0.0,0.0,0.0,31.62,-15.0,-19.75,0.01,0.01,0.73,0.68
6443,00:00:35.310,IMU6,0.29,0.12,9.78,0.0,0.0,0.0,26.25,-12.38,-15.62,0.01,-0.01,0.77,0.63
6443,00:00:35.310,IMU7,0.5,0.15,9.79,0.0,0.0,0.0,18.56,-11.31,-16.62,0.03,-0.01,0.7,0.72
5586,00:00:35.310,IMU1,0.3,-0.03,9.79,0.0,0.0,0.0,32.19,-17.44,-39.19,0.02,-0.01,0.79,0.61
5586,00:00:35.310,IMU2,0.24,0.11,9.83,0.0,0.0,0.0,27.75,-29.94,-45.06,0.01,-0.0,0.78,0.63
5586,00:00:35.310,IMU3,0.24,0.05,9.81,0.0,0.0,0.0,19.75,-18.81,-36.88,0.01,-0.01,0.79,0.61
5586,00:00:35.310,IMU4,0.27,0.02,9.76,0.0,0.0,0.0,6.69,-5.31,-22.88,0.02,-0.01,0.82,0.57
5587,00:00:35.314,IMU1,0.3,-0.03,9.79,0.0,0.0,0.0,32.19,-17.44,-39.19,0.02,-0.01,0.79,0.61
5587,00:00:35.314,IMU2,0.24,0.11,9.83,0.0,0.0,0.0,27.75,-29.94,-45.06,0.01,-0.0,0.78,0.63
5587,00:00:35.314,IMU3,0.24,0.05,9.81,0.0,0.0,0.0,19.75,-18.81,-36.88,0.01,-0.01,0.79,0.61
5587,00:00:35.314,IMU4,0.27,0.02,9.76,0.0,0.0,0.0,6.69,-5.31,-22.88,0.02,-0.01,0.82,0.57
5588,00:00:35.320,IMU1,0.3,-0.03,9.79,0.0,0.0,0.0,32.19,-17.44,-39.19,0.02,-0.01,0.79,0.61
5588,00:00:35.320,IMU2,0.24,0.11,9.83,0.0,0.0,0.0,27.75,-29.94,-45.06,0.01,-0.0,0.78,0.63
5588,00:00:35.320,IMU3,0.24,0.05,9.81,0.0,0.0,0.0,19.75,-18.81,-36.88,0.01,-0.01,0.79,0.61
5588,00:00:35.320,IMU4,0.27,0.1,9.8,0.0,0.0,0.0,6.69,-5.31,-22.88,0.02,-0.01,0.82,0.57
6444,00:00:35.314,IMU5,0.03,0.29,9.75,0.0,0.0,0.0,31.62,-15.0,-19.75,0.01,0.01,0.73,0.68
6444,00:00:35.314,IMU6,0.29,0.12,9.78,0.0,0.0,0.0,25.44,-13.06,-15.5,0.01,-0.01,0.77,0.63
6444,00:00:35.314,IMU7,0.5,0.15,9.79,0.0,0.0,0.0,18.56,-11.31,-16.62,0.03,-0.01,0.7,0.72
6445,00:00:35.320,IMU5,0.07,0.29,9.78,0.0,0.0,0.0,31.62,-15.0,-19.75,0.01,0.01,0.73,0.68
6445,00:00:35.320,IMU6,0.29,0.12,9.78,0.0,0.0,0.0,25.44,-13.06,-15.5,0.01,-0.01,0.77,0.63
6445,00:00:35.320,IMU7,0.5,0.15,9.79,0.0,0.0,0.0,18.56,-11.31,-16.62,0.03,-0.01,0.7,0.72
5589,00:00:35.328,IMU1,0.3,-0.03,9.79,0.0,0.0,0.0,32.19,-17.44,-39.19,0.02,-0.01,0.79,0.61
5589,00:00:35.328,IMU2,0.2,0.11,9.79,0.0,0.0,0.0,27.75,-29.94,-45.06,0.01,-0.0,0.78,0.63
5589,00:00:35.328,IMU3,0.2,0.12,9.81,0.0,0.0,0.0,19.75,-18.81,-36.88,0.01,-0.01,0.79,0.61
5589,00:00:35.328,IMU4,0.27,0.1,9.8,0.0,0.0,0.0,5.62,-6.0,-20.81,0.02,-0.01,0.82,0.57
5590,00:00:35.334,IMU1,0.3,-0.03,9.79,0.0,0.0,0.0,32.19,-17.44,-39.19,0.02,-0.01,0.79,0.61
5590,00:00:35.334,IMU2,0.2,0.11,9.79,0.0,0.0,0.0,27.75,-29.94,-45.06,0.01,-0.0,0.78,0.63
5590,00:00:35.334,IMU3,0.2,0.12,9.81,0.0,0.0,0.0,19.75,-18.81,-36.88,0.01,-0.01,0.79,0.61
5590,00:00:35.334,IMU4,0.27,0.1,9.8,0.0,0.0,0.0,5.62,-6.0,-20.81,0.02,-0.01,0.82,0.57
6446,00:00:35.327,IMU5,0.07,0.29,9.78,0.0,0.0,0.0,31.25,-15.44,-19.75,0.01,0.01,0.73,0.68
6446,00:00:35.327,IMU6,0.29,0.12,9.78,0.0,0.0,0.0,25.44,-13.06,-15.5,0.01,-0.01,0.77,0.63
6446,00:00:35.327,IMU7,0.5,0.15,9.79,0.0,0.0,0.0,18.56,-11.31,-16.62,0.03,-0.01,0.7,0.72
6447,00:00:35.330,IMU5,0.07,0.29,9.78,0.01,0.0,-0.0,31.25,-15.44,-19.75,0.01,0.01,0.73,0.68
6447,00:00:35.330,IMU6,0.29,0.12,9.78,0.0,0.0,0.0,25.44,-13.06,-15.5,0.01,-0.01,0.77,0.63
6447,00:00:35.330,IMU7,0.5,0.15,9.79,0.0,0.0,0.0,18.56,-11.31,-16.62,0.03,-0.01,0.7,0.72
6448,00:00:35.335,IMU5,0.07,0.29,9.78,0.01,0.0,-0.0,31.25,-15.44,-19.75,0.01,0.01,0.73,0.68
6448,00:00:35.335,IMU6,0.29,0.12,9.78,0.0,0.0,0.0,25.44,-13.06,-15.5,0.01,-0.01,0.77,0.63
6448,00:00:35.335,IMU7,0.54,0.15,9.79,0.0,0.0,0.0,18.56,-11.31,-16.62,0.03,-0.01,0.7,0.72
5591,00:00:35.338,IMU1,0.3,-0.03,9.79,0.0,0.0,0.0,32.19,-17.44,-39.19,0.02,-0.01,0.79,0.61
5591,00:00:35.338,IMU2,0.2,0.11,9.79,0.0,0.0,0.0,26.25,-29.75,-43.12,0.01,-0.0,0.78,0.63
5591,00:00:35.338,IMU3,0.2,0.12,9.81,0.0,0.0,0.0,19.0,-17.75,-36.94,0.01,-0.01,0.79,0.61
5591,00:00:35.338,IMU4,0.27,0.1,9.8,0.0,0.0,0.0,5.62,-6.0,-20.81,0.02,-0.01,0.82,0.57
6449,00:00:35.338,IMU5,0.07,0.29,9.78,0.0,0.0,-0.01,31.25,-15.44,-19.75,0.01,0.01,0.73,0.68
6449,00:00:35.338,IMU6,0.29,0.12,9.78,0.0,0.0,0.0,25.44,-13.06,-15.5,0.01,-0.01,0.77,0.63
6449,00:00:35.338,IMU7,0.54,0.15,9.79,0.0,0.0,0.0,18.31,-10.69,-18.62,0.03,-0.01,0.7,0.72
6450,00:00:35.342,IMU5,0.07,0.29,9.78,0.0,0.0,-0.01,31.25,-15.44,-19.75,0.01,0.01,0.73,0.68
6450,00:00:35.342,IMU6,0.29,0.12,9.78,0.0,0.0,0.0,25.44,-13.06,-15.5,0.01,-0.01,0.77,0.63
6450,00:00:35.342,IMU7,0.54,0.15,9.79,0.0,0.0,0.0,18.31,-10.69,-18.62,0.03,-0.01,0.7,0.72
5592,00:00:35.343,IMU1,0.3,-0.03,9.79,0.0,0.0,0.0,32.19,-17.44,-39.19,0.02,-0.01,0.79,0.61
5592,00:00:35.343,IMU2,0.2,0.11,9.79,0.0,0.0,0.0,26.25,-29.75,-43.12,0.01,-0.0,0.78,0.63
5592,00:00:35.343,IMU3,0.2,0.12,9.81,0.0,0.0,0.0,19.0,-17.75,-36.94,0.01,-0.01,0.79,0.61
5592,00:00:35.343,IMU4,0.27,0.1,9.8,0.0,0.0,0.0,5.62,-6.0,-20.81,0.02,-0.01,0.82,0.57
6451,00:00:35.347,IMU5,0.03,0.29,9.71,0.0,0.0,-0.01,31.25,-15.44,-19.75,0.01,0.01,0.73,0.68
6451,00:00:35.347,IMU6,0.29,0.12,9.78,0.0,0.0,0.0,25.44,-13.06,-15.5,0.01,-0.01,0.77,0.63
6451,00:00:35.347,IMU7,0.54,0.15,9.79,0.0,0.0,0.0,18.31,-10.69,-18.62,0.03,-0.01,0.7,0.72
6452,00:00:35.351,IMU5,0.03,0.29,9.71,0.0,0.0,-0.01,32.38,-14.69,-20.5,0.01,0.01,0.73,0.68
6452,00:00:35.351,IMU6,0.29,0.12,9.78,0.0,0.0,0.0,25.44,-13.06,-15.5,0.01,-0.01,0.77,0.63
6452,00:00:35.351,IMU7,0.54,0.15,9.79,0.0,0.0,0.0,18.31,-10.69,-18.62,0.03,-0.01,0.7,0.72
5593,00:00:35.349,IMU1,0.3,-0.03,9.79,0.0,0.0,0.0,32.19,-17.44,-39.19,0.02,-0.01,0.79,0.61
5593,00:00:35.349,IMU2,0.2,0.11,9.79,0.0,0.0,0.0,26.25,-29.75,-43.12,0.01,-0.0,0.78,0.63
5593,00:00:35.349,IMU3,0.2,0.12,9.81,0.0,0.0,0.0,19.0,-17.75,-36.94,0.01,-0.01,0.79,0.61
5593,00:00:35.349,IMU4,0.27,0.1,9.8,0.0,0.0,0.0,5.62,-6.0,-20.81,0.02,-0.01,0.82,0.57
6453,00:00:35.356,IMU5,0.03,0.29,9.71,-0.01,0.0,-0.01,32.38,-14.69,-20.5,0.01,0.01,0.73,0.68
6453,00:00:35.356,IMU6,0.29,0.12,9.78,0.0,0.0,0.0,25.44,-13.06,-15.5,0.01,-0.01,0.77,0.63
6453,00:00:35.356,IMU7,0.54,0.15,9.79,0.0,0.0,0.0,18.31,-10.69,-18.62,0.03,-0.01,0.7,0.72
5594,00:00:35.354,IMU1,0.3,-0.03,9.79,0.0,0.0,0.0,32.19,-17.44,-39.19,0.02,-0.01,0.79,0.61
5594,00:00:35.354,IMU2,0.2,0.11,9.79,0.0,0.0,0.0,26.25,-29.75,-43.12,0.01,-0.0,0.78,0.63
5594,00:00:35.354,IMU3,0.2,0.12,9.81,0.0,0.0,0.0,19.0,-17.75,-36.94,0.01,-0.01,0.79,0.61
5594,00:00:35.354,IMU4,0.27,0.1,9.8,0.0,0.0,0.0,5.62,-6.0,-20.81,0.02,-0.01,0.82,0.57
6454,00:00:35.362,IMU5,0.03,0.29,9.71,-0.01,0.0,-0.01,32.38,-14.69,-20.5,0.01,0.01,0.73,0.68
6454,00:00:35.362,IMU6,0.29,0.12,9.78,0.0,0.0,0.0,25.44,-13.06,-15.5,0.01,-0.01,0.77,0.63
6454,00:00:35.362,IMU7,0.5,0.15,9.75,0.0,0.0,0.0,18.31,-10.69,-18.62,0.03,-0.01,0.7,0.72
5595,00:00:35.358,IMU1,0.34,-0.03,9.83,0.0,0.0,0.0,32.19,-17.44,-39.19,0.02,-0.01,0.79,0.61
5595,00:00:35.358,IMU2,0.2,0.11,9.79,0.0,0.0,0.0,26.25,-29.75,-43.12,0.01,-0.0,0.78,0.63
5595,00:00:35.358,IMU3,0.2,0.12,9.81,0.0,0.0,0.0,19.0,-17.75,-36.94,0.01,-0.01,0.79,0.61
5595,00:00:35.358,IMU4,0.27,0.1,9.8,0.0,0.0,0.0,5.62,-6.0,-20.81,0.02,-0.01,0.82,0.57
5596,00:00:35.364,IMU1,0.34,-0.03,9.83,0.0,0.0,0.0,32.38,-17.19,-40.5,0.02,-0.01,0.79,0.61
5596,00:00:35.364,IMU2,0.2,0.11,9.79,0.0,0.0,0.0,26.25,-29.75,-43.12,0.01,-0.0,0.78,0.63
5596,00:00:35.364,IMU3,0.2,0.12,9.81,0.0,0.0,0.0,19.0,-17.75,-36.94,0.01,-0.01,0.79,0.61
5596,00:00:35.364,IMU4,0.27,0.1,9.8,0.0,0.0,0.0,5.62,-6.0,-20.81,0.02,-0.01,0.82,0.57
5597,00:00:35.367,IMU1,0.34,-0.03,9.83,0.0,0.0,0.0,32.38,-17.19,-40.5,0.02,-0.01,0.79,0.61
5597,00:00:35.367,IMU2,0.2,0.11,9.79,0.0,0.0,0.0,26.25,-29.75,-43.12,0.01,-0.0,0.78,0.63
5597,00:00:35.367,IMU3,0.2,0.12,9.81,0.0,0.0,0.0,19.0,-17.75,-36.94,0.01,-0.01,0.79,0.61
5597,00:00:35.367,IMU4,0.27,0.1,9.8,0.0,0.0,0.0,5.62,-6.0,-20.81,0.02,-0.01,0.82,0.57
5598,00:00:35.372,IMU1,0.34,-0.03,9.83,0.0,0.0,0.0,32.38,-17.19,-40.5,0.02,-0.01,0.79,0.61
5598,00:00:35.372,IMU2,0.2,0.11,9.79,0.0,0.0,0.0,26.25,-29.75,-43.12,0.01,-0.0,0.78,0.63
5598,00:00:35.372,IMU3,0.2,0.12,9.81,0.0,0.0,0.0,19.0,-17.75,-36.94,0.01,-0.01,0.79,0.61
5598,00:00:35.372,IMU4,0.31,0.06,9.84,0.0,0.0,0.0,5.62,-6.0,-20.81,0.02,-0.01,0.82,0.57
6455,00:00:35.365,IMU5,0.03,0.29,9.71,-0.0,0.0,0.0,32.38,-14.69,-20.5,0.01,0.01,0.73,0.68
6455,00:00:35.365,IMU6,0.25,0.09,9.82,0.0,0.0,0.0,25.44,-13.06,-15.5,0.01,-0.01,0.77,0.63
6455,00:00:35.365,IMU7,0.5,0.15,9.75,0.0,0.0,0.0,19.12,-11.38,-18.62,0.03,-0.01,0.7,0.72
6456,00:00:35.369,IMU5,0.03,0.29,9.71,-0.0,0.0,0.0,32.38,-14.69,-20.5,0.01,0.01,0.73,0.68
6456,00:00:35.369,IMU6,0.25,0.09,9.82,0.0,0.0,0.0,26.25,-12.06,-15.62,0.01,-0.01,0.77,0.63
6456,00:00:35.369,IMU7,0.5,0.15,9.75,0.0,0.0,0.0,19.12,-11.38,-18.62,0.03,-0.01,0.7,0.72
5599,00:00:35.379,IMU1,0.34,-0.03,9.83,0.0,0.0,0.0,32.38,-17.19,-40.5,0.02,-0.01,0.79,0.61
5599,00:00:35.379,IMU2,0.2,0.11,9.79,0.0,0.0,0.0,26.25,-29.75,-43.12,0.01,-0.0,0.78,0.63
5599,00:00:35.379,IMU3,0.2,0.05,9.8,0.0,0.0,0.0,19.0,-17.75,-36.94,0.01,-0.01,0.79,0.61
5599,00:00:35.379,IMU4,0.31,0.06,9.84,0.0,0.0,0.0,4.0,-5.38,-20.31,0.02,-0.01,0.82,0.57
6457,00:00:35.374,IMU5,0.03,0.29,9.71,-0.0,0.0,0.0,32.38,-14.69,-20.5,0.01,0.01,0.73,0.68
6457,00:00:35.374,IMU6,0.25,0.09,9.82,0.0,0.0,0.0,26.25,-12.06,-15.62,0.01,-0.01,0.77,0.63
6457,00:00:35.374,IMU7,0.5,0.15,9.75,0.0,0.0,0.0,19.12,-11.38,-18.62,0.03,-0.01,0.7,0.72
6458,00:00:35.379,IMU5,0.03,0.29,9.71,-0.0,0.0,0.0,32.38,-14.69,-20.5,0.01,0.01,0.73,0.68
6458,00:00:35.379,IMU6,0.25,0.09,9.82,0.0,0.0,0.0,26.25,-12.06,-15.62,0.01,-0.01,0.77,0.63
6458,00:00:35.379,IMU7,0.5,0.15,9.75,0.0,0.0,0.0,19.12,-11.38,-18.62,0.03,-0.01,0.7,0.72
6459,00:00:35.385,IMU5,0.07,0.25,9.74,-0.0,0.0,0.0,32.38,-14.69,-20.5,0.01,0.01,0.73,0.68
6459,00:00:35.385,IMU6,0.25,0.09,9.82,0.0,0.0,0.0,26.25,-12.06,-15.62,0.01,-0.01,0.77,0.63
6459,00:00:35.385,IMU7,0.5,0.15,9.75,0.0,0.0,0.0,19.12,-11.38,-18.62,0.03,-0.01,0.7,0.72
6460,00:00:35.391,IMU5,0.07,0.25,9.74,-0.0,0.0,0.0,30.94,-12.56,-19.19,0.01,0.01,0.73,0.68
6460,00:00:35.391,IMU6,0.25,0.09,9.82,0.0,0.0,0.0,26.25,-12.06,-15.62,0.01,-0.01,0.77,0.63
6460,00:00:35.391,IMU7,0.5,0.15,9.75,0.0,0.0,0.0,19.12,-11.38,-18.62,0.03,-0.01,0.7,0.72
6461,00:00:35.395,IMU5,0.07,0.25,9.74,-0.0,-0.0,-0.0,30.94,-12.56,-19.19,0.01,0.01,0.73,0.68
6461,00:00:35.395,IMU6,0.25,0.09,9.82,0.0,0.0,0.0,26.25,-12.06,-15.62,0.01,-0.01,0.77,0.63
6461,00:00:35.395,IMU7,0.5,0.15,9.75,0.0,0.0,0.0,19.12,-11.38,-18.62,0.03,-0.01,0.7,0.72
6462,00:00:35.402,IMU5,0.07,0.25,9.74,-0.0,-0.0,-0.0,30.94,-12.56,-19.19,0.01,0.01,0.73,0.68
6462,00:00:35.402,IMU6,0.25,0.09,9.82,0.0,0.0,0.0,26.25,-12.06,-15.62,0.01,-0.01,0.77,0.63
6462,00:00:35.402,IMU7,0.54,0.15,9.75,0.0,0.0,0.0,19.12,-11.38,-18.62,0.03,-0.01,0.7,0.72
6463,00:00:35.405,IMU5,0.07,0.25,9.74,0.0,-0.0,0.0,30.94,-12.56,-19.19,0.01,0.01,0.73,0.68
6463,00:00:35.405,IMU6,0.25,0.09,9.82,0.0,0.0,0.0,26.25,-12.06,-15.62,0.01,-0.01,0.77,0.63
6463,00:00:35.405,IMU7,0.54,0.15,9.75,0.0,0.0,0.0,19.12,-11.38,-18.62,0.03,-0.01,0.7,0.72
6464,00:00:35.408,IMU5,0.07,0.25,9.74,0.0,-0.0,0.0,30.94,-12.56,-19.19,0.01,0.01,0.73,0.68
6464,00:00:35.408,IMU6,0.25,0.09,9.82,0.0,0.0,0.0,26.25,-12.06,-15.62,0.01,-0.01,0.77,0.63
6464,00:00:35.408,IMU7,0.54,0.15,9.75,0.0,0.0,0.0,20.25,-10.38,-18.31,0.03,-0.01,0.7,0.72
6465,00:00:35.414,IMU5,0.07,0.25,9.74,0.0,-0.0,0.01,30.94,-12.56,-19.19,0.01,0.01,0.73,0.68
6465,00:00:35.414,IMU6,0.25,0.09,9.82,0.0,0.0,0.0,26.25,-12.06,-15.62,0.01,-0.01,0.77,0.63
6465,00:00:35.414,IMU7,0.54,0.15,9.75,0.0,0.0,0.0,20.25,-10.38,-18.31,0.03,-0.01,0.7,0.72
6466,00:00:35.423,IMU5,0.07,0.25,9.74,0.0,-0.0,0.01,30.94,-12.56,-19.19,0.01,0.01,0.73,0.68
6466,00:00:35.423,IMU6,0.25,0.09,9.82,0.0,0.0,0.0,26.25,-12.06,-15.62,0.01,-0.01,0.77,0.63
6466,00:00:35.423,IMU7,0.54,0.15,9.75,0.0,0.0,0.0,20.25,-10.38,-18.31,0.03,-0.01,0.7,0.72
6467,00:00:35.426,IMU5,0.07,0.29,9.7,0.0,-0.0,0.01,30.94,-12.56,-19.19,0.01,0.01,0.73,0.68
6467,00:00:35.426,IMU6,0.29,0.12,9.78,0.0,0.0,0.0,26.25,-12.06,-15.62,0.01,-0.01,0.77,0.63
6467,00:00:35.426,IMU7,0.54,0.15,9.75,0.0,0.0,0.0,20.25,-10.38,-18.31,0.03,-0.01,0.7,0.72
6468,00:00:35.434,IMU5,0.07,0.29,9.7,0.0,-0.0,0.01,33.38,-14.5,-19.12,0.01,0.01,0.73,0.68
6468,00:00:35.434,IMU6,0.29,0.12,9.78,0.0,0.0,0.0,25.88,-12.38,-16.0,0.01,-0.01,0.77,0.63
6468,00:00:35.434,IMU7,0.57,0.19,9.87,0.0,0.0,0.0,20.25,-10.38,-18.31,0.03,-0.01,0.7,0.72
5600,00:00:35.388,IMU1,0.34,-0.03,9.83,0.0,0.0,0.0,32.38,-17.19,-40.5,0.02,-0.01,0.79,0.61
5600,00:00:35.388,IMU2,0.2,0.11,9.79,0.0,0.0,0.0,26.25,-29.75,-43.12,0.01,-0.0,0.78,0.63
5600,00:00:35.388,IMU3,0.2,0.05,9.8,0.0,0.0,0.0,19.0,-17.75,-36.94,0.01,-0.01,0.79,0.61
5600,00:00:35.388,IMU4,0.31,0.06,9.84,0.0,0.0,0.0,4.0,-5.38,-20.31,0.02,-0.01,0.82,0.57
5601,00:00:35.391,IMU1,0.34,-0.03,9.83,0.0,0.0,0.0,32.38,-17.19,-40.5,0.02,-0.01,0.79,0.61
5601,00:00:35.391,IMU2,0.2,0.11,9.79,0.0,0.0,0.0,26.25,-29.75,-43.12,0.01,-0.0,0.78,0.63
5601,00:00:35.391,IMU3,0.2,0.05,9.8,0.0,0.0,0.0,18.19,-17.75,-37.88,0.01,-0.01,0.79,0.61
5601,00:00:35.391,IMU4,0.31,0.06,9.84,0.0,0.0,0.0,4.0,-5.38,-20.31,0.02,-0.01,0.82,0.57
5602,00:00:35.397,IMU1,0.34,-0.03,9.83,0.0,0.0,0.0,32.38,-17.19,-40.5,0.02,-0.01,0.79,0.61
5602,00:00:35.397,IMU2,0.2,0.11,9.79,0.0,0.0,0.0,26.25,-29.75,-43.12,0.01,-0.0,0.78,0.63
5602,00:00:35.397,IMU3,0.2,0.05,9.8,0.0,0.0,0.0,18.19,-17.75,-37.88,0.01,-0.01,0.79,0.61
5602,00:00:35.397,IMU4,0.31,0.06,9.84,0.0,0.0,0.0,4.0,-5.38,-20.31,0.02,-0.01,0.82,0.57
5603,00:00:35.401,IMU1,0.34,-0.03,9.83,0.0,0.0,0.0,32.38,-17.19,-40.5,0.02,-0.01,0.79,0.61
5603,00:00:35.401,IMU2,0.2,0.11,9.79,0.0,0.0,0.0,26.25,-29.75,-43.12,0.01,-0.0,0.78,0.63
5603,00:00:35.401,IMU3,0.2,0.05,9.8,0.0,0.0,0.0,18.19,-17.75,-37.88,0.01,-0.01,0.79,0.61
5603,00:00:35.401,IMU4,0.31,0.06,9.84,0.0,0.0,0.0,4.0,-5.38,-20.31,0.02,-0.01,0.82,0.57
5604,00:00:35.409,IMU1,0.34,-0.03,9.83,0.0,0.0,0.0,32.38,-17.19,-40.5,0.02,-0.01,0.79,0.61
5604,00:00:35.409,IMU2,0.2,0.11,9.79,0.0,0.0,0.0,26.25,-29.75,-43.12,0.01,-0.0,0.78,0.63
5604,00:00:35.409,IMU3,0.2,0.05,9.8,0.0,0.0,0.0,18.19,-17.75,-37.88,0.01,-0.01,0.79,0.61
5604,00:00:35.409,IMU4,0.31,0.1,9.88,0.0,0.0,0.0,4.0,-5.38,-20.31,0.02,-0.01,0.82,0.57
5605,00:00:35.413,IMU1,0.3,0.08,9.83,0.0,0.0,0.0,32.38,-17.19,-40.5,0.02,-0.01,0.79,0.61
5605,00:00:35.413,IMU2,0.24,0.11,9.83,0.0,0.0,0.0,26.25,-29.75,-43.12,0.01,-0.0,0.78,0.63
5605,00:00:35.413,IMU3,0.2,0.05,9.8,0.0,0.0,0.0,18.19,-17.75,-37.88,0.01,-0.01,0.79,0.61
5605,00:00:35.413,IMU4,0.31,0.1,9.88,0.0,0.0,0.0,4.0,-5.38,-20.31,0.02,-0.01,0.82,0.57
5606,00:00:35.416,IMU1,0.3,0.08,9.83,0.0,0.0,0.0,32.12,-16.25,-39.12,0.02,-0.01,0.79,0.61
5606,00:00:35.416,IMU2,0.24,0.11,9.83,0.0,0.0,0.0,26.25,-29.75,-43.12,0.01,-0.0,0.78,0.63
5606,00:00:35.416,IMU3,0.2,0.05,9.8,0.0,0.0,0.0,18.19,-17.75,-37.88,0.01,-0.01,0.79,0.61
5606,00:00:35.416,IMU4,0.31,0.1,9.88,0.0,0.0,0.0,7.0,-4.88,-22.69,0.02,-0.01,0.82,0.57
5607,00:00:35.423,IMU1,0.3,0.08,9.83,0.0,0.0,0.0,32.12,-16.25,-39.12,0.02,-0.01,0.79,0.61
5607,00:00:35.423,IMU2,0.24,0.11,9.83,0.0,0.0,0.0,27.75,-30.94,-43.94,0.01,-0.0,0.78,0.63
5607,00:00:35.423,IMU3,0.2,0.05,9.8,0.0,0.0,0.0,18.19,-17.75,-37.88,0.01,-0.01,0.79,0.61
5607,00:00:35.423,IMU4,0.31,0.1,9.88,0.0,0.0,0.0,7.0,-4.88,-22.69,0.02,-0.01,0.83,0.56
5608,00:00:35.429,IMU1,0.3,0.08,9.83,0.0,0.0,0.0,32.12,-16.25,-39.12,0.02,-0.01,0.79,0.61
5608,00:00:35.429,IMU2,0.24,0.11,9.83,0.0,0.0,0.0,27.75,-30.94,-43.94,0.01,-0.0,0.78,0.63
5608,00:00:35.429,IMU3,0.2,0.05,9.8,0.0,0.0,0.0,18.19,-17.75,-37.88,0.01,-0.01,0.79,0.61
5608,00:00:35.429,IMU4,0.31,0.1,9.88,0.0,0.0,0.0,7.0,-4.88,-22.69,0.02,-0.01,0.83,0.56
5609,00:00:35.434,IMU1,0.34,0.04,9.67,0.0,0.0,0.0,32.12,-16.25,-39.12,0.02,-0.01,0.79,0.61
5609,00:00:35.434,IMU2,0.24,0.11,9.83,0.0,0.0,0.0,27.75,-30.94,-43.94,0.01,-0.0,0.78,0.63
5609,00:00:35.434,IMU3,0.2,0.05,9.8,0.0,0.0,0.0,18.19,-17.75,-37.88,0.01,-0.01,0.79,0.61
5609,00:00:35.434,IMU4,0.31,0.1,9.88,0.0,0.0,0.0,7.0,-4.88,-22.69,0.02,-0.01,0.83,0.56
6469,00:00:35.437,IMU5,0.07,0.29,9.7,-0.0,0.0,0.0,33.38,-14.5,-19.12,0.01,0.01,0.73,0.68
6469,00:00:35.437,IMU6,0.29,0.12,9.78,0.0,0.0,0.0,25.88,-12.38,-16.0,0.01,-0.01,0.77,0.63
6469,00:00:35.437,IMU7,0.57,0.19,9.87,0.0,0.0,0.0,20.25,-10.38,-18.31,0.03,-0.01,0.7,0.72
6470,00:00:35.440,IMU5,0.07,0.29,9.7,-0.0,0.0,0.0,33.38,-14.5,-19.12,0.01,0.01,0.73,0.68
6470,00:00:35.440,IMU6,0.29,0.12,9.78,0.0,0.0,0.0,25.88,-12.38,-16.0,0.01,-0.01,0.77,0.63
6470,00:00:35.440,IMU7,0.57,0.19,9.87,0.0,0.0,0.0,18.31,-10.0,-19.0,0.03,-0.01,0.7,0.72
5610,00:00:35.440,IMU1,0.34,0.04,9.67,0.0,0.0,0.0,32.12,-16.25,-39.12,0.02,-0.01,0.79,0.61
5610,00:00:35.440,IMU2,0.24,0.11,9.83,0.0,0.0,0.0,27.75,-30.94,-43.94,0.01,-0.0,0.78,0.63
5610,00:00:35.440,IMU3,0.2,0.05,9.8,0.0,0.0,0.0,18.19,-17.75,-37.88,0.01,-0.01,0.79,0.61
5610,00:00:35.440,IMU4,0.31,0.1,9.88,0.0,0.0,0.0,7.0,-4.88,-22.69,0.02,-0.01,0.83,0.56
5611,00:00:35.444,IMU1,0.34,0.04,9.67,0.0,0.0,0.0,31.94,-15.62,-39.88,0.02,-0.01,0.79,0.61
5611,00:00:35.444,IMU2,0.24,0.11,9.83,0.0,0.0,0.0,27.75,-30.94,-43.94,0.01,-0.0,0.78,0.63
5611,00:00:35.444,IMU3,0.2,0.05,9.8,0.0,0.0,0.0,18.19,-17.75,-37.88,0.01,-0.01,0.79,0.61
5611,00:00:35.444,IMU4,0.31,0.1,9.88,0.0,0.0,0.0,7.0,-4.88,-22.69,0.02,-0.01,0.83,0.56
6471,00:00:35.446,IMU5,0.07,0.29,9.7,0.0,-0.0,0.01,33.38,-14.5,-19.12,0.01,0.01,0.73,0.68
6471,00:00:35.446,IMU6,0.29,0.12,9.78,0.0,0.0,0.0,25.88,-12.38,-16.0,0.01,-0.01,0.77,0.63
6471,00:00:35.446,IMU7,0.57,0.19,9.87,0.0,0.0,0.0,18.31,-10.0,-19.0,0.03,-0.01,0.7,0.72
5612,00:00:35.450,IMU1,0.34,0.04,9.67,0.0,0.0,0.0,31.94,-15.62,-39.88,0.02,-0.01,0.79,0.61
5612,00:00:35.450,IMU2,0.24,0.11,9.83,0.0,0.0,0.0,27.75,-30.94,-43.94,0.01,-0.0,0.78,0.63
5612,00:00:35.450,IMU3,0.2,0.05,9.8,0.0,0.0,0.0,18.19,-17.75,-37.88,0.01,-0.01,0.79,0.61
5612,00:00:35.450,IMU4,0.31,0.1,9.88,0.0,0.0,0.0,7.0,-4.88,-22.69,0.02,-0.01,0.83,0.56
5613,00:00:35.454,IMU1,0.34,0.04,9.67,0.0,0.0,0.0,31.94,-15.62,-39.88,0.02,-0.01,0.79,0.61
5613,00:00:35.454,IMU2,0.24,0.11,9.83,0.0,0.0,0.0,27.75,-30.94,-43.94,0.01,-0.0,0.78,0.63
5613,00:00:35.454,IMU3,0.2,0.05,9.8,0.0,0.0,0.0,18.19,-17.75,-37.88,0.01,-0.01,0.79,0.61
5613,00:00:35.454,IMU4,0.31,0.1,9.88,0.0,0.0,0.0,7.0,-4.88,-22.69,0.02,-0.01,0.83,0.56
6472,00:00:35.453,IMU5,0.07,0.29,9.7,0.0,-0.0,0.01,33.38,-14.5,-19.12,0.01,0.01,0.73,0.68
6472,00:00:35.453,IMU6,0.29,0.12,9.78,0.0,0.0,0.0,25.88,-12.38,-16.0,0.01,-0.01,0.77,0.63
6472,00:00:35.453,IMU7,0.57,0.19,9.87,0.0,0.0,0.0,18.31,-10.0,-19.0,0.03,-0.01,0.7,0.72
6473,00:00:35.456,IMU5,0.07,0.29,9.7,0.0,-0.0,0.0,33.38,-14.5,-19.12,0.01,0.01,0.73,0.68
6473,00:00:35.456,IMU6,0.29,0.12,9.78,0.0,0.0,0.0,25.88,-12.38,-16.0,0.01,-0.01,0.77,0.63
6473,00:00:35.456,IMU7,0.57,0.19,9.87,0.0,0.0,0.0,18.31,-10.0,-19.0,0.03,-0.01,0.7,0.72
6474,00:00:35.461,IMU5,0.07,0.29,9.7,0.0,-0.0,0.0,33.38,-14.5,-19.12,0.01,0.01,0.73,0.68
6474,00:00:35.461,IMU6,0.29,0.12,9.78,0.0,0.0,0.0,25.88,-12.38,-16.0,0.01,-0.01,0.77,0.63
6474,00:00:35.461,IMU7,0.57,0.19,9.87,0.0,0.0,0.0,18.31,-10.0,-19.0,0.03,-0.01,0.7,0.72
5614,00:00:35.458,IMU1,0.34,0.04,9.67,0.0,0.0,0.0,31.94,-15.62,-39.88,0.02,-0.01,0.79,0.61
5614,00:00:35.458,IMU2,0.24,0.11,9.83,0.0,0.0,0.0,27.75,-30.94,-43.94,0.01,-0.0,0.78,0.63
5614,00:00:35.458,IMU3,0.2,0.05,9.8,0.0,0.0,0.0,18.19,-17.75,-37.88,0.01,-0.01,0.79,0.61
5614,00:00:35.458,IMU4,0.31,0.1,9.88,0.0,0.0,0.0,7.0,-4.88,-22.69,0.02,-0.01,0.83,0.56
5615,00:00:35.464,IMU1,0.34,0.04,9.67,0.0,0.0,0.0,31.94,-15.62,-39.88,0.02,-0.01,0.79,0.61
5615,00:00:35.464,IMU2,0.24,0.11,9.83,0.0,0.0,0.0,27.75,-30.94,-43.94,0.01,-0.0,0.78,0.63
5615,00:00:35.464,IMU3,0.2,0.05,9.8,0.0,0.0,0.0,18.19,-17.75,-37.88,0.01,-0.01,0.79,0.61
5615,00:00:35.464,IMU4,0.31,0.1,9.88,0.0,0.0,0.0,7.0,-4.88,-22.69,0.02,-0.01,0.83,0.56
6475,00:00:35.466,IMU5,0.07,0.29,9.7,0.0,-0.0,0.0,33.38,-14.5,-19.12,0.01,0.01,0.73,0.68
6475,00:00:35.466,IMU6,0.25,0.09,9.82,0.0,0.0,0.0,25.88,-12.38,-16.0,0.01,-0.01,0.77,0.63
6475,00:00:35.466,IMU7,0.57,0.19,9.87,0.0,0.0,0.0,18.31,-10.0,-19.0,0.03,-0.01,0.7,0.72
5616,00:00:35.470,IMU1,0.34,0.04,9.67,0.0,0.0,0.0,31.94,-15.62,-39.88,0.02,-0.01,0.79,0.61
5616,00:00:35.470,IMU2,0.24,0.11,9.83,0.0,0.0,0.0,27.75,-30.94,-43.94,0.01,-0.0,0.78,0.63
5616,00:00:35.470,IMU3,0.2,0.05,9.8,0.0,0.0,0.0,19.69,-18.75,-38.19,0.01,-0.01,0.79,0.61
5616,00:00:35.470,IMU4,0.35,0.06,9.84,0.0,0.0,0.0,7.0,-4.88,-22.69,0.02,-0.01,0.83,0.56
5617,00:00:35.474,IMU1,0.34,0.04,9.67,0.0,0.0,0.0,31.94,-15.62,-39.88,0.02,-0.01,0.79,0.61
5617,00:00:35.474,IMU2,0.24,0.11,9.83,0.0,0.0,0.0,27.75,-30.94,-43.94,0.01,-0.0,0.78,0.63
5617,00:00:35.474,IMU3,0.2,0.05,9.8,0.0,0.0,0.0,19.69,-18.75,-38.19,0.01,-0.01,0.79,0.61
5617,00:00:35.474,IMU4,0.35,0.06,9.84,0.0,0.0,0.0,4.25,-5.81,-21.44,0.02,-0.01,0.83,0.56
5618,00:00:35.478,IMU1,0.34,0.04,9.67,0.0,0.0,0.0,31.94,-15.62,-39.88,0.02,-0.01,0.79,0.61
5618,00:00:35.478,IMU2,0.24,0.11,9.83,0.0,0.0,0.0,27.75,-30.94,-43.94,0.01,-0.0,0.78,0.63
5618,00:00:35.478,IMU3,0.2,0.05,9.8,0.0,0.0,0.0,19.69,-18.75,-38.19,0.01,-0.01,0.79,0.61
5618,00:00:35.478,IMU4,0.35,0.06,9.84,0.0,0.0,0.0,4.25,-5.81,-21.44,0.02,-0.01,0.83,0.56
5619,00:00:35.484,IMU1,0.34,0.04,9.67,0.0,0.0,0.0,31.94,-15.62,-39.88,0.02,-0.01,0.79,0.61
5619,00:00:35.484,IMU2,0.24,0.11,9.76,0.0,0.0,0.0,27.75,-30.94,-43.94,0.01,-0.0,0.78,0.63
5619,00:00:35.484,IMU3,0.2,0.05,9.8,0.0,0.0,0.0,19.69,-18.75,-38.19,0.01,-0.01,0.79,0.61
5619,00:00:35.484,IMU4,0.35,0.06,9.84,0.0,0.0,0.0,4.25,-5.81,-21.44,0.02,-0.01,0.83,0.56
5620,00:00:35.490,IMU1,0.34,0.04,9.67,0.0,0.0,0.0,31.94,-15.62,-39.88,0.02,-0.01,0.79,0.61
5620,00:00:35.490,IMU2,0.24,0.11,9.76,0.0,0.0,0.0,29.25,-31.12,-46.38,0.01,-0.0,0.78,0.63
5620,00:00:35.490,IMU3,0.2,0.05,9.8,0.0,0.0,0.0,19.69,-18.75,-38.19,0.01,-0.01,0.79,0.61
5620,00:00:35.490,IMU4,0.35,0.06,9.84,0.0,0.0,0.0,4.25,-5.81,-21.44,0.02,-0.01,0.83,0.56
5621,00:00:35.493,IMU1,0.34,0.01,9.83,0.0,0.0,0.0,31.94,-15.62,-39.88,0.02,-0.01,0.79,0.61
5621,00:00:35.493,IMU2,0.24,0.11,9.76,0.0,0.0,0.0,29.25,-31.12,-46.38,0.01,-0.0,0.78,0.63
5621,00:00:35.493,IMU3,0.2,0.05,9.8,0.0,0.0,0.0,19.69,-18.75,-38.19,0.01,-0.01,0.79,0.61
5621,00:00:35.493,IMU4,0.35,0.06,9.84,0.0,0.0,0.0,4.25,-5.81,-21.44,0.02,-0.01,0.83,0.56
5622,00:00:35.498,IMU1,0.34,0.01,9.83,0.0,0.0,0.0,31.25,-16.81,-38.12,0.02,-0.01,0.79,0.61
5622,00:00:35.498,IMU2,0.24,0.11,9.76,0.0,0.0,0.0,29.25,-31.12,-46.38,0.01,-0.0,0.78,0.63
5622,00:00:35.498,IMU3,0.2,0.05,9.8,0.0,0.0,0.0,19.69,-18.75,-38.19,0.01,-0.01,0.79,0.61
5622,00:00:35.498,IMU4,0.35,0.06,9.84,0.0,0.0,0.0,4.25,-5.81,-21.44,0.02,-0.01,0.83,0.56
5623,00:00:35.502,IMU1,0.34,0.01,9.83,0.0,0.0,0.0,31.25,-16.81,-38.12,0.02,-0.01,0.79,0.61
5623,00:00:35.502,IMU2,0.24,0.11,9.76,0.0,0.0,0.0,29.25,-31.12,-46.38,0.01,-0.0,0.78,0.63
5623,00:00:35.502,IMU3,0.2,0.05,9.8,0.0,0.0,0.0,19.69,-18.75,-38.19,0.01,-0.01,0.79,0.61
5623,00:00:35.502,IMU4,0.35,0.06,9.84,0.0,0.0,0.0,4.25,-5.81,-21.44,0.02,-0.01,0.83,0.56
5624,00:00:35.509,IMU1,0.34,0.01,9.83,0.0,0.0,0.0,31.25,-16.81,-38.12,0.02,-0.01,0.79,0.61
5624,00:00:35.509,IMU2,0.24,0.11,9.76,0.0,0.0,0.0,29.25,-31.12,-46.38,0.01,-0.0,0.78,0.63
5624,00:00:35.509,IMU3,0.2,0.05,9.8,0.0,0.0,0.0,19.69,-18.75,-38.19,0.01,-0.01,0.79,0.61
5624,00:00:35.509,IMU4,0.27,0.1,9.8,0.0,0.0,0.0,4.25,-5.81,-21.44,0.02,-0.01,0.83,0.56
5625,00:00:35.512,IMU1,0.34,0.01,9.83,0.0,0.0,0.0,31.25,-16.81,-38.12,0.02,-0.01,0.79,0.61
5625,00:00:35.512,IMU2,0.24,0.11,9.76,0.0,0.0,0.0,29.25,-31.12,-46.38,0.01,-0.0,0.78,0.63
5625,00:00:35.512,IMU3,0.2,0.08,9.81,0.0,0.0,0.0,19.69,-18.75,-38.19,0.01,-0.01,0.79,0.61
5625,00:00:35.512,IMU4,0.27,0.1,9.8,0.0,0.0,0.0,5.19,-5.62,-21.56,0.02,-0.01,0.83,0.56
5626,00:00:35.519,IMU1,0.34,0.01,9.83,0.0,0.0,0.0,31.25,-16.81,-38.12,0.02,-0.01,0.79,0.61
5626,00:00:35.519,IMU2,0.24,0.11,9.76,0.0,0.0,0.0,29.25,-31.12,-46.38,0.01,-0.0,0.78,0.63
5626,00:00:35.519,IMU3,0.2,0.08,9.81,0.0,0.0,0.0,21.5,-18.0,-39.0,0.01,-0.01,0.79,0.61
5626,00:00:35.519,IMU4,0.27,0.1,9.8,0.0,0.0,0.0,5.19,-5.62,-21.56,0.02,-0.01,0.83,0.56
6476,00:00:35.471,IMU5,0.07,0.29,9.7,0.0,-0.0,0.0,33.38,-14.5,-19.12,0.01,0.01,0.73,0.68
6476,00:00:35.471,IMU6,0.25,0.09,9.82,0.0,0.0,0.0,25.88,-12.38,-16.0,0.01,-0.01,0.77,0.63
6476,00:00:35.471,IMU7,0.57,0.19,9.87,0.0,0.0,0.0,18.31,-10.0,-19.0,0.03,-0.01,0.7,0.72
6477,00:00:35.474,IMU5,0.07,0.29,9.7,0.0,0.0,0.0,33.38,-14.5,-19.12,0.01,0.01,0.73,0.68
6477,00:00:35.474,IMU6,0.25,0.09,9.82,0.0,0.0,0.0,26.69,-12.38,-16.06,0.01,-0.01,0.77,0.63
6477,00:00:35.474,IMU7,0.57,0.19,9.87,0.0,0.0,0.0,18.31,-10.0,-19.0,0.03,-0.01,0.7,0.72
6478,00:00:35.480,IMU5,0.07,0.29,9.7,0.0,0.0,0.0,33.38,-14.5,-19.12,0.01,0.01,0.73,0.68
6478,00:00:35.480,IMU6,0.25,0.09,9.82,0.0,0.0,0.0,26.69,-12.38,-16.06,0.01,-0.01,0.77,0.63
6478,00:00:35.480,IMU7,0.5,0.15,9.79,0.0,0.0,0.0,18.31,-10.0,-19.0,0.03,-0.01,0.7,0.72
6479,00:00:35.484,IMU5,0.07,0.29,9.7,0.0,0.0,0.0,33.38,-14.5,-19.12,0.01,0.01,0.73,0.68
6479,00:00:35.484,IMU6,0.25,0.09,9.82,0.0,0.0,0.0,26.69,-12.38,-16.06,0.01,-0.01,0.77,0.63
6479,00:00:35.484,IMU7,0.5,0.15,9.79,0.0,0.0,0.0,17.12,-11.31,-18.12,0.03,-0.01,0.7,0.72
6480,00:00:35.488,IMU5,0.07,0.29,9.7,0.0,0.0,0.0,33.38,-14.5,-19.12,0.01,0.01,0.73,0.68
6480,00:00:35.488,IMU6,0.25,0.09,9.82,0.0,0.0,0.0,26.69,-12.38,-16.06,0.01,-0.01,0.77,0.63
6480,00:00:35.488,IMU7,0.5,0.15,9.79,0.0,0.0,0.0,17.12,-11.31,-18.12,0.03,-0.01,0.7,0.72
6481,00:00:35.492,IMU5,0.07,0.29,9.82,0.0,0.0,0.0,33.38,-14.5,-19.12,0.01,0.01,0.73,0.68
6481,00:00:35.492,IMU6,0.25,0.09,9.82,0.0,0.0,0.0,26.69,-12.38,-16.06,0.01,-0.01,0.77,0.63
6481,00:00:35.492,IMU7,0.5,0.15,9.79,0.0,0.0,0.0,17.12,-11.31,-18.12,0.03,-0.01,0.7,0.72
6482,00:00:35.499,IMU5,0.07,0.29,9.82,0.0,0.0,0.0,32.0,-15.44,-20.12,0.01,0.01,0.73,0.68
6482,00:00:35.499,IMU6,0.25,0.09,9.82,0.0,0.0,0.0,26.69,-12.38,-16.06,0.01,-0.01,0.77,0.63
6482,00:00:35.499,IMU7,0.5,0.15,9.79,0.0,0.0,0.0,17.12,-11.31,-18.12,0.03,-0.01,0.7,0.72
6483,00:00:35.502,IMU5,0.07,0.29,9.82,0.01,0.0,-0.0,32.0,-15.44,-20.12,0.01,0.01,0.73,0.68
6483,00:00:35.502,IMU6,0.25,0.09,9.82,0.0,0.0,0.0,26.69,-12.38,-16.06,0.01,-0.01,0.77,0.63
6483,00:00:35.502,IMU7,0.5,0.15,9.79,0.0,0.0,0.0,17.12,-11.31,-18.12,0.03,-0.01,0.7,0.72
6484,00:00:35.507,IMU5,0.07,0.29,9.82,0.01,0.0,-0.0,32.0,-15.44,-20.12,0.01,0.01,0.73,0.68
6484,00:00:35.507,IMU6,0.25,0.09,9.82,0.0,0.0,0.0,26.69,-12.38,-16.06,0.01,-0.01,0.77,0.63
6484,00:00:35.507,IMU7,0.5,0.15,9.79,0.0,0.0,0.0,17.12,-11.31,-18.12,0.03,-0.01,0.7,0.72
6485,00:00:35.512,IMU5,0.07,0.29,9.82,-0.0,-0.0,-0.0,32.0,-15.44,-20.12,0.01,0.01,0.73,0.68
6485,00:00:35.512,IMU6,0.22,0.09,9.78,0.0,0.0,0.0,26.69,-12.38,-16.06,0.01,-0.01,0.77,0.63
6485,00:00:35.512,IMU7,0.5,0.15,9.79,0.0,0.0,0.0,17.12,-11.31,-18.12,0.03,-0.01,0.7,0.72
6486,00:00:35.520,IMU5,0.07,0.29,9.82,-0.0,-0.0,-0.0,32.0,-15.44,-20.12,0.01,0.01,0.73,0.68
6486,00:00:35.520,IMU6,0.22,0.09,9.78,0.0,0.0,0.0,26.69,-12.38,-16.06,0.01,-0.01,0.77,0.63
6486,00:00:35.520,IMU7,0.5,0.15,9.79,0.0,0.0,0.0,17.12,-11.31,-18.12,0.03,-0.01,0.7,0.72
6487,00:00:35.523,IMU5,0.07,0.29,9.82,0.01,0.0,-0.0,32.0,-15.44,-20.12,0.01,0.01,0.73,0.68
6487,00:00:35.523,IMU6,0.22,0.09,9.78,0.0,0.0,0.0,26.75,-13.0,-16.5,0.01,-0.01,0.77,0.63
6487,00:00:35.523,IMU7,0.5,0.15,9.79,0.0,0.0,0.0,17.12,-11.31,-18.12,0.03,-0.01,0.7,0.72
5627,00:00:35.525,IMU1,0.34,-0.03,9.83,0.0,0.0,0.0,31.25,-16.81,-38.12,0.02,-0.01,0.79,0.61
5627,00:00:35.525,IMU2,0.24,0.11,9.76,0.0,0.0,0.0,29.25,-31.12,-46.38,0.01,-0.0,0.78,0.63
5627,00:00:35.525,IMU3,0.2,0.08,9.81,0.0,0.0,0.0,21.5,-18.0,-39.0,0.01,-0.01,0.79,0.61
5627,00:00:35.525,IMU4,0.27,0.1,9.8,0.0,0.0,0.0,5.19,-5.62,-21.56,0.02,-0.01,0.83,0.56
6488,00:00:35.528,IMU5,0.07,0.29,9.82,0.01,0.0,-0.0,32.0,-15.44,-20.12,0.01,0.01,0.73,0.68
6488,00:00:35.528,IMU6,0.22,0.09,9.78,0.0,0.0,0.0,26.75,-13.0,-16.5,0.01,-0.01,0.77,0.63
6488,00:00:35.528,IMU7,0.5,0.15,9.79,0.0,0.0,0.0,17.12,-11.31,-18.12,0.03,-0.01,0.7,0.72
6489,00:00:35.531,IMU5,0.07,0.29,9.82,-0.0,0.0,-0.0,32.0,-15.44,-20.12,0.01,0.01,0.73,0.68
6489,00:00:35.531,IMU6,0.22,0.09,9.78,0.0,0.0,0.0,26.75,-13.0,-16.5,0.01,-0.01,0.77,0.63
6489,00:00:35.531,IMU7,0.5,0.15,9.79,0.0,0.0,0.0,17.12,-11.31,-18.12,0.03,-0.01,0.7,0.72
5628,00:00:35.531,IMU1,0.34,-0.03,9.83,0.0,0.0,0.0,31.25,-16.81,-38.12,0.02,-0.01,0.79,0.61
5628,00:00:35.531,IMU2,0.24,0.11,9.76,0.0,0.0,0.0,29.25,-31.12,-46.38,0.01,-0.0,0.78,0.63
5628,00:00:35.531,IMU3,0.2,0.08,9.81,0.0,0.0,0.0,21.5,-18.0,-39.0,0.01,-0.01,0.79,0.61
5628,00:00:35.531,IMU4,0.27,0.1,9.8,0.0,0.0,0.0,5.19,-5.62,-21.56,0.02,-0.01,0.83,0.56
5629,00:00:35.535,IMU1,0.34,-0.03,9.83,0.0,0.0,0.0,34.38,-18.19,-42.56,0.02,-0.01,0.79,0.61
5629,00:00:35.535,IMU2,0.24,0.11,9.76,0.0,0.0,0.0,29.25,-31.12,-46.38,0.01,-0.0,0.78,0.63
5629,00:00:35.535,IMU3,0.2,0.08,9.81,0.0,0.0,0.0,21.5,-18.0,-39.0,0.01,-0.01,0.79,0.61
5629,00:00:35.535,IMU4,0.27,0.1,9.8,0.0,0.0,0.0,5.19,-5.62,-21.56,0.02,-0.01,0.83,0.56
6490,00:00:35.537,IMU5,0.07,0.29,9.82,-0.0,0.0,-0.0,32.0,-15.44,-20.12,0.01,0.01,0.73,0.68
6490,00:00:35.537,IMU6,0.22,0.09,9.78,0.0,0.0,0.0,26.75,-13.0,-16.5,0.01,-0.01,0.77,0.63
6490,00:00:35.537,IMU7,0.57,0.11,9.75,0.0,0.0,0.0,17.12,-11.31,-18.12,0.03,-0.01,0.7,0.72
6491,00:00:35.540,IMU5,0.07,0.29,9.82,0.01,0.0,0.0,32.0,-15.44,-20.12,0.01,0.01,0.73,0.68
6491,00:00:35.540,IMU6,0.22,0.09,9.78,0.0,0.0,0.0,26.75,-13.0,-16.5,0.01,-0.01,0.77,0.63
6491,00:00:35.540,IMU7,0.57,0.11,9.75,0.0,0.0,0.0,17.12,-11.31,-18.12,0.03,-0.01,0.7,0.72
5630,00:00:35.541,IMU1,0.34,-0.03,9.83,0.0,0.0,0.0,34.38,-18.19,-42.56,0.02,-0.01,0.79,0.61
5630,00:00:35.541,IMU2,0.24,0.11,9.76,0.0,0.0,0.0,29.25,-31.12,-46.38,0.01,-0.0,0.78,0.63
5630,00:00:35.541,IMU3,0.2,0.08,9.81,0.0,0.0,0.0,21.5,-18.0,-39.0,0.01,-0.01,0.79,0.61
5630,00:00:35.541,IMU4,0.27,0.1,9.8,0.0,0.0,0.0,5.19,-5.62,-21.56,0.02,-0.01,0.83,0.56
6492,00:00:35.543,IMU5,0.07,0.29,9.82,0.01,0.0,0.0,32.0,-15.44,-20.12,0.01,0.01,0.73,0.68
6492,00:00:35.543,IMU6,0.22,0.09,9.78,0.0,0.0,0.0,26.75,-13.0,-16.5,0.01,-0.01,0.77,0.63
6492,00:00:35.543,IMU7,0.57,0.11,9.75,0.0,0.0,0.0,18.69,-12.0,-17.44,0.03,-0.01,0.7,0.72
6493,00:00:35.548,IMU5,0.03,0.25,9.75,0.01,0.0,0.0,32.0,-15.44,-20.12,0.01,0.01,0.73,0.68
6493,00:00:35.548,IMU6,0.22,0.09,9.78,0.0,0.0,0.0,26.75,-13.0,-16.5,0.01,-0.01,0.77,0.63
6493,00:00:35.548,IMU7,0.57,0.11,9.75,0.0,0.0,0.0,18.69,-12.0,-17.44,0.03,-0.01,0.7,0.72
6494,00:00:35.555,IMU5,0.03,0.25,9.75,0.01,0.0,0.0,31.38,-15.12,-20.75,0.01,0.01,0.73,0.68
6494,00:00:35.555,IMU6,0.22,0.09,9.78,0.0,0.0,0.0,26.75,-13.0,-16.5,0.01,-0.01,0.77,0.63
6494,00:00:35.555,IMU7,0.57,0.11,9.75,0.0,0.0,0.0,18.69,-12.0,-17.44,0.03,-0.01,0.7,0.72
6495,00:00:35.558,IMU5,0.03,0.25,9.75,0.0,0.0,-0.0,31.38,-15.12,-20.75,0.01,0.01,0.73,0.68
6495,00:00:35.558,IMU6,0.22,0.09,9.78,0.0,0.0,0.0,26.75,-13.0,-16.5,0.01,-0.01,0.77,0.63
6495,00:00:35.558,IMU7,0.57,0.11,9.75,0.0,0.0,0.0,18.69,-12.0,-17.44,0.03,-0.01,0.7,0.72
6496,00:00:35.563,IMU5,0.03,0.25,9.75,0.0,0.0,-0.0,31.38,-15.12,-20.75,0.01,0.01,0.73,0.68
6496,00:00:35.563,IMU6,0.22,0.09,9.78,0.0,0.0,0.0,26.75,-13.0,-16.5,0.01,-0.01,0.77,0.63
6496,00:00:35.563,IMU7,0.57,0.11,9.75,0.0,0.0,0.0,18.69,-12.0,-17.44,0.03,-0.01,0.7,0.72
5631,00:00:35.545,IMU1,0.34,-0.03,9.83,0.0,0.0,0.0,34.38,-18.19,-42.56,0.02,-0.01,0.79,0.61
5631,00:00:35.545,IMU2,0.2,0.11,9.79,0.0,0.0,0.0,29.25,-31.12,-46.38,0.01,-0.0,0.78,0.63
5631,00:00:35.545,IMU3,0.2,0.01,9.77,0.0,0.0,0.0,21.5,-18.0,-39.0,0.01,-0.01,0.79,0.61
5631,00:00:35.545,IMU4,0.27,0.1,9.8,0.0,0.0,0.0,5.19,-5.62,-21.56,0.02,-0.01,0.83,0.56
5632,00:00:35.550,IMU1,0.34,-0.03,9.83,0.0,0.0,0.0,34.38,-18.19,-42.56,0.02,-0.01,0.79,0.61
5632,00:00:35.550,IMU2,0.2,0.11,9.79,0.0,0.0,0.0,27.38,-28.38,-44.19,0.01,-0.0,0.78,0.63
5632,00:00:35.550,IMU3,0.2,0.01,9.77,0.0,0.0,0.0,19.0,-17.0,-37.44,0.01,-0.01,0.79,0.61
5632,00:00:35.550,IMU4,0.27,0.02,9.8,0.0,0.0,0.0,5.19,-5.62,-21.56,0.02,-0.01,0.83,0.56
5633,00:00:35.554,IMU1,0.34,-0.03,9.83,0.0,0.0,0.0,34.38,-18.19,-42.56,0.02,-0.01,0.79,0.61
5633,00:00:35.554,IMU2,0.2,0.11,9.79,0.0,0.0,0.0,27.38,-28.38,-44.19,0.01,-0.0,0.78,0.63
5633,00:00:35.554,IMU3,0.2,0.01,9.77,0.0,0.0,0.0,19.0,-17.0,-37.44,0.01,-0.01,0.79,0.61
5633,00:00:35.554,IMU4,0.27,0.02,9.8,0.0,0.0,0.0,5.19,-6.81,-20.31,0.02,-0.01,0.83,0.56
5634,00:00:35.558,IMU1,0.34,-0.03,9.83,0.0,0.0,0.0,34.38,-18.19,-42.56,0.02,-0.01,0.79,0.61
5634,00:00:35.558,IMU2,0.2,0.11,9.79,0.0,0.0,0.0,27.38,-28.38,-44.19,0.01,-0.0,0.78,0.63
5634,00:00:35.558,IMU3,0.2,0.01,9.77,0.0,0.0,0.0,19.0,-17.0,-37.44,0.01,-0.01,0.79,0.61
5634,00:00:35.558,IMU4,0.27,0.02,9.8,0.0,0.0,0.0,5.19,-6.81,-20.31,0.02,-0.01,0.83,0.56
5635,00:00:35.563,IMU1,0.34,-0.03,9.83,0.0,0.0,0.0,34.38,-18.19,-42.56,0.02,-0.01,0.79,0.61
5635,00:00:35.563,IMU2,0.2,0.11,9.79,0.0,0.0,0.0,27.38,-28.38,-44.19,0.01,-0.0,0.78,0.63
5635,00:00:35.563,IMU3,0.2,0.01,9.77,0.0,0.0,0.0,19.0,-17.0,-37.44,0.01,-0.01,0.79,0.61
5635,00:00:35.563,IMU4,0.27,0.02,9.8,0.0,0.0,0.0,5.19,-6.81,-20.31,0.02,-0.01,0.83,0.56
5636,00:00:35.568,IMU1,0.34,-0.03,9.83,0.0,0.0,0.0,34.38,-18.19,-42.56,0.02,-0.01,0.79,0.61
5636,00:00:35.568,IMU2,0.2,0.11,9.79,0.0,0.0,0.0,27.38,-28.38,-44.19,0.01,-0.0,0.78,0.63
5636,00:00:35.568,IMU3,0.2,0.01,9.77,0.0,0.0,0.0,19.0,-17.0,-37.44,0.01,-0.01,0.79,0.61
5636,00:00:35.568,IMU4,0.27,0.02,9.8,0.0,0.0,0.0,5.19,-6.81,-20.31,0.02,-0.01,0.83,0.56
6497,00:00:35.566,IMU5,0.03,0.25,9.75,0.0,0.0,-0.0,31.38,-15.12,-20.75,0.01,0.01,0.73,0.68
6497,00:00:35.566,IMU6,0.22,0.09,9.86,0.0,0.0,0.0,26.75,-13.0,-16.5,0.01,-0.01,0.77,0.63
6497,00:00:35.566,IMU7,0.57,0.11,9.75,0.0,0.0,0.0,18.69,-12.0,-17.44,0.03,-0.01,0.7,0.72
5637,00:00:35.574,IMU1,0.34,-0.03,9.75,0.0,0.0,0.0,34.38,-18.19,-42.56,0.02,-0.01,0.79,0.61
5637,00:00:35.574,IMU2,0.2,0.11,9.79,0.0,0.0,0.0,27.38,-28.38,-44.19,0.01,-0.0,0.78,0.63
5637,00:00:35.574,IMU3,0.2,0.01,9.77,0.0,0.0,0.0,19.0,-17.0,-37.44,0.01,-0.01,0.79,0.61
5637,00:00:35.574,IMU4,0.27,0.02,9.8,0.0,0.0,0.0,5.19,-6.81,-20.31,0.02,-0.01,0.83,0.56
6498,00:00:35.571,IMU5,0.03,0.25,9.75,0.0,0.0,-0.0,31.38,-15.12,-20.75,0.01,0.01,0.73,0.68
6498,00:00:35.571,IMU6,0.22,0.09,9.86,0.0,0.0,0.0,26.31,-13.69,-15.94,0.01,-0.01,0.77,0.63
6498,00:00:35.571,IMU7,0.57,0.15,9.79,0.0,0.0,0.0,18.69,-12.0,-17.44,0.03,-0.01,0.7,0.72
6499,00:00:35.575,IMU5,0.03,0.25,9.75,0.0,-0.0,0.01,31.38,-15.12,-20.75,0.01,0.01,0.73,0.68
6499,00:00:35.575,IMU6,0.22,0.09,9.86,0.0,0.0,0.0,26.31,-13.69,-15.94,0.01,-0.01,0.77,0.63
6499,00:00:35.575,IMU7,0.57,0.15,9.79,0.0,0.0,0.0,19.25,-11.75,-19.5,0.03,-0.01,0.7,0.72
6500,00:00:35.580,IMU5,0.03,0.25,9.75,0.0,-0.0,0.01,31.38,-15.12,-20.75,0.01,0.01,0.73,0.68
6500,00:00:35.580,IMU6,0.22,0.09,9.86,0.0,0.0,0.0,26.31,-13.69,-15.94,0.01,-0.01,0.77,0.63
6500,00:00:35.580,IMU7,0.57,0.15,9.79,0.0,0.0,0.0,19.25,-11.75,-19.5,0.03,-0.01,0.7,0.72
6501,00:00:35.583,IMU5,0.03,0.29,9.75,0.0,-0.0,0.01,31.38,-15.12,-20.75,0.01,0.01,0.73,0.68
6501,00:00:35.583,IMU6,0.22,0.09,9.86,0.0,0.0,0.0,26.31,-13.69,-15.94,0.01,-0.01,0.77,0.63
6501,00:00:35.583,IMU7,0.57,0.15,9.79,0.0,0.0,0.0,19.25,-11.75,-19.5,0.03,-0.01,0.7,0.72
5638,00:00:35.580,IMU1,0.34,-0.03,9.75,0.0,0.0,0.0,34.19,-17.31,-41.62,0.02,-0.01,0.79,0.61
5638,00:00:35.580,IMU2,0.2,0.11,9.79,0.0,0.0,0.0,27.38,-28.38,-44.19,0.01,-0.0,0.78,0.63
5638,00:00:35.580,IMU3,0.2,0.01,9.77,0.0,0.0,0.0,19.0,-17.0,-37.44,0.01,-0.01,0.79,0.61
5638,00:00:35.580,IMU4,0.31,0.14,9.84,0.0,0.0,0.0,5.19,-6.81,-20.31,0.02,-0.01,0.83,0.56
5639,00:00:35.586,IMU1,0.34,-0.03,9.75,0.0,0.0,0.0,34.19,-17.31,-41.62,0.02,-0.01,0.79,0.61
5639,00:00:35.586,IMU2,0.16,0.14,9.76,0.0,0.0,0.0,27.38,-28.38,-44.19,0.01,-0.0,0.78,0.63
5639,00:00:35.586,IMU3,0.2,0.01,9.77,0.0,0.0,0.0,19.0,-17.0,-37.44,0.01,-0.01,0.79,0.61
5639,00:00:35.586,IMU4,0.31,0.14,9.84,0.0,0.0,0.0,4.88,-4.25,-21.38,0.02,-0.01,0.83,0.56
5640,00:00:35.592,IMU1,0.34,-0.03,9.75,0.0,0.0,0.0,34.19,-17.31,-41.62,0.02,-0.01,0.79,0.61
5640,00:00:35.592,IMU2,0.16,0.14,9.76,0.0,0.0,0.0,27.38,-28.38,-44.19,0.01,-0.0,0.78,0.63
5640,00:00:35.592,IMU3,0.2,0.01,9.77,0.0,0.0,0.0,19.0,-17.0,-37.44,0.01,-0.01,0.79,0.61
5640,00:00:35.592,IMU4,0.31,0.14,9.84,0.0,0.0,0.0,4.88,-4.25,-21.38,0.02,-0.01,0.83,0.56
5641,00:00:35.597,IMU1,0.34,-0.03,9.75,0.0,0.0,0.0,34.19,-17.31,-41.62,0.02,-0.01,0.79,0.61
5641,00:00:35.597,IMU2,0.16,0.14,9.76,0.0,0.0,0.0,26.62,-27.62,-43.69,0.01,-0.0,0.78,0.63
5641,00:00:35.597,IMU3,0.2,0.01,9.77,0.0,0.0,0.0,19.0,-17.0,-37.44,0.01,-0.01,0.79,0.61
5641,00:00:35.597,IMU4,0.31,0.14,9.84,0.0,0.0,0.0,4.88,-4.25,-21.38,0.02,-0.01,0.83,0.56
5642,00:00:35.603,IMU1,0.34,-0.03,9.75,0.0,0.0,0.0,34.19,-17.31,-41.62,0.02,-0.01,0.79,0.61
5642,00:00:35.603,IMU2,0.16,0.14,9.76,0.0,0.0,0.0,26.62,-27.62,-43.69,0.01,-0.0,0.78,0.63
5642,00:00:35.603,IMU3,0.2,0.01,9.77,0.0,0.0,0.0,19.0,-17.0,-37.44,0.01,-0.01,0.79,0.61
5642,00:00:35.603,IMU4,0.31,0.14,9.84,0.0,0.0,0.0,4.88,-4.25,-21.38,0.02,-0.01,0.83,0.56
5643,00:00:35.608,IMU1,0.34,-0.03,9.75,0.0,0.0,0.0,34.19,-17.31,-41.62,0.02,-0.01,0.79,0.61
5643,00:00:35.608,IMU2,0.16,0.14,9.76,0.0,0.0,0.0,26.62,-27.62,-43.69,0.01,-0.0,0.78,0.63
5643,00:00:35.608,IMU3,0.2,0.01,9.77,0.0,0.0,0.0,19.0,-17.0,-37.44,0.01,-0.01,0.79,0.61
5643,00:00:35.608,IMU4,0.31,0.14,9.84,0.0,0.0,0.0,4.88,-4.25,-21.38,0.02,-0.01,0.83,0.56
5644,00:00:35.614,IMU1,0.34,-0.03,9.75,0.0,0.0,0.0,34.19,-17.31,-41.62,0.02,-0.01,0.79,0.61
5644,00:00:35.614,IMU2,0.16,0.14,9.76,0.0,0.0,0.0,26.62,-27.62,-43.69,0.01,-0.0,0.78,0.63
5644,00:00:35.614,IMU3,0.2,0.01,9.77,0.0,0.0,0.0,19.0,-17.0,-37.44,0.01,-0.01,0.79,0.61
5644,00:00:35.614,IMU4,0.31,0.14,9.84,0.0,0.0,0.0,4.88,-4.25,-21.38,0.02,-0.01,0.83,0.56
5645,00:00:35.619,IMU1,0.34,-0.03,9.75,0.0,0.0,0.0,34.19,-17.31,-41.62,0.02,-0.01,0.79,0.61
5645,00:00:35.619,IMU2,0.16,0.14,9.76,0.0,0.0,0.0,26.62,-27.62,-43.69,0.01,-0.0,0.78,0.63
5645,00:00:35.619,IMU3,0.2,0.08,9.73,0.0,0.0,0.0,19.0,-17.0,-37.44,0.01,-0.01,0.79,0.61
5645,00:00:35.619,IMU4,0.31,0.14,9.84,0.0,0.0,0.0,4.88,-4.25,-21.38,0.02,-0.01,0.83,0.56
5646,00:00:35.624,IMU1,0.34,-0.03,9.75,0.0,0.0,0.0,34.19,-17.31,-41.62,0.02,-0.01,0.79,0.61
5646,00:00:35.624,IMU2,0.16,0.14,9.76,0.0,0.0,0.0,26.62,-27.62,-43.69,0.01,-0.0,0.78,0.63
5646,00:00:35.624,IMU3,0.2,0.08,9.73,0.0,0.0,0.0,19.0,-17.0,-37.44,0.01,-0.01,0.79,0.61
5646,00:00:35.624,IMU4,0.27,0.06,9.84,0.0,0.0,0.0,4.88,-4.25,-21.38,0.02,-0.01,0.83,0.56
6502,00:00:35.589,IMU5,0.03,0.29,9.75,0.0,-0.0,0.01,32.0,-13.31,-19.31,0.01,0.01,0.73,0.68
6502,00:00:35.589,IMU6,0.22,0.09,9.86,0.0,0.0,0.0,26.31,-13.69,-15.94,0.01,-0.01,0.77,0.63
6502,00:00:35.589,IMU7,0.57,0.15,9.79,0.0,0.0,0.0,19.25,-11.75,-19.5,0.03,-0.01,0.7,0.72
6503,00:00:35.593,IMU5,0.03,0.29,9.75,-0.01,-0.0,0.0,32.0,-13.31,-19.31,0.01,0.01,0.73,0.68
6503,00:00:35.593,IMU6,0.22,0.09,9.86,0.0,0.0,0.0,26.31,-13.69,-15.94,0.01,-0.01,0.77,0.63
6503,00:00:35.593,IMU7,0.57,0.15,9.79,0.0,0.0,0.0,19.25,-11.75,-19.5,0.03,-0.01,0.7,0.72
6504,00:00:35.599,IMU5,0.03,0.29,9.75,-0.01,-0.0,0.0,32.0,-13.31,-19.31,0.01,0.01,0.73,0.68
6504,00:00:35.599,IMU6,0.22,0.09,9.86,0.0,0.0,0.0,26.31,-13.69,-15.94,0.01,-0.01,0.77,0.63
6504,00:00:35.599,IMU7,0.57,0.23,9.91,0.0,0.0,0.0,19.25,-11.75,-19.5,0.03,-0.01,0.7,0.72
6505,00:00:35.602,IMU5,0.03,0.29,9.75,-0.0,0.0,0.0,32.0,-13.31,-19.31,0.01,0.01,0.73,0.68
6505,00:00:35.602,IMU6,0.22,0.09,9.78,0.0,0.0,0.0,26.31,-13.69,-15.94,0.01,-0.01,0.77,0.63
6505,00:00:35.602,IMU7,0.57,0.23,9.91,0.0,0.0,0.0,19.25,-11.75,-19.5,0.03,-0.01,0.7,0.72
6506,00:00:35.605,IMU5,0.03,0.29,9.75,-0.0,0.0,0.0,32.0,-13.31,-19.31,0.01,0.01,0.73,0.68
6506,00:00:35.605,IMU6,0.22,0.09,9.78,0.0,0.0,0.0,26.56,-13.06,-14.81,0.01,-0.01,0.77,0.63
6506,00:00:35.605,IMU7,0.57,0.23,9.91,0.0,0.0,0.0,19.5,-11.75,-17.94,0.03,-0.01,0.7,0.72
6507,00:00:35.610,IMU5,0.03,0.29,9.75,-0.0,0.0,-0.01,32.0,-13.31,-19.31,0.01,0.01,0.73,0.68
6507,00:00:35.610,IMU6,0.22,0.09,9.78,0.0,0.0,0.0,26.56,-13.06,-14.81,0.01,-0.01,0.77,0.63
6507,00:00:35.610,IMU7,0.57,0.23,9.91,0.0,0.0,0.0,19.5,-11.75,-17.94,0.03,-0.01,0.7,0.72
6508,00:00:35.617,IMU5,0.03,0.29,9.75,-0.0,0.0,-0.01,32.0,-13.31,-19.31,0.01,0.01,0.73,0.68
6508,00:00:35.617,IMU6,0.22,0.09,9.78,0.0,0.0,0.0,26.56,-13.06,-14.81,0.01,-0.01,0.77,0.63
6508,00:00:35.617,IMU7,0.57,0.23,9.91,0.0,0.0,0.0,19.5,-11.75,-17.94,0.03,-0.01,0.7,0.72
6509,00:00:35.620,IMU5,0.03,0.29,9.79,-0.0,0.0,-0.01,32.0,-13.31,-19.31,0.01,0.01,0.73,0.68
6509,00:00:35.620,IMU6,0.22,0.09,9.78,0.0,0.0,0.0,26.56,-13.06,-14.81,0.01,-0.01,0.77,0.63
6509,00:00:35.620,IMU7,0.57,0.23,9.91,0.0,0.0,0.0,19.5,-11.75,-17.94,0.03,-0.01,0.7,0.72
6510,00:00:35.626,IMU5,0.03,0.29,9.79,-0.0,0.0,-0.01,31.94,-15.38,-19.5,0.01,0.01,0.73,0.68
6510,00:00:35.626,IMU6,0.22,0.09,9.78,0.0,0.0,0.0,26.56,-13.06,-14.81,0.01,-0.01,0.77,0.63
6510,00:00:35.626,IMU7,0.57,0.23,9.91,0.0,0.0,0.0,19.5,-11.75,-17.94,0.03,-0.01,0.7,0.72
6511,00:00:35.629,IMU5,0.03,0.29,9.79,-0.0,0.0,0.0,31.94,-15.38,-19.5,0.01,0.01,0.73,0.68
6511,00:00:35.629,IMU6,0.22,0.09,9.78,0.0,0.0,0.0,26.56,-13.06,-14.81,0.01,-0.01,0.77,0.63
6511,00:00:35.629,IMU7,0.57,0.23,9.91,0.0,0.0,0.0,19.5,-11.75,-17.94,0.03,-0.01,0.7,0.72
5647,00:00:35.630,IMU1,0.34,-0.03,9.75,0.0,0.0,0.0,34.19,-17.31,-41.62,0.02,-0.01,0.79,0.61
5647,00:00:35.630,IMU2,0.28,0.14,9.79,0.0,0.0,0.0,26.62,-27.62,-43.69,0.01,-0.0,0.78,0.63
5647,00:00:35.630,IMU3,0.2,0.08,9.73,0.0,0.0,0.0,18.88,-20.94,-39.81,0.01,-0.01,0.79,0.61
5647,00:00:35.630,IMU4,0.27,0.06,9.84,0.0,0.0,0.0,3.81,-4.25,-20.5,0.02,-0.01,0.83,0.56
5648,00:00:35.636,IMU1,0.34,-0.03,9.75,0.0,0.0,0.0,34.19,-17.31,-41.62,0.02,-0.01,0.79,0.61
5648,00:00:35.636,IMU2,0.28,0.14,9.79,0.0,0.0,0.0,28.88,-30.0,-45.5,0.01,-0.0,0.78,0.63
5648,00:00:35.636,IMU3,0.2,0.08,9.73,0.0,0.0,0.0,18.88,-20.94,-39.81,0.01,-0.01,0.79,0.61
5648,00:00:35.636,IMU4,0.27,0.06,9.84,0.0,0.0,0.0,3.81,-4.25,-20.5,0.02,-0.01,0.83,0.56
6512,00:00:35.634,IMU5,0.03,0.29,9.79,-0.0,0.0,0.0,31.94,-15.38,-19.5,0.01,0.01,0.73,0.68
6512,00:00:35.634,IMU6,0.22,0.09,9.78,0.0,0.0,0.0,26.56,-13.06,-14.81,0.01,-0.01,0.77,0.63
6512,00:00:35.634,IMU7,0.57,0.15,9.83,0.0,0.0,0.0,19.5,-11.75,-17.94,0.03,-0.01,0.7,0.72
5649,00:00:35.641,IMU1,0.34,-0.03,9.75,0.0,0.0,0.0,34.19,-17.31,-41.62,0.02,-0.01,0.79,0.61
5649,00:00:35.641,IMU2,0.28,0.14,9.79,0.0,0.0,0.0,28.88,-30.0,-45.5,0.01,-0.0,0.78,0.63
5649,00:00:35.641,IMU3,0.2,0.08,9.73,0.0,0.0,0.0,18.88,-20.94,-39.81,0.01,-0.01,0.79,0.61
5649,00:00:35.641,IMU4,0.27,0.06,9.84,0.0,0.0,0.0,3.81,-4.25,-20.5,0.02,-0.01,0.83,0.56
5650,00:00:35.646,IMU1,0.34,-0.03,9.75,0.0,0.0,0.0,34.19,-17.31,-41.62,0.02,-0.01,0.79,0.61
5650,00:00:35.646,IMU2,0.28,0.14,9.79,0.0,0.0,0.0,28.88,-30.0,-45.5,0.01,-0.0,0.78,0.63
5650,00:00:35.646,IMU3,0.2,0.08,9.73,0.0,0.0,0.0,18.88,-20.94,-39.81,0.01,-0.01,0.79,0.61
5650,00:00:35.646,IMU4,0.27,0.06,9.84,0.0,0.0,0.0,3.81,-4.25,-20.5,0.02,-0.01,0.83,0.56
6513,00:00:35.640,IMU5,0.03,0.29,9.79,-0.0,0.0,0.0,31.94,-15.38,-19.5,0.01,0.01,0.73,0.68
6513,00:00:35.640,IMU6,0.22,0.09,9.78,0.0,0.0,0.0,26.56,-13.06,-14.81,0.01,-0.01,0.77,0.63
6513,00:00:35.640,IMU7,0.57,0.15,9.83,0.0,0.0,0.0,18.75,-12.06,-17.88,0.03,-0.01,0.7,0.72
6514,00:00:35.646,IMU5,0.03,0.29,9.79,-0.0,0.0,0.0,31.94,-15.38,-19.5,0.01,0.01,0.73,0.68
6514,00:00:35.646,IMU6,0.22,0.09,9.78,0.0,0.0,0.0,26.56,-13.06,-14.81,0.01,-0.01,0.77,0.63
6514,00:00:35.646,IMU7,0.57,0.15,9.83,0.0,0.0,0.0,18.75,-12.06,-17.88,0.03,-0.01,0.7,0.72
6515,00:00:35.649,IMU5,0.03,0.29,9.79,0.0,-0.0,-0.0,31.94,-15.38,-19.5,0.01,0.01,0.73,0.68
6515,00:00:35.649,IMU6,0.22,0.09,9.78,0.0,0.0,0.0,26.56,-13.06,-14.81,0.01,-0.01,0.77,0.63
6515,00:00:35.649,IMU7,0.57,0.15,9.83,0.0,0.0,0.0,18.75,-12.06,-17.88,0.03,-0.01,0.7,0.72
6516,00:00:35.654,IMU5,0.03,0.29,9.79,0.0,-0.0,-0.0,31.94,-15.38,-19.5,0.01,0.01,0.73,0.68
6516,00:00:35.654,IMU6,0.22,0.09,9.78,0.0,0.0,0.0,26.56,-13.06,-14.81,0.01,-0.01,0.77,0.63
6516,00:00:35.654,IMU7,0.57,0.15,9.83,0.0,0.0,0.0,18.75,-12.06,-17.88,0.03,-0.01,0.7,0.72
5651,00:00:35.650,IMU1,0.38,-0.03,9.83,0.0,0.0,0.0,34.19,-17.31,-41.62,0.02,-0.01,0.79,0.61
5651,00:00:35.650,IMU2,0.28,0.14,9.79,0.0,0.0,0.0,28.88,-30.0,-45.5,0.01,-0.0,0.78,0.63
5651,00:00:35.650,IMU3,0.2,0.08,9.73,0.0,0.0,0.0,18.88,-20.94,-39.81,0.01,-0.01,0.79,0.61
5651,00:00:35.650,IMU4,0.27,0.06,9.84,0.0,0.0,0.0,3.81,-4.25,-20.5,0.02,-0.01,0.83,0.56
5652,00:00:35.656,IMU1,0.38,-0.03,9.83,0.0,0.0,0.0,34.19,-17.31,-41.62,0.02,-0.01,0.79,0.61
5652,00:00:35.656,IMU2,0.28,0.14,9.79,0.0,0.0,0.0,28.88,-30.0,-45.5,0.01,-0.0,0.78,0.63
5652,00:00:35.656,IMU3,0.2,0.08,9.73,0.0,0.0,0.0,18.88,-20.94,-39.81,0.01,-0.01,0.79,0.61
5652,00:00:35.656,IMU4,0.27,0.06,9.84,0.0,0.0,0.0,3.81,-4.25,-20.5,0.02,-0.01,0.83,0.56
6517,00:00:35.657,IMU5,0.03,0.25,9.75,0.0,-0.0,-0.0,31.94,-15.38,-19.5,0.01,0.01,0.73,0.68
6517,00:00:35.657,IMU6,0.22,0.05,9.86,0.0,0.0,0.0,26.56,-13.06,-14.81,0.01,-0.01,0.77,0.63
6517,00:00:35.657,IMU7,0.57,0.15,9.83,0.0,0.0,0.0,18.75,-12.06,-17.88,0.03,-0.01,0.7,0.72
6518,00:00:35.662,IMU5,0.03,0.25,9.75,0.0,-0.0,-0.0,32.0,-15.0,-20.12,0.01,0.01,0.73,0.68
6518,00:00:35.662,IMU6,0.22,0.05,9.86,0.0,0.0,0.0,26.75,-12.06,-16.5,0.01,-0.01,0.77,0.63
6518,00:00:35.662,IMU7,0.5,0.11,9.68,0.0,0.0,0.0,18.75,-12.06,-17.88,0.03,-0.01,0.7,0.72
5653,00:00:35.661,IMU1,0.38,-0.03,9.83,0.0,0.0,0.0,32.12,-17.81,-40.94,0.02,-0.01,0.79,0.61
5653,00:00:35.661,IMU2,0.28,0.14,9.79,0.0,0.0,0.0,28.88,-30.0,-45.5,0.01,-0.0,0.78,0.63
5653,00:00:35.661,IMU3,0.2,0.05,9.73,0.0,0.0,0.0,18.88,-20.94,-39.81,0.01,-0.01,0.79,0.61
5653,00:00:35.661,IMU4,0.27,0.06,9.84,0.0,0.0,0.0,4.69,-6.12,-21.06,0.02,-0.01,0.83,0.56
6519,00:00:35.665,IMU5,0.03,0.25,9.75,0.0,0.0,0.0,32.0,-15.0,-20.12,0.01,0.01,0.73,0.68
6519,00:00:35.665,IMU6,0.22,0.05,9.86,0.0,0.0,0.0,26.75,-12.06,-16.5,0.01,-0.01,0.77,0.63
6519,00:00:35.665,IMU7,0.5,0.11,9.68,0.0,0.0,0.0,19.12,-11.38,-18.69,0.03,-0.01,0.7,0.72
5654,00:00:35.666,IMU1,0.38,-0.03,9.83,0.0,0.0,0.0,32.12,-17.81,-40.94,0.02,-0.01,0.79,0.61
5654,00:00:35.666,IMU2,0.28,0.14,9.79,0.0,0.0,0.0,28.88,-30.0,-45.5,0.01,-0.0,0.78,0.63
5654,00:00:35.666,IMU3,0.2,0.05,9.73,0.0,0.0,0.0,18.88,-20.94,-39.81,0.01,-0.01,0.79,0.61
5654,00:00:35.666,IMU4,0.27,0.06,9.84,0.0,0.0,0.0,4.69,-6.12,-21.06,0.02,-0.01,0.83,0.56
6520,00:00:35.670,IMU5,0.03,0.25,9.75,0.0,0.0,0.0,32.0,-15.0,-20.12,0.01,0.01,0.73,0.68
6520,00:00:35.670,IMU6,0.22,0.05,9.86,0.0,0.0,0.0,26.75,-12.06,-16.5,0.01,-0.01,0.77,0.63
6520,00:00:35.670,IMU7,0.5,0.11,9.68,0.0,0.0,0.0,19.12,-11.38,-18.69,0.03,-0.01,0.7,0.72
5655,00:00:35.671,IMU1,0.38,-0.03,9.83,0.0,0.0,0.0,32.12,-17.81,-40.94,0.02,-0.01,0.79,0.61
5655,00:00:35.671,IMU2,0.28,0.14,9.79,0.0,0.0,0.0,28.88,-30.0,-45.5,0.01,-0.0,0.78,0.63
5655,00:00:35.671,IMU3,0.2,0.05,9.73,0.0,0.0,0.0,19.31,-21.69,-37.69,0.01,-0.01,0.79,0.61
5655,00:00:35.671,IMU4,0.27,0.06,9.84,0.0,0.0,0.0,4.69,-6.12,-21.06,0.02,-0.01,0.83,0.56
5656,00:00:35.676,IMU1,0.38,-0.03,9.83,0.0,0.0,0.0,32.12,-17.81,-40.94,0.02,-0.01,0.79,0.61
5656,00:00:35.676,IMU2,0.28,0.14,9.79,0.0,0.0,0.0,28.88,-30.0,-45.5,0.01,-0.0,0.78,0.63
5656,00:00:35.676,IMU3,0.2,0.05,9.73,0.0,0.0,0.0,19.31,-21.69,-37.69,0.01,-0.01,0.79,0.61
5656,00:00:35.676,IMU4,0.27,0.06,9.84,0.0,0.0,0.0,4.69,-6.12,-21.06,0.02,-0.01,0.83,0.56
6521,00:00:35.674,IMU5,0.03,0.25,9.75,-0.0,0.0,-0.0,32.0,-15.0,-20.12,0.01,0.01,0.73,0.68
6521,00:00:35.674,IMU6,0.22,0.05,9.86,0.0,0.0,0.0,26.75,-12.06,-16.5,0.01,-0.01,0.77,0.63
6521,00:00:35.674,IMU7,0.5,0.11,9.68,0.0,0.0,0.0,19.12,-11.38,-18.69,0.03,-0.01,0.7,0.72
6522,00:00:35.681,IMU5,0.03,0.25,9.75,-0.0,0.0,-0.0,32.0,-15.0,-20.12,0.01,0.01,0.73,0.68
6522,00:00:35.681,IMU6,0.22,0.05,9.86,0.0,0.0,0.0,26.75,-12.06,-16.5,0.01,-0.01,0.77,0.63
6522,00:00:35.681,IMU7,0.5,0.11,9.68,0.0,0.0,0.0,19.12,-11.38,-18.69,0.03,-0.01,0.7,0.72
5657,00:00:35.681,IMU1,0.38,-0.03,9.83,0.0,0.0,0.0,32.12,-17.81,-40.94,0.02,-0.01,0.79,0.61
5657,00:00:35.681,IMU2,0.28,0.14,9.79,0.0,0.0,0.0,28.88,-30.0,-45.5,0.01,-0.0,0.78,0.63
5657,00:00:35.681,IMU3,0.2,0.05,9.73,0.0,0.0,0.0,19.31,-21.69,-37.69,0.01,-0.01,0.79,0.61
5657,00:00:35.681,IMU4,0.27,0.06,9.84,0.0,0.0,0.0,4.69,-6.12,-21.06,0.02,-0.01,0.83,0.56
5658,00:00:35.687,IMU1,0.38,-0.03,9.83,0.0,0.0,0.0,32.12,-17.81,-40.94,0.02,-0.01,0.79,0.61
5658,00:00:35.687,IMU2,0.28,0.14,9.79,0.0,0.0,0.0,28.88,-30.0,-45.5,0.01,-0.0,0.78,0.63
5658,00:00:35.687,IMU3,0.2,0.05,9.73,0.0,0.0,0.0,19.31,-21.69,-37.69,0.01,-0.01,0.79,0.61
5658,00:00:35.687,IMU4,0.27,0.06,9.8,0.0,0.0,0.0,4.69,-6.12,-21.06,0.02,-0.01,0.83,0.56
6523,00:00:35.684,IMU5,0.03,0.25,9.75,-0.01,0.0,0.01,32.0,-15.0,-20.12,0.01,0.01,0.73,0.68
6523,00:00:35.684,IMU6,0.22,0.05,9.86,0.0,0.0,0.0,26.75,-12.06,-16.5,0.01,-0.01,0.77,0.63
6523,00:00:35.684,IMU7,0.5,0.11,9.68,0.0,0.0,0.0,19.12,-11.38,-18.69,0.03,-0.01,0.7,0.72
6524,00:00:35.689,IMU5,0.03,0.25,9.75,-0.01,0.0,0.01,32.0,-15.0,-20.12,0.01,0.01,0.73,0.68
6524,00:00:35.689,IMU6,0.22,0.05,9.86,0.0,0.0,0.0,26.75,-12.06,-16.5,0.01,-0.01,0.77,0.63
6524,00:00:35.689,IMU7,0.5,0.11,9.68,0.0,0.0,0.0,19.12,-11.38,-18.69,0.03,-0.01,0.7,0.72
6525,00:00:35.695,IMU5,-0.01,0.29,9.75,-0.01,0.0,0.01,32.0,-15.0,-20.12,0.01,0.01,0.73,0.68
6525,00:00:35.695,IMU6,0.33,0.12,9.78,0.0,0.0,0.0,26.75,-12.06,-16.5,0.01,-0.01,0.77,0.63
6525,00:00:35.695,IMU7,0.5,0.11,9.68,0.0,0.0,0.0,19.12,-11.38,-18.69,0.03,-0.01,0.7,0.72
6526,00:00:35.701,IMU5,-0.01,0.29,9.75,0.0,0.0,-0.0,32.0,-15.0,-20.12,0.01,0.01,0.73,0.68
6526,00:00:35.701,IMU6,0.33,0.12,9.78,0.0,0.0,0.0,27.06,-13.75,-15.62,0.01,-0.01,0.77,0.63
6526,00:00:35.701,IMU7,0.5,0.11,9.68,0.0,0.0,0.0,19.12,-11.38,-18.69,0.03,-0.01,0.7,0.72
5659,00:00:35.692,IMU1,0.38,-0.03,9.83,0.0,0.0,0.0,32.12,-17.81,-40.94,0.02,-0.01,0.79,0.61
5659,00:00:35.692,IMU2,0.24,0.11,9.79,0.0,0.0,0.0,28.88,-30.0,-45.5,0.01,-0.0,0.78,0.63
5659,00:00:35.692,IMU3,0.2,0.05,9.73,0.0,0.0,0.0,19.31,-21.69,-37.69,0.01,-0.01,0.79,0.61
5659,00:00:35.692,IMU4,0.27,0.06,9.8,0.0,0.0,0.0,4.94,-6.06,-19.56,0.02,-0.01,0.83,0.56
6527,00:00:35.704,IMU5,-0.01,0.29,9.75,0.0,0.0,-0.0,31.25,-14.25,-19.62,0.01,0.01,0.73,0.68
6527,00:00:35.704,IMU6,0.33,0.12,9.78,0.0,0.0,0.0,27.06,-13.75,-15.62,0.01,-0.01,0.77,0.63
6527,00:00:35.704,IMU7,0.5,0.11,9.68,0.0,0.0,0.0,19.12,-11.38,-18.69,0.03,-0.01,0.7,0.72
6528,00:00:35.709,IMU5,-0.01,0.29,9.75,0.0,0.0,-0.0,31.25,-14.25,-19.62,0.01,0.01,0.73,0.68
6528,00:00:35.709,IMU6,0.33,0.12,9.78,0.0,0.0,0.0,27.06,-13.75,-15.62,0.01,-0.01,0.77,0.63
6528,00:00:35.709,IMU7,0.54,0.15,9.87,0.0,0.0,0.0,19.12,-11.38,-18.69,0.03,-0.01,0.7,0.72
6529,00:00:35.713,IMU5,-0.01,0.29,9.75,0.0,-0.0,0.0,31.25,-14.25,-19.62,0.01,0.01,0.73,0.68
6529,00:00:35.713,IMU6,0.33,0.12,9.78,0.0,0.0,0.0,27.06,-13.75,-15.62,0.01,-0.01,0.77,0.63
6529,00:00:35.713,IMU7,0.54,0.15,9.87,0.0,0.0,0.0,17.88,-10.94,-17.31,0.03,-0.01,0.7,0.72
6530,00:00:35.717,IMU5,-0.01,0.29,9.75,0.0,-0.0,0.0,31.25,-14.25,-19.62,0.01,0.01,0.73,0.68
6530,00:00:35.717,IMU6,0.33,0.12,9.78,0.0,0.0,0.0,27.06,-13.75,-15.62,0.01,-0.01,0.77,0.63
6530,00:00:35.717,IMU7,0.54,0.15,9.87,0.0,0.0,0.0,17.88,-10.94,-17.31,0.03,-0.01,0.7,0.72
5660,00:00:35.696,IMU1,0.38,-0.03,9.83,0.0,0.0,0.0,32.12,-17.81,-40.94,0.02,-0.01,0.79,0.61
5660,00:00:35.696,IMU2,0.24,0.11,9.79,0.0,0.0,0.0,26.25,-29.44,-43.81,0.01,-0.0,0.78,0.63
5660,00:00:35.696,IMU3,0.2,0.05,9.73,0.0,0.0,0.0,19.31,-21.69,-37.69,0.01,-0.01,0.79,0.61
5660,00:00:35.696,IMU4,0.27,0.06,9.8,0.0,0.0,0.0,4.94,-6.06,-19.56,0.02,-0.01,0.83,0.56
5661,00:00:35.701,IMU1,0.34,0.01,9.79,0.0,0.0,0.0,32.12,-17.81,-40.94,0.02,-0.01,0.79,0.61
5661,00:00:35.701,IMU2,0.24,0.11,9.79,0.0,0.0,0.0,26.25,-29.44,-43.81,0.01,-0.0,0.78,0.63
5661,00:00:35.701,IMU3,0.2,0.05,9.73,0.0,0.0,0.0,19.31,-21.69,-37.69,0.01,-0.01,0.79,0.61
5661,00:00:35.701,IMU4,0.27,0.06,9.8,0.0,0.0,0.0,4.94,-6.06,-19.56,0.02,-0.01,0.83,0.56
5662,00:00:35.712,IMU1,0.34,0.01,9.79,0.0,0.0,0.0,33.56,-16.0,-40.62,0.02,-0.01,0.79,0.61
5662,00:00:35.712,IMU2,0.24,0.11,9.79,0.0,0.0,0.0,26.25,-29.44,-43.81,0.01,-0.0,0.78,0.63
5662,00:00:35.712,IMU3,0.2,0.05,9.73,0.0,0.0,0.0,19.31,-21.69,-37.69,0.01,-0.01,0.79,0.61
5662,00:00:35.712,IMU4,0.27,0.06,9.8,0.0,0.0,0.0,4.94,-6.06,-19.56,0.02,-0.01,0.83,0.56
5663,00:00:35.716,IMU1,0.34,0.01,9.79,0.0,0.0,0.0,33.56,-16.0,-40.62,0.02,-0.01,0.79,0.61
5663,00:00:35.716,IMU2,0.24,0.11,9.79,0.0,0.0,0.0,26.25,-29.44,-43.81,0.01,-0.0,0.78,0.63
5663,00:00:35.716,IMU3,0.24,0.05,9.77,0.0,0.0,0.0,19.31,-21.69,-37.69,0.01,-0.01,0.79,0.61
5663,00:00:35.716,IMU4,0.27,0.06,9.8,0.0,0.0,0.0,4.94,-6.06,-19.56,0.02,-0.01,0.83,0.56
5664,00:00:35.721,IMU1,0.34,0.01,9.79,0.0,0.0,0.0,33.56,-16.0,-40.62,0.02,-0.01,0.79,0.61
5664,00:00:35.721,IMU2,0.24,0.11,9.79,0.0,0.0,0.0,26.25,-29.44,-43.81,0.01,-0.0,0.78,0.63
5664,00:00:35.721,IMU3,0.24,0.05,9.77,0.0,0.0,0.0,19.31,-21.69,-37.69,0.01,-0.01,0.79,0.61
5664,00:00:35.721,IMU4,0.27,0.06,9.8,0.0,0.0,0.0,4.94,-6.06,-19.56,0.02,-0.01,0.83,0.56
5665,00:00:35.725,IMU1,0.34,0.01,9.79,0.0,0.0,0.0,33.56,-16.0,-40.62,0.02,-0.01,0.79,0.61
5665,00:00:35.725,IMU2,0.24,0.11,9.79,0.0,0.0,0.0,26.25,-29.44,-43.81,0.01,-0.0,0.78,0.63
5665,00:00:35.725,IMU3,0.24,0.05,9.77,0.0,0.0,0.0,20.0,-18.38,-39.44,0.01,-0.01,0.79,0.61
5665,00:00:35.725,IMU4,0.27,0.06,9.8,0.0,0.0,0.0,4.94,-6.06,-19.56,0.02,-0.01,0.83,0.56
5666,00:00:35.729,IMU1,0.34,0.01,9.79,0.0,0.0,0.0,33.56,-16.0,-40.62,0.02,-0.01,0.79,0.61
5666,00:00:35.729,IMU2,0.24,0.11,9.79,0.0,0.0,0.0,26.25,-29.44,-43.81,0.01,-0.0,0.78,0.63
5666,00:00:35.729,IMU3,0.24,0.05,9.77,0.0,0.0,0.0,20.0,-18.38,-39.44,0.01,-0.01,0.79,0.61
5666,00:00:35.729,IMU4,0.27,0.06,9.8,0.0,0.0,0.0,4.94,-6.06,-19.56,0.02,-0.01,0.83,0.56
6531,00:00:35.722,IMU5,-0.01,0.29,9.75,0.0,0.0,-0.01,31.25,-14.25,-19.62,0.01,0.01,0.73,0.68
6531,00:00:35.722,IMU6,0.33,0.12,9.78,0.0,0.0,0.0,27.06,-13.75,-15.62,0.01,-0.01,0.77,0.63
6531,00:00:35.722,IMU7,0.54,0.15,9.87,0.0,0.0,0.0,17.88,-10.94,-17.31,0.03,-0.01,0.7,0.72
6532,00:00:35.728,IMU5,-0.01,0.29,9.75,0.0,0.0,-0.01,31.25,-14.25,-19.62,0.01,0.01,0.73,0.68
6532,00:00:35.728,IMU6,0.33,0.12,9.78,0.0,0.0,0.0,27.06,-13.75,-15.62,0.01,-0.01,0.77,0.63
6532,00:00:35.728,IMU7,0.54,0.15,9.87,0.0,0.0,0.0,17.88,-10.94,-17.31,0.03,-0.01,0.7,0.72
6533,00:00:35.733,IMU5,0.11,0.25,9.79,0.0,0.0,-0.01,31.25,-14.25,-19.62,0.01,0.01,0.73,0.68
6533,00:00:35.733,IMU6,0.33,0.12,9.78,0.0,0.0,0.0,27.06,-13.75,-15.62,0.01,-0.01,0.77,0.63
6533,00:00:35.733,IMU7,0.54,0.15,9.87,0.0,0.0,0.0,17.88,-10.94,-17.31,0.03,-0.01,0.7,0.72
6534,00:00:35.738,IMU5,0.11,0.25,9.79,0.0,-0.0,0.0,31.25,-14.25,-19.62,0.01,0.01,0.73,0.68
6534,00:00:35.738,IMU6,0.33,0.12,9.78,0.0,0.0,0.0,27.06,-13.75,-15.62,0.01,-0.01,0.77,0.63
6534,00:00:35.738,IMU7,0.54,0.15,9.87,0.0,0.0,0.0,17.88,-10.94,-17.31,0.03,-0.01,0.7,0.72
6535,00:00:35.742,IMU5,0.11,0.25,9.79,0.0,-0.0,0.0,33.06,-15.0,-20.25,0.01,0.01,0.73,0.68
6535,00:00:35.742,IMU6,0.25,0.09,9.78,0.0,0.0,0.0,27.06,-13.75,-15.62,0.01,-0.01,0.77,0.63
6535,00:00:35.742,IMU7,0.54,0.15,9.87,0.0,0.0,0.0,17.88,-10.94,-17.31,0.03,-0.01,0.7,0.72
5667,00:00:35.734,IMU1,0.34,0.01,9.79,0.0,0.0,0.0,33.56,-16.0,-40.62,0.02,-0.01,0.79,0.61
5667,00:00:35.734,IMU2,0.24,0.11,9.79,0.0,0.0,0.0,26.25,-29.44,-43.81,0.01,-0.0,0.78,0.63
5667,00:00:35.734,IMU3,0.24,0.05,9.77,0.0,0.0,0.0,20.0,-18.38,-39.44,0.01,-0.01,0.79,0.61
5667,00:00:35.734,IMU4,0.27,0.06,9.8,0.0,0.0,0.0,4.94,-6.06,-19.56,0.02,-0.01,0.83,0.56
5668,00:00:35.739,IMU1,0.34,0.01,9.79,0.0,0.0,0.0,33.56,-16.0,-40.62,0.02,-0.01,0.79,0.61
5668,00:00:35.739,IMU2,0.24,0.11,9.79,0.0,0.0,0.0,26.25,-29.44,-43.81,0.01,-0.0,0.78,0.63
5668,00:00:35.739,IMU3,0.24,0.05,9.77,0.0,0.0,0.0,20.0,-18.38,-39.44,0.01,-0.01,0.79,0.61
5668,00:00:35.739,IMU4,0.31,0.02,9.84,0.0,0.0,0.0,4.94,-6.06,-19.56,0.02,-0.01,0.83,0.56
6536,00:00:35.747,IMU5,0.11,0.25,9.79,0.0,-0.0,0.0,33.06,-15.0,-20.25,0.01,0.01,0.73,0.68
6536,00:00:35.747,IMU6,0.25,0.09,9.78,0.0,0.0,0.0,27.06,-13.75,-15.62,0.01,-0.01,0.77,0.63
6536,00:00:35.747,IMU7,0.54,0.11,9.79,0.0,0.0,0.0,17.88,-10.94,-17.31,0.03,-0.01,0.7,0.72
5669,00:00:35.744,IMU1,0.34,0.01,9.79,0.0,0.0,0.0,33.56,-16.0,-40.62,0.02,-0.01,0.79,0.61
5669,00:00:35.744,IMU2,0.2,0.11,9.83,0.0,0.0,0.0,26.25,-29.44,-43.81,0.01,-0.0,0.78,0.63
5669,00:00:35.744,IMU3,0.24,0.05,9.77,0.0,0.0,0.0,20.0,-18.38,-39.44,0.01,-0.01,0.79,0.61
5669,00:00:35.744,IMU4,0.31,0.02,9.84,0.0,0.0,0.0,5.19,-5.88,-21.56,0.02,-0.01,0.83,0.56
6537,00:00:35.753,IMU5,0.11,0.25,9.79,0.0,-0.0,-0.0,33.06,-15.0,-20.25,0.01,0.01,0.73,0.68
6537,00:00:35.753,IMU6,0.25,0.09,9.78,0.0,0.0,0.0,27.0,-12.44,-15.25,0.01,-0.01,0.77,0.63
6537,00:00:35.753,IMU7,0.54,0.11,9.79,0.0,0.0,0.0,19.25,-11.75,-19.5,0.03,-0.01,0.7,0.72
6538,00:00:35.759,IMU5,0.11,0.25,9.79,0.0,-0.0,-0.0,33.06,-15.0,-20.25,0.01,0.01,0.73,0.68
6538,00:00:35.759,IMU6,0.25,0.09,9.78,0.0,0.0,0.0,27.0,-12.44,-15.25,0.01,-0.01,0.77,0.63
6538,00:00:35.759,IMU7,0.54,0.11,9.79,0.0,0.0,0.0,19.25,-11.75,-19.5,0.03,-0.01,0.7,0.72
5670,00:00:35.749,IMU1,0.34,0.01,9.79,0.0,0.0,0.0,33.56,-16.0,-40.62,0.02,-0.01,0.79,0.61
5670,00:00:35.749,IMU2,0.2,0.11,9.83,0.0,0.0,0.0,27.75,-32.25,-46.5,0.01,-0.0,0.78,0.63
5670,00:00:35.749,IMU3,0.24,0.05,9.77,0.0,0.0,0.0,20.0,-18.38,-39.44,0.01,-0.01,0.79,0.61
5670,00:00:35.749,IMU4,0.31,0.02,9.84,0.0,0.0,0.0,5.19,-5.88,-21.56,0.02,-0.01,0.83,0.56
5671,00:00:35.753,IMU1,0.3,0.04,9.83,0.0,0.0,0.0,33.56,-16.0,-40.62,0.02,-0.01,0.79,0.61
5671,00:00:35.753,IMU2,0.2,0.11,9.83,0.0,0.0,0.0,27.75,-32.25,-46.5,0.01,-0.0,0.78,0.63
5671,00:00:35.753,IMU3,0.24,0.05,9.77,0.0,0.0,0.0,20.0,-18.38,-39.44,0.01,-0.01,0.79,0.61
5671,00:00:35.753,IMU4,0.31,0.02,9.84,0.0,0.0,0.0,5.19,-5.88,-21.56,0.02,-0.01,0.83,0.56
5672,00:00:35.758,IMU1,0.3,0.04,9.83,0.0,0.0,0.0,32.25,-16.25,-40.0,0.02,-0.01,0.79,0.61
5672,00:00:35.758,IMU2,0.2,0.11,9.83,0.0,0.0,0.0,27.75,-32.25,-46.5,0.01,-0.0,0.78,0.63
5672,00:00:35.758,IMU3,0.24,0.05,9.77,0.0,0.0,0.0,20.0,-18.38,-39.44,0.01,-0.01,0.79,0.61
5672,00:00:35.758,IMU4,0.31,0.02,9.84,0.0,0.0,0.0,5.19,-5.88,-21.56,0.02,-0.01,0.83,0.56
6539,00:00:35.762,IMU5,0.11,0.25,9.79,0.0,-0.01,0.0,33.06,-15.0,-20.25,0.01,0.01,0.73,0.68
6539,00:00:35.762,IMU6,0.25,0.09,9.78,0.0,0.0,0.0,27.0,-12.44,-15.25,0.01,-0.01,0.77,0.63
6539,00:00:35.762,IMU7,0.54,0.11,9.79,0.0,0.0,0.0,19.25,-11.75,-19.5,0.03,-0.01,0.7,0.72
6540,00:00:35.769,IMU5,0.11,0.25,9.79,0.0,-0.01,0.0,33.06,-15.0,-20.25,0.01,0.01,0.73,0.68
6540,00:00:35.769,IMU6,0.25,0.09,9.78,0.0,0.0,0.0,27.0,-12.44,-15.25,0.01,-0.01,0.77,0.63
6540,00:00:35.769,IMU7,0.54,0.11,9.79,0.0,0.0,0.0,19.25,-11.75,-19.5,0.03,-0.01,0.7,0.72
6541,00:00:35.772,IMU5,0.11,0.25,9.79,0.0,0.0,-0.0,33.06,-15.0,-20.25,0.01,0.01,0.73,0.68
6541,00:00:35.772,IMU6,0.25,0.09,9.78,0.0,0.0,0.0,27.0,-12.44,-15.25,0.01,-0.01,0.77,0.63
6541,00:00:35.772,IMU7,0.54,0.11,9.79,0.0,0.0,0.0,19.25,-11.75,-19.5,0.03,-0.01,0.7,0.72
6542,00:00:35.776,IMU5,0.11,0.25,9.79,0.0,0.0,-0.0,33.06,-15.0,-20.25,0.01,0.01,0.73,0.68
6542,00:00:35.776,IMU6,0.25,0.09,9.78,0.0,0.0,0.0,27.0,-12.44,-15.25,0.01,-0.01,0.77,0.63
6542,00:00:35.776,IMU7,0.61,0.19,9.87,0.0,0.0,0.0,19.25,-11.75,-19.5,0.03,-0.01,0.7,0.72
6543,00:00:35.781,IMU5,0.11,0.25,9.79,-0.01,0.0,0.01,33.06,-15.0,-20.25,0.01,0.01,0.73,0.68
6543,00:00:35.781,IMU6,0.25,0.09,9.78,0.0,0.0,0.0,27.0,-12.44,-15.25,0.01,-0.01,0.77,0.63
6543,00:00:35.781,IMU7,0.61,0.19,9.87,0.0,0.0,0.0,19.56,-11.44,-18.69,0.03,-0.01,0.7,0.72
5673,00:00:35.762,IMU1,0.3,0.04,9.83,0.0,0.0,0.0,32.25,-16.25,-40.0,0.02,-0.01,0.79,0.61
5673,00:00:35.762,IMU2,0.2,0.11,9.83,0.0,0.0,0.0,27.75,-32.25,-46.5,0.01,-0.0,0.78,0.63
5673,00:00:35.762,IMU3,0.24,0.05,9.77,0.0,0.0,0.0,20.0,-18.38,-39.44,0.01,-0.01,0.79,0.61
5673,00:00:35.762,IMU4,0.31,0.02,9.84,0.0,0.0,0.0,5.19,-5.88,-21.56,0.02,-0.01,0.83,0.56
6544,00:00:35.786,IMU5,0.11,0.25,9.79,-0.01,0.0,0.01,33.06,-15.0,-20.25,0.01,0.01,0.73,0.68
6544,00:00:35.786,IMU6,0.25,0.09,9.78,0.0,0.0,0.0,27.0,-12.44,-15.25,0.01,-0.01,0.77,0.63
6544,00:00:35.786,IMU7,0.61,0.19,9.87,0.0,0.0,0.0,19.56,-11.44,-18.69,0.03,-0.01,0.7,0.72
6545,00:00:35.790,IMU5,0.07,0.29,9.74,-0.01,0.0,0.01,33.06,-15.0,-20.25,0.01,0.01,0.73,0.68
6545,00:00:35.790,IMU6,0.29,0.05,9.79,0.0,0.0,0.0,27.0,-12.44,-15.25,0.01,-0.01,0.77,0.63
6545,00:00:35.790,IMU7,0.61,0.19,9.87,0.0,0.0,0.0,19.56,-11.44,-18.69,0.03,-0.01,0.7,0.72
6546,00:00:35.796,IMU5,0.07,0.29,9.74,-0.01,0.0,0.01,31.69,-13.81,-20.0,0.01,0.01,0.73,0.68
6546,00:00:35.796,IMU6,0.29,0.05,9.79,0.0,0.0,0.0,25.75,-12.44,-14.75,0.01,-0.01,0.77,0.63
6546,00:00:35.796,IMU7,0.61,0.19,9.87,0.0,0.0,0.0,19.56,-11.44,-18.69,0.03,-0.01,0.7,0.72
6547,00:00:35.799,IMU5,0.07,0.29,9.74,0.01,0.0,0.0,31.69,-13.81,-20.0,0.01,0.01,0.73,0.68
6547,00:00:35.799,IMU6,0.29,0.05,9.79,0.0,0.0,0.0,25.75,-12.44,-14.75,0.01,-0.01,0.77,0.63
6547,00:00:35.799,IMU7,0.61,0.19,9.87,0.0,0.0,0.0,19.56,-11.44,-18.69,0.03,-0.01,0.7,0.72
6548,00:00:35.803,IMU5,0.07,0.29,9.74,0.01,0.0,0.0,31.69,-13.81,-20.0,0.01,0.01,0.73,0.68
6548,00:00:35.803,IMU6,0.29,0.05,9.79,0.0,0.0,0.0,25.75,-12.44,-14.75,0.01,-0.01,0.77,0.63
6548,00:00:35.803,IMU7,0.57,0.15,9.87,0.0,0.0,0.0,19.56,-11.44,-18.69,0.03,-0.01,0.7,0.72
6549,00:00:35.812,IMU5,0.07,0.29,9.74,0.0,0.0,-0.0,31.69,-13.81,-20.0,0.01,0.01,0.73,0.68
6549,00:00:35.812,IMU6,0.29,0.05,9.79,0.0,0.0,0.0,25.75,-12.44,-14.75,0.01,-0.01,0.77,0.63
6549,00:00:35.812,IMU7,0.57,0.15,9.87,0.0,0.0,0.0,17.5,-10.31,-18.5,0.03,-0.01,0.7,0.72
5674,00:00:35.768,IMU1,0.3,0.04,9.83,0.0,0.0,0.0,32.25,-16.25,-40.0,0.02,-0.01,0.79,0.61
5674,00:00:35.768,IMU2,0.2,0.11,9.83,0.0,0.0,0.0,27.75,-32.25,-46.5,0.01,-0.0,0.78,0.63
5674,00:00:35.768,IMU3,0.24,0.05,9.77,0.0,0.0,0.0,20.0,-18.38,-39.44,0.01,-0.01,0.79,0.61
5674,00:00:35.768,IMU4,0.27,0.1,9.8,0.0,0.0,0.0,5.19,-5.88,-21.56,0.02,-0.01,0.83,0.56
5675,00:00:35.774,IMU1,0.3,0.04,9.83,0.0,0.0,0.0,32.25,-16.25,-40.0,0.02,-0.01,0.79,0.61
5675,00:00:35.774,IMU2,0.2,0.11,9.83,0.0,0.0,0.0,27.75,-32.25,-46.5,0.01,-0.0,0.78,0.63
5675,00:00:35.774,IMU3,0.24,0.12,9.73,0.0,0.0,0.0,20.0,-18.38,-39.44,0.01,-0.01,0.79,0.61
5675,00:00:35.774,IMU4,0.27,0.1,9.8,0.0,0.0,0.0,7.5,-5.25,-22.25,0.02,-0.01,0.83,0.56
5676,00:00:35.780,IMU1,0.3,0.04,9.83,0.0,0.0,0.0,32.25,-16.25,-40.0,0.02,-0.01,0.79,0.61
5676,00:00:35.780,IMU2,0.2,0.11,9.83,0.0,0.0,0.0,27.75,-32.25,-46.5,0.01,-0.0,0.78,0.63
5676,00:00:35.780,IMU3,0.24,0.12,9.73,0.0,0.0,0.0,18.25,-17.44,-37.0,0.01,-0.01,0.79,0.61
5676,00:00:35.780,IMU4,0.27,0.1,9.8,0.0,0.0,0.0,7.5,-5.25,-22.25,0.02,-0.01,0.83,0.56
5677,00:00:35.786,IMU1,0.3,0.04,9.83,0.0,0.0,0.0,32.25,-16.25,-40.0,0.02,-0.01,0.79,0.61
5677,00:00:35.786,IMU2,0.2,0.11,9.83,0.0,0.0,0.0,27.75,-32.25,-46.5,0.01,-0.0,0.78,0.63
5677,00:00:35.786,IMU3,0.24,0.12,9.73,0.0,0.0,0.0,18.25,-17.44,-37.0,0.01,-0.01,0.79,0.61
5677,00:00:35.786,IMU4,0.27,0.1,9.8,0.0,0.0,0.0,7.5,-5.25,-22.25,0.02,-0.01,0.83,0.56
5678,00:00:35.792,IMU1,0.3,0.04,9.83,0.0,0.0,0.0,32.25,-16.25,-40.0,0.02,-0.01,0.79,0.61
5678,00:00:35.792,IMU2,0.2,0.11,9.83,0.0,0.0,0.0,27.75,-32.25,-46.5,0.01,-0.0,0.78,0.63
5678,00:00:35.792,IMU3,0.24,0.12,9.73,0.0,0.0,0.0,18.25,-17.44,-37.0,0.01,-0.01,0.79,0.61
5678,00:00:35.792,IMU4,0.27,0.1,9.8,0.0,0.0,0.0,7.5,-5.25,-22.25,0.02,-0.01,0.83,0.56
5679,00:00:35.795,IMU1,0.3,0.04,9.83,0.0,0.0,0.0,32.25,-16.25,-40.0,0.02,-0.01,0.79,0.61
5679,00:00:35.795,IMU2,0.2,0.11,9.83,0.0,0.0,0.0,27.75,-32.25,-46.5,0.01,-0.0,0.78,0.63
5679,00:00:35.795,IMU3,0.24,0.08,9.8,0.0,0.0,0.0,18.25,-17.44,-37.0,0.01,-0.01,0.79,0.61
5679,00:00:35.795,IMU4,0.27,0.1,9.8,0.0,0.0,0.0,7.5,-5.25,-22.25,0.02,-0.01,0.83,0.56
5680,00:00:35.802,IMU1,0.3,0.04,9.83,0.0,0.0,0.0,32.25,-16.25,-40.0,0.02,-0.01,0.79,0.61
5680,00:00:35.802,IMU2,0.2,0.11,9.83,0.0,0.0,0.0,27.75,-32.25,-46.5,0.01,-0.0,0.78,0.63
5680,00:00:35.802,IMU3,0.24,0.08,9.8,0.0,0.0,0.0,18.69,-17.44,-35.38,0.01,-0.01,0.79,0.61
5680,00:00:35.802,IMU4,0.35,0.02,9.8,0.0,0.0,0.0,7.5,-5.25,-22.25,0.02,-0.01,0.83,0.56
5681,00:00:35.806,IMU1,0.34,0.08,9.75,0.0,0.0,0.0,32.25,-16.25,-40.0,0.02,-0.01,0.79,0.61
5681,00:00:35.806,IMU2,0.24,0.14,9.83,0.0,0.0,0.0,27.75,-32.25,-46.5,0.01,-0.0,0.78,0.63
5681,00:00:35.806,IMU3,0.24,0.08,9.8,0.0,0.0,0.0,18.69,-17.44,-35.38,0.01,-0.01,0.79,0.61
5681,00:00:35.806,IMU4,0.35,0.02,9.8,0.0,0.0,0.0,7.5,-5.25,-22.25,0.02,-0.01,0.83,0.56
5682,00:00:35.809,IMU1,0.34,0.08,9.75,0.0,0.0,0.0,33.12,-16.62,-40.12,0.02,-0.01,0.79,0.61
5682,00:00:35.809,IMU2,0.24,0.14,9.83,0.0,0.0,0.0,28.5,-32.88,-45.38,0.01,-0.0,0.78,0.63
5682,00:00:35.809,IMU3,0.24,0.08,9.8,0.0,0.0,0.0,18.69,-17.44,-35.38,0.01,-0.01,0.79,0.61
5682,00:00:35.809,IMU4,0.35,0.02,9.8,0.0,0.0,0.0,4.69,-5.56,-21.56,0.02,-0.01,0.83,0.56
5683,00:00:35.814,IMU1,0.34,0.08,9.75,0.0,0.0,0.0,33.12,-16.62,-40.12,0.02,-0.01,0.79,0.61
5683,00:00:35.814,IMU2,0.24,0.14,9.83,0.0,0.0,0.0,28.5,-32.88,-45.38,0.01,-0.0,0.78,0.63
5683,00:00:35.814,IMU3,0.24,0.08,9.8,0.0,0.0,0.0,18.69,-17.44,-35.38,0.01,-0.01,0.79,0.61
5683,00:00:35.814,IMU4,0.35,0.02,9.8,0.0,0.0,0.0,4.69,-5.56,-21.56,0.02,-0.01,0.83,0.56
5684,00:00:35.820,IMU1,0.34,0.08,9.75,0.0,0.0,0.0,33.12,-16.62,-40.12,0.02,-0.01,0.79,0.61
5684,00:00:35.820,IMU2,0.24,0.14,9.83,0.0,0.0,0.0,28.5,-32.88,-45.38,0.01,-0.0,0.78,0.63
5684,00:00:35.820,IMU3,0.24,0.08,9.8,0.0,0.0,0.0,18.69,-17.44,-35.38,0.01,-0.01,0.79,0.61
5684,00:00:35.820,IMU4,0.35,0.02,9.8,0.0,0.0,0.0,4.69,-5.56,-21.56,0.02,-0.01,0.83,0.56
6550,00:00:35.821,IMU5,0.07,0.29,9.74,0.0,0.0,-0.0,31.69,-13.81,-20.0,0.01,0.01,0.73,0.68
6550,00:00:35.821,IMU6,0.29,0.05,9.79,0.0,0.0,0.0,25.75,-12.44,-14.75,0.01,-0.01,0.77,0.63
6550,00:00:35.821,IMU7,0.57,0.15,9.87,0.0,0.0,0.0,17.5,-10.31,-18.5,0.03,-0.01,0.7,0.72
6551,00:00:35.824,IMU5,0.07,0.29,9.74,0.0,0.0,0.0,31.69,-13.81,-20.0,0.01,0.01,0.73,0.68
6551,00:00:35.824,IMU6,0.29,0.05,9.79,0.0,0.0,0.0,25.75,-12.44,-14.75,0.01,-0.01,0.77,0.63
6551,00:00:35.824,IMU7,0.57,0.15,9.87,0.0,0.0,0.0,17.5,-10.31,-18.5,0.03,-0.01,0.7,0.72
5685,00:00:35.823,IMU1,0.34,0.08,9.75,0.0,0.0,0.0,33.12,-16.62,-40.12,0.02,-0.01,0.79,0.61
5685,00:00:35.823,IMU2,0.24,0.14,9.83,0.0,0.0,0.0,28.5,-32.88,-45.38,0.01,-0.0,0.78,0.63
5685,00:00:35.823,IMU3,0.24,0.08,9.8,0.0,0.0,0.0,18.69,-17.44,-35.38,0.01,-0.01,0.79,0.61
5685,00:00:35.823,IMU4,0.35,0.02,9.8,0.0,0.0,0.0,4.69,-5.56,-21.56,0.02,-0.01,0.83,0.56
6552,00:00:35.830,IMU5,0.07,0.29,9.74,0.0,0.0,0.0,31.69,-13.81,-20.0,0.01,0.01,0.73,0.68
6552,00:00:35.830,IMU6,0.29,0.05,9.79,0.0,0.0,0.0,25.75,-12.44,-14.75,0.01,-0.01,0.77,0.63
6552,00:00:35.830,IMU7,0.57,0.15,9.87,0.0,0.0,0.0,17.5,-10.31,-18.5,0.03,-0.01,0.7,0.72
6553,00:00:35.833,IMU5,0.07,0.29,9.74,0.0,0.0,0.0,31.69,-13.81,-20.0,0.01,0.01,0.73,0.68
6553,00:00:35.833,IMU6,0.29,0.05,9.79,0.0,0.0,0.0,25.75,-12.44,-14.75,0.01,-0.01,0.77,0.63
6553,00:00:35.833,IMU7,0.57,0.15,9.87,0.0,0.0,0.0,17.5,-10.31,-18.5,0.03,-0.01,0.7,0.72
5686,00:00:35.831,IMU1,0.34,0.08,9.75,0.0,0.0,0.0,33.12,-16.62,-40.12,0.02,-0.01,0.79,0.61
5686,00:00:35.831,IMU2,0.24,0.14,9.83,0.0,0.0,0.0,28.5,-32.88,-45.38,0.01,-0.0,0.78,0.63
5686,00:00:35.831,IMU3,0.24,0.08,9.8,0.0,0.0,0.0,18.69,-17.44,-35.38,0.01,-0.01,0.79,0.61
5686,00:00:35.831,IMU4,0.35,0.02,9.8,0.0,0.0,0.0,4.69,-5.56,-21.56,0.02,-0.01,0.83,0.56
5687,00:00:35.835,IMU1,0.34,0.08,9.75,0.0,0.0,0.0,33.12,-16.62,-40.12,0.02,-0.01,0.79,0.61
5687,00:00:35.835,IMU2,0.24,0.14,9.83,0.0,0.0,0.0,28.5,-32.88,-45.38,0.01,-0.0,0.78,0.63
5687,00:00:35.835,IMU3,0.24,0.08,9.8,0.0,0.0,0.0,18.69,-17.44,-35.38,0.01,-0.01,0.79,0.61
5687,00:00:35.835,IMU4,0.35,0.02,9.8,0.0,0.0,0.0,4.69,-5.56,-21.56,0.02,-0.01,0.83,0.56
6554,00:00:35.838,IMU5,0.07,0.29,9.74,0.0,0.0,0.0,31.69,-13.81,-20.0,0.01,0.01,0.73,0.68
6554,00:00:35.838,IMU6,0.29,0.05,9.79,0.0,0.0,0.0,25.75,-12.44,-14.75,0.01,-0.01,0.77,0.63
6554,00:00:35.838,IMU7,0.57,0.15,9.87,0.0,0.0,0.0,17.5,-10.31,-18.5,0.03,-0.01,0.7,0.72
6555,00:00:35.842,IMU5,0.11,0.29,9.79,0.0,0.0,0.0,31.69,-13.81,-20.0,0.01,0.01,0.73,0.68
6555,00:00:35.842,IMU6,0.29,0.09,9.82,0.0,0.0,0.0,25.75,-12.44,-14.75,0.01,-0.01,0.77,0.63
6555,00:00:35.842,IMU7,0.57,0.15,9.87,0.0,0.0,0.0,17.5,-10.31,-18.5,0.03,-0.01,0.7,0.72
5688,00:00:35.839,IMU1,0.34,0.08,9.75,0.0,0.0,0.0,33.12,-16.62,-40.12,0.02,-0.01,0.79,0.61
5688,00:00:35.839,IMU2,0.24,0.14,9.83,0.0,0.0,0.0,28.5,-32.88,-45.38,0.01,-0.0,0.78,0.63
5688,00:00:35.839,IMU3,0.24,0.08,9.8,0.0,0.0,0.0,18.69,-17.44,-35.38,0.01,-0.01,0.79,0.61
5688,00:00:35.839,IMU4,0.31,0.06,9.88,0.0,0.0,0.0,4.69,-5.56,-21.56,0.02,-0.01,0.83,0.56
6556,00:00:35.849,IMU5,0.11,0.29,9.79,0.0,0.0,0.0,31.69,-13.81,-20.0,0.01,0.01,0.73,0.68
6556,00:00:35.849,IMU6,0.29,0.09,9.82,0.0,0.0,0.0,25.75,-12.44,-14.75,0.01,-0.01,0.77,0.63
6556,00:00:35.849,IMU7,0.57,0.15,9.83,0.0,0.0,0.0,17.5,-10.31,-18.5,0.03,-0.01,0.7,0.72
5689,00:00:35.845,IMU1,0.34,0.08,9.75,0.0,0.0,0.0,33.12,-16.62,-40.12,0.02,-0.01,0.79,0.61
5689,00:00:35.845,IMU2,0.28,0.11,9.79,0.0,0.0,0.0,28.5,-32.88,-45.38,0.01,-0.0,0.78,0.63
5689,00:00:35.845,IMU3,0.24,0.08,9.8,0.0,0.0,0.0,18.69,-17.44,-35.38,0.01,-0.01,0.79,0.61
5689,00:00:35.845,IMU4,0.31,0.06,9.88,0.0,0.0,0.0,4.19,-4.12,-20.19,0.02,-0.01,0.83,0.56
5690,00:00:35.850,IMU1,0.34,0.08,9.75,0.0,0.0,0.0,33.12,-16.62,-40.12,0.02,-0.01,0.79,0.61
5690,00:00:35.850,IMU2,0.28,0.11,9.79,0.0,0.0,0.0,27.75,-31.81,-45.62,0.01,-0.0,0.78,0.63
5690,00:00:35.850,IMU3,0.24,0.08,9.8,0.0,0.0,0.0,18.69,-17.44,-35.38,0.01,-0.01,0.79,0.61
5690,00:00:35.850,IMU4,0.31,0.06,9.88,0.0,0.0,0.0,4.19,-4.12,-20.19,0.02,-0.01,0.83,0.56
6557,00:00:35.852,IMU5,0.11,0.29,9.79,0.0,0.0,0.0,32.06,-14.69,-20.06,0.01,0.01,0.73,0.68
6557,00:00:35.852,IMU6,0.29,0.09,9.82,0.0,0.0,0.0,26.69,-12.69,-16.06,0.01,-0.01,0.77,0.63
6557,00:00:35.852,IMU7,0.57,0.15,9.83,0.0,0.0,0.0,19.94,-12.12,-18.38,0.03,-0.01,0.7,0.72
5691,00:00:35.855,IMU1,0.34,0.08,9.75,0.0,0.0,0.0,33.12,-16.62,-40.12,0.02,-0.01,0.79,0.61
5691,00:00:35.855,IMU2,0.28,0.11,9.79,0.0,0.0,0.0,27.75,-31.81,-45.62,0.01,-0.0,0.78,0.63
5691,00:00:35.855,IMU3,0.24,0.08,9.8,0.0,0.0,0.0,18.69,-17.44,-35.38,0.01,-0.01,0.79,0.61
5691,00:00:35.855,IMU4,0.31,0.06,9.88,0.0,0.0,0.0,4.19,-4.12,-20.19,0.02,-0.01,0.83,0.56
6558,00:00:35.856,IMU5,0.11,0.29,9.79,0.0,0.0,0.0,32.06,-14.69,-20.06,0.01,0.01,0.73,0.68
6558,00:00:35.856,IMU6,0.29,0.09,9.82,0.0,0.0,0.0,26.69,-12.69,-16.06,0.01,-0.01,0.77,0.63
6558,00:00:35.856,IMU7,0.57,0.15,9.83,0.0,0.0,0.0,19.94,-12.12,-18.38,0.03,-0.01,0.7,0.72
6559,00:00:35.860,IMU5,0.11,0.29,9.79,0.0,0.0,0.0,32.06,-14.69,-20.06,0.01,0.01,0.73,0.68
6559,00:00:35.860,IMU6,0.29,0.09,9.82,0.0,0.0,0.0,26.69,-12.69,-16.06,0.01,-0.01,0.77,0.63
6559,00:00:35.860,IMU7,0.57,0.15,9.83,0.0,0.0,0.0,19.94,-12.12,-18.38,0.03,-0.01,0.7,0.72
5692,00:00:35.861,IMU1,0.34,0.08,9.75,0.0,0.0,0.0,33.12,-16.62,-40.12,0.02,-0.01,0.79,0.61
5692,00:00:35.861,IMU2,0.28,0.11,9.79,0.0,0.0,0.0,27.75,-31.81,-45.62,0.01,-0.0,0.78,0.63
5692,00:00:35.861,IMU3,0.24,0.08,9.8,0.0,0.0,0.0,18.69,-17.44,-35.38,0.01,-0.01,0.79,0.61
5692,00:00:35.861,IMU4,0.31,0.06,9.88,0.0,0.0,0.0,4.19,-4.12,-20.19,0.02,-0.01,0.83,0.56
6560,00:00:35.864,IMU5,0.11,0.29,9.79,0.0,0.0,0.0,32.06,-14.69,-20.06,0.01,0.01,0.73,0.68
6560,00:00:35.864,IMU6,0.29,0.09,9.82,0.0,0.0,0.0,26.69,-12.69,-16.06,0.01,-0.01,0.77,0.63
6560,00:00:35.864,IMU7,0.57,0.15,9.83,0.0,0.0,0.0,19.94,-12.12,-18.38,0.03,-0.01,0.7,0.72
5693,00:00:35.866,IMU1,0.3,0.04,9.79,0.0,0.0,0.0,33.12,-16.62,-40.12,0.02,-0.01,0.79,0.61
5693,00:00:35.866,IMU2,0.28,0.11,9.79,0.0,0.0,0.0,27.75,-31.81,-45.62,0.01,-0.0,0.78,0.63
5693,00:00:35.866,IMU3,0.24,0.08,9.77,0.0,0.0,0.0,18.69,-17.44,-35.38,0.01,-0.01,0.79,0.61
5693,00:00:35.866,IMU4,0.31,0.06,9.88,0.0,0.0,0.0,4.19,-4.12,-20.19,0.02,-0.01,0.83,0.56
6561,00:00:35.868,IMU5,0.11,0.29,9.79,0.0,0.0,0.0,32.06,-14.69,-20.06,0.01,0.01,0.73,0.68
6561,00:00:35.868,IMU6,0.29,0.09,9.82,0.0,0.0,0.0,26.69,-12.69,-16.06,0.01,-0.01,0.77,0.63
6561,00:00:35.868,IMU7,0.57,0.15,9.83,0.0,0.0,0.0,19.94,-12.12,-18.38,0.03,-0.01,0.7,0.72
5694,00:00:35.871,IMU1,0.3,0.04,9.79,0.0,0.0,0.0,31.19,-16.56,-40.25,0.02,-0.01,0.79,0.61
5694,00:00:35.871,IMU2,0.28,0.11,9.79,0.0,0.0,0.0,27.75,-31.81,-45.62,0.01,-0.0,0.78,0.63
5694,00:00:35.871,IMU3,0.24,0.08,9.77,0.0,0.0,0.0,17.81,-18.44,-37.88,0.01,-0.01,0.79,0.61
5694,00:00:35.871,IMU4,0.31,0.06,9.88,0.0,0.0,0.0,4.19,-4.12,-20.19,0.02,-0.01,0.83,0.56
6562,00:00:35.874,IMU5,0.11,0.29,9.79,0.0,0.0,0.0,32.06,-14.69,-20.06,0.01,0.01,0.73,0.68
6562,00:00:35.874,IMU6,0.29,0.09,9.82,0.0,0.0,0.0,26.69,-12.69,-16.06,0.01,-0.01,0.77,0.63
6562,00:00:35.874,IMU7,0.57,0.23,9.91,0.0,0.0,0.0,19.94,-12.12,-18.38,0.03,-0.01,0.7,0.72
6563,00:00:35.879,IMU5,0.11,0.29,9.79,0.0,0.0,0.0,32.06,-14.69,-20.06,0.01,0.01,0.73,0.68
6563,00:00:35.879,IMU6,0.25,0.09,9.86,0.0,0.0,0.0,26.69,-12.69,-16.06,0.01,-0.01,0.77,0.63
6563,00:00:35.879,IMU7,0.57,0.23,9.91,0.0,0.0,0.0,19.19,-11.44,-19.12,0.03,-0.01,0.7,0.72
5695,00:00:35.876,IMU1,0.3,0.04,9.79,0.0,0.0,0.0,31.19,-16.56,-40.25,0.02,-0.01,0.79,0.61
5695,00:00:35.876,IMU2,0.28,0.11,9.79,0.0,0.0,0.0,27.75,-31.81,-45.62,0.01,-0.0,0.78,0.63
5695,00:00:35.876,IMU3,0.24,0.08,9.77,0.0,0.0,0.0,17.81,-18.44,-37.88,0.01,-0.01,0.79,0.61
5695,00:00:35.876,IMU4,0.31,0.06,9.88,0.0,0.0,0.0,4.19,-4.12,-20.19,0.02,-0.01,0.83,0.56
5696,00:00:35.882,IMU1,0.3,0.04,9.79,0.0,0.0,0.0,31.19,-16.56,-40.25,0.02,-0.01,0.79,0.61
5696,00:00:35.882,IMU2,0.28,0.11,9.79,0.0,0.0,0.0,27.75,-31.81,-45.62,0.01,-0.0,0.78,0.63
5696,00:00:35.882,IMU3,0.24,0.08,9.77,0.0,0.0,0.0,17.81,-18.44,-37.88,0.01,-0.01,0.79,0.61
5696,00:00:35.882,IMU4,0.31,0.06,9.88,0.0,0.0,0.0,4.19,-4.12,-20.19,0.02,-0.01,0.83,0.56
5697,00:00:35.886,IMU1,0.3,0.04,9.79,0.0,0.0,0.0,31.19,-16.56,-40.25,0.02,-0.01,0.79,0.61
5697,00:00:35.886,IMU2,0.28,0.11,9.79,0.0,0.0,0.0,27.75,-31.81,-45.62,0.01,-0.0,0.78,0.63
5697,00:00:35.886,IMU3,0.24,0.08,9.77,0.0,0.0,0.0,17.81,-18.44,-37.88,0.01,-0.01,0.79,0.61
5697,00:00:35.886,IMU4,0.31,0.06,9.88,0.0,0.0,0.0,4.19,-4.12,-20.19,0.02,-0.01,0.83,0.56
5698,00:00:35.892,IMU1,0.3,0.04,9.79,0.0,0.0,0.0,31.19,-16.56,-40.25,0.02,-0.01,0.79,0.61
5698,00:00:35.892,IMU2,0.28,0.11,9.79,0.0,0.0,0.0,28.88,-32.62,-46.5,0.01,-0.0,0.78,0.63
5698,00:00:35.892,IMU3,0.24,0.08,9.77,0.0,0.0,0.0,17.81,-18.44,-37.88,0.01,-0.01,0.79,0.61
5698,00:00:35.892,IMU4,0.35,0.06,9.84,0.0,0.0,0.0,4.19,-4.12,-20.19,0.02,-0.01,0.83,0.56
6564,00:00:35.883,IMU5,0.11,0.29,9.79,0.0,0.0,0.0,32.06,-14.69,-20.06,0.01,0.01,0.73,0.68
6564,00:00:35.883,IMU6,0.25,0.09,9.86,0.0,0.0,0.0,26.69,-12.69,-16.06,0.01,-0.01,0.77,0.63
6564,00:00:35.883,IMU7,0.57,0.23,9.91,0.0,0.0,0.0,19.19,-11.44,-19.12,0.03,-0.01,0.7,0.72
6565,00:00:35.888,IMU5,0.11,0.29,9.79,0.0,0.0,0.0,32.06,-14.69,-20.06,0.01,0.01,0.73,0.68
6565,00:00:35.888,IMU6,0.25,0.09,9.86,0.0,0.0,0.0,26.25,-12.75,-15.62,0.01,-0.01,0.77,0.63
6565,00:00:35.888,IMU7,0.57,0.23,9.91,0.0,0.0,0.0,19.19,-11.44,-19.12,0.03,-0.01,0.7,0.72
6566,00:00:35.893,IMU5,0.11,0.29,9.79,0.0,0.0,0.0,32.06,-14.69,-20.06,0.01,0.01,0.73,0.68
6566,00:00:35.893,IMU6,0.25,0.09,9.86,0.0,0.0,0.0,26.25,-12.75,-15.62,0.01,-0.01,0.77,0.63
6566,00:00:35.893,IMU7,0.57,0.23,9.91,0.0,0.0,0.0,19.19,-11.44,-19.12,0.03,-0.01,0.7,0.72
6567,00:00:35.901,IMU5,0.03,0.25,9.79,0.0,0.0,0.0,32.06,-14.69,-20.06,0.01,0.01,0.73,0.68
6567,00:00:35.901,IMU6,0.25,0.09,9.86,0.0,0.0,0.0,26.25,-12.75,-15.62,0.01,-0.01,0.77,0.63
6567,00:00:35.901,IMU7,0.57,0.23,9.91,0.0,0.0,0.0,19.19,-11.44,-19.12,0.03,-0.01,0.7,0.72
6568,00:00:35.908,IMU5,0.03,0.25,9.79,0.0,0.0,0.0,32.31,-14.19,-19.38,0.01,0.01,0.73,0.68
6568,00:00:35.908,IMU6,0.25,0.09,9.86,0.0,0.0,0.0,26.25,-12.75,-15.62,0.01,-0.01,0.77,0.63
6568,00:00:35.908,IMU7,0.57,0.23,9.91,0.0,0.0,0.0,19.19,-11.44,-19.12,0.03,-0.01,0.7,0.72
6569,00:00:35.912,IMU5,0.03,0.25,9.79,0.0,0.0,0.0,32.31,-14.19,-19.38,0.01,0.01,0.73,0.68
6569,00:00:35.912,IMU6,0.25,0.09,9.86,0.0,0.0,0.0,26.25,-12.75,-15.62,0.01,-0.01,0.77,0.63
6569,00:00:35.912,IMU7,0.57,0.23,9.91,0.0,0.0,0.0,19.19,-11.44,-19.12,0.03,-0.01,0.7,0.72
6570,00:00:35.917,IMU5,0.03,0.25,9.79,0.0,0.0,0.0,32.31,-14.19,-19.38,0.01,0.01,0.73,0.68
6570,00:00:35.917,IMU6,0.25,0.09,9.86,0.0,0.0,0.0,26.25,-12.75,-15.62,0.01,-0.01,0.77,0.63
6570,00:00:35.917,IMU7,0.57,0.23,9.91,0.0,0.0,0.0,19.19,-11.44,-19.12,0.03,-0.01,0.7,0.72
6571,00:00:35.921,IMU5,0.03,0.25,9.79,0.0,0.0,0.0,32.31,-14.19,-19.38,0.01,0.01,0.73,0.68
6571,00:00:35.921,IMU6,0.29,0.09,9.78,0.0,0.0,0.0,26.25,-12.75,-15.62,0.01,-0.01,0.77,0.63
6571,00:00:35.921,IMU7,0.57,0.23,9.91,0.0,0.0,0.0,19.19,-11.44,-19.12,0.03,-0.01,0.7,0.72
6572,00:00:35.926,IMU5,0.03,0.25,9.79,0.0,0.0,0.0,32.31,-14.19,-19.38,0.01,0.01,0.73,0.68
6572,00:00:35.926,IMU6,0.29,0.09,9.78,0.0,0.0,0.0,26.69,-12.38,-16.06,0.01,-0.01,0.77,0.63
6572,00:00:35.926,IMU7,0.54,0.15,9.75,0.0,0.0,0.0,19.19,-11.44,-19.12,0.03,-0.01,0.7,0.72
6573,00:00:35.930,IMU5,0.03,0.25,9.79,0.0,0.0,0.0,32.31,-14.19,-19.38,0.01,0.01,0.73,0.68
6573,00:00:35.930,IMU6,0.29,0.09,9.78,0.0,0.0,0.0,26.69,-12.38,-16.06,0.01,-0.01,0.77,0.63
6573,00:00:35.930,IMU7,0.54,0.15,9.75,0.0,0.0,0.0,18.75,-11.06,-19.06,0.03,-0.01,0.7,0.72
6574,00:00:35.936,IMU5,0.03,0.25,9.79,0.0,0.0,0.0,32.31,-14.19,-19.38,0.01,0.01,0.73,0.68
6574,00:00:35.936,IMU6,0.29,0.09,9.78,0.0,0.0,0.0,26.69,-12.38,-16.06,0.01,-0.01,0.77,0.63
6574,00:00:35.936,IMU7,0.54,0.15,9.75,0.0,0.0,0.0,18.75,-11.06,-19.06,0.03,-0.01,0.7,0.72
6575,00:00:35.939,IMU5,0.07,0.29,9.78,0.0,0.0,0.0,32.31,-14.19,-19.38,0.01,0.01,0.73,0.68
6575,00:00:35.939,IMU6,0.29,0.09,9.78,0.0,0.0,0.0,26.69,-12.38,-16.06,0.01,-0.01,0.77,0.63
6575,00:00:35.939,IMU7,0.54,0.15,9.75,0.0,0.0,0.0,18.75,-11.06,-19.06,0.03,-0.01,0.7,0.72
5699,00:00:35.896,IMU1,0.3,0.04,9.79,0.0,0.0,0.0,31.19,-16.56,-40.25,0.02,-0.01,0.79,0.61
5699,00:00:35.896,IMU2,0.28,0.11,9.79,0.0,0.0,0.0,28.88,-32.62,-46.5,0.01,-0.0,0.78,0.63
5699,00:00:35.896,IMU3,0.24,0.08,9.77,0.0,0.0,0.0,17.81,-18.44,-37.88,0.01,-0.01,0.79,0.61
5699,00:00:35.896,IMU4,0.35,0.06,9.84,0.0,0.0,0.0,4.19,-4.12,-20.19,0.02,-0.01,0.83,0.56
5700,00:00:35.900,IMU1,0.3,0.04,9.79,0.0,0.0,0.0,31.19,-16.56,-40.25,0.02,-0.01,0.79,0.61
5700,00:00:35.900,IMU2,0.28,0.11,9.79,0.0,0.0,0.0,28.88,-32.62,-46.5,0.01,-0.0,0.78,0.63
5700,00:00:35.900,IMU3,0.24,0.08,9.77,0.0,0.0,0.0,17.81,-18.44,-37.88,0.01,-0.01,0.79,0.61
5700,00:00:35.900,IMU4,0.35,0.06,9.84,0.0,0.0,0.0,4.56,-6.25,-19.94,0.02,-0.01,0.83,0.56
5701,00:00:35.906,IMU1,0.3,0.04,9.79,0.0,0.0,0.0,31.19,-16.56,-40.25,0.02,-0.01,0.79,0.61
5701,00:00:35.906,IMU2,0.28,0.11,9.79,0.0,0.0,0.0,28.88,-32.62,-46.5,0.01,-0.0,0.78,0.63
5701,00:00:35.906,IMU3,0.24,0.08,9.77,0.0,0.0,0.0,17.81,-18.44,-37.88,0.01,-0.01,0.79,0.61
5701,00:00:35.906,IMU4,0.35,0.06,9.84,0.0,0.0,0.0,4.56,-6.25,-19.94,0.02,-0.01,0.83,0.56
5702,00:00:35.912,IMU1,0.3,0.04,9.79,0.0,0.0,0.0,31.19,-16.56,-40.25,0.02,-0.01,0.79,0.61
5702,00:00:35.912,IMU2,0.28,0.11,9.79,0.0,0.0,0.0,28.88,-32.62,-46.5,0.01,-0.0,0.78,0.63
5702,00:00:35.912,IMU3,0.24,0.08,9.77,0.0,0.0,0.0,17.81,-18.44,-37.88,0.01,-0.01,0.79,0.61
5702,00:00:35.912,IMU4,0.35,0.06,9.84,0.0,0.0,0.0,4.56,-6.25,-19.94,0.02,-0.01,0.83,0.56
5703,00:00:35.916,IMU1,0.34,0.04,9.83,0.0,0.0,0.0,31.19,-16.56,-40.25,0.02,-0.01,0.79,0.61
5703,00:00:35.916,IMU2,0.28,0.11,9.79,0.0,0.0,0.0,28.88,-32.62,-46.5,0.01,-0.0,0.78,0.63
5703,00:00:35.916,IMU3,0.24,0.08,9.77,0.0,0.0,0.0,17.81,-18.44,-37.88,0.01,-0.01,0.79,0.61
5703,00:00:35.916,IMU4,0.35,0.06,9.84,0.0,0.0,0.0,4.56,-6.25,-19.94,0.02,-0.01,0.83,0.56
5704,00:00:35.923,IMU1,0.34,0.04,9.83,0.0,0.0,0.0,31.19,-16.56,-40.25,0.02,-0.01,0.79,0.61
5704,00:00:35.923,IMU2,0.28,0.11,9.79,0.0,0.0,0.0,28.88,-32.62,-46.5,0.01,-0.0,0.78,0.63
5704,00:00:35.923,IMU3,0.24,0.08,9.77,0.0,0.0,0.0,17.81,-18.44,-37.88,0.01,-0.01,0.79,0.61
5704,00:00:35.923,IMU4,0.27,0.06,9.88,0.0,0.0,0.0,4.56,-6.25,-19.94,0.02,-0.01,0.83,0.56
5705,00:00:35.927,IMU1,0.34,0.04,9.83,0.0,0.0,0.0,32.94,-17.19,-41.44,0.02,-0.01,0.79,0.61
5705,00:00:35.927,IMU2,0.28,0.11,9.79,0.0,0.0,0.0,28.88,-32.62,-46.5,0.01,-0.0,0.78,0.63
5705,00:00:35.927,IMU3,0.24,0.08,9.77,0.0,0.0,0.0,17.81,-18.44,-37.88,0.01,-0.01,0.79,0.61
5705,00:00:35.927,IMU4,0.27,0.06,9.88,0.0,0.0,0.0,5.25,-6.12,-21.5,0.02,-0.01,0.83,0.56
5706,00:00:35.932,IMU1,0.34,0.04,9.83,0.0,0.0,0.0,32.94,-17.19,-41.44,0.02,-0.01,0.79,0.61
5706,00:00:35.932,IMU2,0.28,0.11,9.79,0.0,0.0,0.0,28.88,-32.62,-46.5,0.01,-0.0,0.78,0.63
5706,00:00:35.932,IMU3,0.24,0.08,9.77,0.0,0.0,0.0,17.81,-18.44,-37.88,0.01,-0.01,0.79,0.61
5706,00:00:35.932,IMU4,0.27,0.06,9.88,0.0,0.0,0.0,5.25,-6.12,-21.5,0.02,-0.01,0.83,0.56
5707,00:00:35.936,IMU1,0.34,0.04,9.83,0.0,0.0,0.0,32.94,-17.19,-41.44,0.02,-0.01,0.79,0.61
5707,00:00:35.936,IMU2,0.28,0.11,9.79,0.0,0.0,0.0,28.88,-32.62,-46.5,0.01,-0.0,0.78,0.63
5707,00:00:35.936,IMU3,0.24,0.08,9.8,0.0,0.0,0.0,17.81,-18.44,-37.88,0.01,-0.01,0.79,0.61
5707,00:00:35.936,IMU4,0.27,0.06,9.88,0.0,0.0,0.0,5.25,-6.12,-21.5,0.02,-0.01,0.83,0.56
5708,00:00:35.941,IMU1,0.34,0.04,9.83,0.0,0.0,0.0,32.94,-17.19,-41.44,0.02,-0.01,0.79,0.61
5708,00:00:35.941,IMU2,0.28,0.11,9.79,0.0,0.0,0.0,28.88,-32.62,-46.5,0.01,-0.0,0.78,0.63
5708,00:00:35.941,IMU3,0.24,0.08,9.8,0.0,0.0,0.0,17.81,-18.44,-37.88,0.01,-0.01,0.79,0.61
5708,00:00:35.941,IMU4,0.27,0.06,9.88,0.0,0.0,0.0,5.25,-6.12,-21.5,0.02,-0.01,0.83,0.56
6576,00:00:35.943,IMU5,0.07,0.29,9.78,0.0,0.0,0.0,31.69,-15.5,-20.5,0.01,0.01,0.73,0.68
6576,00:00:35.943,IMU6,0.29,0.09,9.78,0.0,0.0,0.0,26.69,-12.38,-16.06,0.01,-0.01,0.77,0.63
6576,00:00:35.943,IMU7,0.54,0.15,9.75,0.0,0.0,0.0,18.75,-11.06,-19.06,0.03,-0.01,0.7,0.72
6577,00:00:35.946,IMU5,0.07,0.29,9.78,0.0,0.0,0.0,31.69,-15.5,-20.5,0.01,0.01,0.73,0.68
6577,00:00:35.946,IMU6,0.29,0.09,9.78,0.0,0.0,0.0,26.69,-12.38,-16.06,0.01,-0.01,0.77,0.63
6577,00:00:35.946,IMU7,0.54,0.15,9.75,0.0,0.0,0.0,18.75,-11.06,-19.06,0.03,-0.01,0.7,0.72
5709,00:00:35.944,IMU1,0.34,0.04,9.83,0.0,0.0,0.0,32.94,-17.19,-41.44,0.02,-0.01,0.79,0.61
5709,00:00:35.944,IMU2,0.28,0.14,9.83,0.0,0.0,0.0,28.88,-32.62,-46.5,0.01,-0.0,0.78,0.63
5709,00:00:35.944,IMU3,0.24,0.08,9.8,0.0,0.0,0.0,17.75,-21.31,-38.56,0.01,-0.01,0.79,0.61
5709,00:00:35.944,IMU4,0.27,0.06,9.88,0.0,0.0,0.0,5.25,-6.12,-21.5,0.02,-0.01,0.83,0.56
6578,00:00:35.952,IMU5,0.07,0.29,9.78,0.0,0.0,0.0,31.69,-15.5,-20.5,0.01,0.01,0.73,0.68
6578,00:00:35.952,IMU6,0.29,0.09,9.78,0.0,0.0,0.0,26.69,-12.38,-16.06,0.01,-0.01,0.77,0.63
6578,00:00:35.952,IMU7,0.57,0.15,9.79,0.0,0.0,0.0,18.75,-11.06,-19.06,0.03,-0.01,0.7,0.72
6579,00:00:35.955,IMU5,-0.01,0.32,9.78,0.0,0.0,0.0,31.69,-15.5,-20.5,0.01,0.01,0.73,0.68
6579,00:00:35.955,IMU6,0.22,0.09,9.82,0.0,0.0,0.0,26.69,-12.38,-16.06,0.01,-0.01,0.77,0.63
6579,00:00:35.955,IMU7,0.57,0.15,9.79,0.0,0.0,0.0,18.75,-12.44,-18.25,0.03,-0.01,0.7,0.72
6580,00:00:35.959,IMU5,-0.01,0.32,9.78,0.0,0.0,0.0,32.31,-13.31,-19.31,0.01,0.01,0.73,0.68
6580,00:00:35.959,IMU6,0.22,0.09,9.82,0.0,0.0,0.0,27.38,-11.75,-14.94,0.01,-0.01,0.77,0.63
6580,00:00:35.959,IMU7,0.57,0.15,9.79,0.0,0.0,0.0,18.75,-12.44,-18.25,0.03,-0.01,0.7,0.72
6581,00:00:35.962,IMU5,-0.01,0.32,9.78,0.0,0.0,0.0,32.31,-13.31,-19.31,0.01,0.01,0.73,0.68
6581,00:00:35.962,IMU6,0.22,0.09,9.82,0.0,0.0,0.0,27.38,-11.75,-14.94,0.01,-0.01,0.77,0.63
6581,00:00:35.962,IMU7,0.57,0.15,9.79,0.0,0.0,0.0,18.75,-12.44,-18.25,0.03,-0.01,0.7,0.72
6582,00:00:35.966,IMU5,-0.01,0.32,9.78,0.0,0.0,0.0,32.31,-13.31,-19.31,0.01,0.01,0.73,0.68
6582,00:00:35.966,IMU6,0.22,0.09,9.82,0.0,0.0,0.0,27.38,-11.75,-14.94,0.01,-0.01,0.77,0.63
6582,00:00:35.966,IMU7,0.57,0.15,9.79,0.0,0.0,0.0,18.75,-12.44,-18.25,0.03,-0.01,0.7,0.72
6583,00:00:35.969,IMU5,-0.01,0.32,9.78,0.0,0.0,0.0,32.31,-13.31,-19.31,0.01,0.01,0.73,0.68
6583,00:00:35.969,IMU6,0.22,0.09,9.82,0.0,0.0,0.0,27.38,-11.75,-14.94,0.01,-0.01,0.77,0.63
6583,00:00:35.969,IMU7,0.57,0.15,9.79,0.0,0.0,0.0,18.75,-12.44,-18.25,0.03,-0.01,0.7,0.72
6584,00:00:35.976,IMU5,-0.01,0.32,9.78,0.0,0.0,0.0,32.31,-13.31,-19.31,0.01,0.01,0.73,0.68
6584,00:00:35.976,IMU6,0.22,0.09,9.82,0.0,0.0,0.0,27.38,-11.75,-14.94,0.01,-0.01,0.77,0.63
6584,00:00:35.976,IMU7,0.61,0.19,9.83,0.0,0.0,0.0,18.75,-12.44,-18.25,0.03,-0.01,0.7,0.72
6585,00:00:35.979,IMU5,0.03,0.29,9.79,0.0,0.0,0.0,32.31,-13.31,-19.31,0.01,0.01,0.73,0.68
6585,00:00:35.979,IMU6,0.22,0.09,9.78,0.0,0.0,0.0,27.38,-11.75,-14.94,0.01,-0.01,0.77,0.63
6585,00:00:35.979,IMU7,0.61,0.19,9.83,0.0,0.0,0.0,19.06,-10.69,-17.88,0.03,-0.01,0.7,0.72
6586,00:00:35.983,IMU5,0.03,0.29,9.79,0.0,0.0,0.0,33.06,-14.62,-19.81,0.01,0.01,0.73,0.68
6586,00:00:35.983,IMU6,0.22,0.09,9.78,0.0,0.0,0.0,26.31,-13.38,-16.0,0.01,-0.01,0.77,0.63
6586,00:00:35.983,IMU7,0.61,0.19,9.83,0.01,-0.0,0.01,19.06,-10.69,-17.88,0.03,-0.01,0.7,0.72
5710,00:00:35.949,IMU1,0.34,0.04,9.83,0.0,0.0,0.0,32.94,-17.19,-41.44,0.02,-0.01,0.79,0.61
5710,00:00:35.949,IMU2,0.28,0.14,9.83,0.0,0.0,0.0,29.25,-29.62,-45.44,0.01,-0.0,0.78,0.63
5710,00:00:35.949,IMU3,0.24,0.08,9.8,0.0,0.0,0.0,17.75,-21.31,-38.56,0.01,-0.01,0.79,0.61
5710,00:00:35.949,IMU4,0.27,0.06,9.88,0.0,0.0,0.0,5.25,-6.12,-21.5,0.02,-0.01,0.83,0.56
5711,00:00:35.954,IMU1,0.34,0.04,9.83,0.0,0.0,0.0,32.94,-17.19,-41.44,0.02,-0.01,0.79,0.61
5711,00:00:35.954,IMU2,0.28,0.14,9.83,0.0,0.0,0.0,29.25,-29.62,-45.44,0.01,-0.0,0.78,0.63
5711,00:00:35.954,IMU3,0.24,0.08,9.8,0.0,0.0,0.0,17.75,-21.31,-38.56,0.01,-0.01,0.79,0.61
5711,00:00:35.954,IMU4,0.27,0.06,9.88,0.0,0.0,0.0,5.25,-6.12,-21.5,0.02,-0.01,0.83,0.56
5712,00:00:35.960,IMU1,0.34,0.04,9.83,0.0,0.0,0.0,32.94,-17.19,-41.44,0.02,-0.01,0.79,0.61
5712,00:00:35.960,IMU2,0.28,0.14,9.83,0.0,0.0,0.0,29.25,-29.62,-45.44,0.01,-0.0,0.78,0.63
5712,00:00:35.960,IMU3,0.24,0.08,9.8,0.0,0.0,0.0,17.75,-21.31,-38.56,0.01,-0.01,0.79,0.61
5712,00:00:35.960,IMU4,0.35,0.06,9.84,0.0,0.0,0.0,5.25,-6.12,-21.5,0.02,-0.01,0.83,0.56
5713,00:00:35.964,IMU1,0.34,-0.03,9.83,0.0,0.0,0.0,32.94,-17.19,-41.44,0.02,-0.01,0.79,0.61
5713,00:00:35.964,IMU2,0.28,0.14,9.83,0.0,0.0,0.0,29.25,-29.62,-45.44,0.01,-0.0,0.78,0.63
5713,00:00:35.964,IMU3,0.24,0.08,9.8,0.0,0.0,0.0,17.75,-21.31,-38.56,0.01,-0.01,0.79,0.61
5713,00:00:35.964,IMU4,0.35,0.06,9.84,0.0,0.0,0.0,4.44,-5.12,-20.5,0.02,-0.01,0.83,0.56
5714,00:00:35.969,IMU1,0.34,-0.03,9.83,0.0,0.0,0.0,32.69,-16.88,-40.06,0.02,-0.01,0.79,0.61
5714,00:00:35.969,IMU2,0.28,0.14,9.83,0.0,0.0,0.0,29.25,-29.62,-45.44,0.01,-0.0,0.78,0.63
5714,00:00:35.969,IMU3,0.24,0.08,9.8,0.0,0.0,0.0,17.75,-21.31,-38.56,0.01,-0.01,0.79,0.61
5714,00:00:35.969,IMU4,0.35,0.06,9.84,0.0,0.0,0.0,4.44,-5.12,-20.5,0.02,-0.01,0.83,0.56
5715,00:00:35.973,IMU1,0.34,-0.03,9.83,0.0,0.0,0.0,32.69,-16.88,-40.06,0.02,-0.01,0.79,0.61
5715,00:00:35.973,IMU2,0.28,0.14,9.83,0.0,0.0,0.0,29.25,-29.62,-45.44,0.01,-0.0,0.78,0.63
5715,00:00:35.973,IMU3,0.24,0.08,9.8,0.0,0.0,0.0,17.75,-21.31,-38.56,0.01,-0.01,0.79,0.61
5715,00:00:35.973,IMU4,0.35,0.06,9.84,0.0,0.0,0.0,4.44,-5.12,-20.5,0.02,-0.01,0.83,0.56
6587,00:00:35.986,IMU5,0.03,0.29,9.79,0.0,0.0,0.0,33.06,-14.62,-19.81,0.01,0.01,0.73,0.68
6587,00:00:35.986,IMU6,0.22,0.09,9.78,0.0,0.0,0.0,26.31,-13.38,-16.0,0.01,-0.01,0.77,0.63
6587,00:00:35.986,IMU7,0.61,0.19,9.83,0.01,-0.0,0.01,19.06,-10.69,-17.88,0.03,-0.01,0.7,0.72
6588,00:00:35.991,IMU5,0.03,0.29,9.79,0.0,0.0,0.0,33.06,-14.62,-19.81,0.01,0.01,0.73,0.68
6588,00:00:35.991,IMU6,0.22,0.09,9.78,0.0,0.0,0.0,26.31,-13.38,-16.0,0.01,-0.01,0.77,0.63
6588,00:00:35.991,IMU7,0.61,0.19,9.83,-0.0,-0.01,0.0,19.06,-10.69,-17.88,0.03,-0.01,0.7,0.72
5716,00:00:35.977,IMU1,0.34,-0.03,9.83,0.0,0.0,0.0,32.69,-16.88,-40.06,0.02,-0.01,0.79,0.61
5716,00:00:35.977,IMU2,0.28,0.14,9.83,0.0,0.0,0.0,29.25,-29.62,-45.44,0.01,-0.0,0.78,0.63
5716,00:00:35.977,IMU3,0.24,0.08,9.8,0.0,0.0,0.0,17.75,-21.31,-38.56,0.01,-0.01,0.79,0.61
5716,00:00:35.977,IMU4,0.35,0.06,9.84,0.0,0.0,0.0,4.44,-5.12,-20.5,0.02,-0.01,0.83,0.56
5717,00:00:35.984,IMU1,0.34,-0.03,9.83,0.0,0.0,0.0,32.69,-16.88,-40.06,0.02,-0.01,0.79,0.61
5717,00:00:35.984,IMU2,0.24,0.11,9.79,0.0,0.0,0.0,29.25,-29.62,-45.44,0.01,-0.0,0.78,0.63
5717,00:00:35.984,IMU3,0.24,0.05,9.77,0.0,0.0,0.0,17.75,-21.31,-38.56,0.01,-0.01,0.79,0.61
5717,00:00:35.984,IMU4,0.35,0.06,9.84,0.0,0.0,0.0,4.44,-5.12,-20.5,0.02,-0.01,0.83,0.56
5718,00:00:35.989,IMU1,0.34,-0.03,9.83,0.0,0.0,0.0,32.69,-16.88,-40.06,0.02,-0.01,0.79,0.61
5718,00:00:35.989,IMU2,0.24,0.11,9.79,0.0,0.0,0.0,27.38,-31.81,-46.06,0.01,-0.0,0.78,0.63
5718,00:00:35.989,IMU3,0.24,0.05,9.77,0.0,0.0,0.0,17.75,-21.31,-38.56,0.01,-0.01,0.79,0.61
5718,00:00:35.989,IMU4,0.35,0.06,9.84,0.0,0.0,0.0,4.44,-5.12,-20.5,0.02,-0.01,0.83,0.56
5719,00:00:35.995,IMU1,0.34,-0.03,9.83,0.0,0.0,0.0,32.69,-16.88,-40.06,0.02,-0.01,0.79,0.61
5719,00:00:35.995,IMU2,0.24,0.11,9.79,0.0,0.0,0.0,27.38,-31.81,-46.06,0.01,-0.0,0.78,0.63
5719,00:00:35.995,IMU3,0.24,0.05,9.77,0.0,0.0,0.0,18.56,-17.75,-38.25,0.01,-0.01,0.79,0.61
5719,00:00:35.995,IMU4,0.35,0.06,9.84,0.0,0.0,0.0,4.44,-5.12,-20.5,0.02,-0.01,0.83,0.56
5720,00:00:36.001,IMU1,0.34,-0.03,9.83,0.0,0.0,0.0,32.69,-16.88,-40.06,0.02,-0.01,0.79,0.61
5720,00:00:36.001,IMU2,0.24,0.11,9.79,0.0,0.0,0.0,27.38,-31.81,-46.06,0.01,-0.0,0.78,0.63
5720,00:00:36.001,IMU3,0.24,0.05,9.77,0.0,0.0,0.0,18.56,-17.75,-38.25,0.01,-0.01,0.79,0.61
5720,00:00:36.001,IMU4,0.31,0.02,9.8,0.0,0.0,0.0,4.44,-5.12,-20.5,0.02,-0.01,0.83,0.56
5721,00:00:36.004,IMU1,0.34,-0.03,9.83,0.0,0.0,0.0,32.69,-16.88,-40.06,0.02,-0.01,0.79,0.61
5721,00:00:36.004,IMU2,0.24,0.11,9.79,0.0,0.0,0.0,27.38,-31.81,-46.06,0.01,-0.0,0.78,0.63
5721,00:00:36.004,IMU3,0.24,0.05,9.77,0.0,0.0,0.0,18.56,-17.75,-38.25,0.01,-0.01,0.79,0.61
5721,00:00:36.004,IMU4,0.31,0.02,9.8,0.0,0.0,0.0,4.62,-6.81,-19.5,0.02,-0.01,0.83,0.56
5722,00:00:36.009,IMU1,0.34,-0.03,9.83,0.0,0.0,0.0,32.69,-16.88,-40.06,0.02,-0.01,0.79,0.61
5722,00:00:36.009,IMU2,0.24,0.11,9.79,0.0,0.0,0.0,27.38,-31.81,-46.06,0.01,-0.0,0.78,0.63
5722,00:00:36.009,IMU3,0.24,0.05,9.77,0.0,0.0,0.0,18.56,-17.75,-38.25,0.01,-0.01,0.79,0.61
5722,00:00:36.009,IMU4,0.31,0.02,9.8,0.0,0.0,0.0,4.62,-6.81,-19.5,0.02,-0.01,0.83,0.56
5723,00:00:36.013,IMU1,0.3,-0.07,9.83,0.0,0.0,0.0,32.69,-16.88,-40.06,0.02,-0.01,0.79,0.61
5723,00:00:36.013,IMU2,0.24,0.11,9.79,0.0,0.0,0.0,27.38,-31.81,-46.06,0.01,-0.0,0.78,0.63
5723,00:00:36.013,IMU3,0.24,0.05,9.77,0.0,0.0,0.0,18.56,-17.75,-38.25,0.01,-0.01,0.79,0.61
5723,00:00:36.013,IMU4,0.31,0.02,9.8,0.0,0.0,0.0,4.62,-6.81,-19.5,0.02,-0.01,0.83,0.56
5724,00:00:36.019,IMU1,0.3,-0.07,9.83,0.0,0.0,0.0,33.75,-17.81,-41.12,0.02,-0.01,0.79,0.61
5724,00:00:36.019,IMU2,0.24,0.11,9.79,0.0,0.0,0.0,27.38,-31.81,-46.06,0.01,-0.0,0.78,0.63
5724,00:00:36.019,IMU3,0.24,0.05,9.77,0.0,0.0,0.0,18.56,-17.75,-38.25,0.01,-0.01,0.79,0.61
5724,00:00:36.019,IMU4,0.31,0.02,9.8,0.0,0.0,0.0,4.62,-6.81,-19.5,0.02,-0.01,0.83,0.56
5725,00:00:36.027,IMU1,0.3,-0.07,9.83,0.0,0.0,0.0,33.75,-17.81,-41.12,0.02,-0.01,0.79,0.61
