Count,Timestamp,IMU,AccelX,AccelY,AccelZ,GyroX,GyroY,GyroZ,MagX,MagY,MagZ,QuatW,QuatX,QuatY,QuatZ
36909,00:03:21.583,IMU5,-0.27,6.82,-7.21,0.0,0.0,0.0,15.12,-59.44,-16.19,0.9,0.22,0.07,0.36
36909,00:03:21.583,IMU6,2.11,-9.65,0.46,0.0,-0.0,-0.01,0.62,42.19,-1.94,-0.44,-0.53,0.44,0.57
36909,00:03:21.583,IMU7,-1.15,2.95,9.08,0.01,-0.0,0.0,23.19,-16.38,-40.25,0.05,0.16,0.76,0.62
36910,00:03:21.586,IMU5,-0.27,6.82,-7.21,0.0,0.0,0.0,12.81,-59.75,-16.38,0.9,0.22,0.07,0.36
36910,00:03:21.586,IMU6,2.11,-9.65,0.46,0.0,-0.0,-0.01,0.62,42.19,-1.94,-0.44,-0.53,0.44,0.57
36910,00:03:21.586,IMU7,-1.15,2.95,9.08,0.01,-0.0,0.0,22.94,-17.56,-40.69,0.05,0.16,0.76,0.62
36911,00:03:21.591,IMU5,-0.27,6.82,-7.21,0.0,0.0,0.0,12.81,-59.75,-16.38,0.9,0.22,0.07,0.36
36911,00:03:21.591,IMU6,2.11,-9.65,0.46,0.0,0.0,0.0,0.62,42.19,-1.94,-0.44,-0.53,0.44,0.57
36911,00:03:21.591,IMU7,-1.15,2.95,9.08,0.01,-0.0,0.0,22.94,-17.56,-40.69,0.05,0.16,0.76,0.62
36912,00:03:21.597,IMU5,-0.27,6.82,-7.21,0.0,0.0,0.0,12.81,-59.75,-16.38,0.9,0.22,0.07,0.36
36912,00:03:21.597,IMU6,2.11,-9.65,0.46,0.0,0.0,0.0,0.62,42.19,-1.94,-0.44,-0.53,0.44,0.57
36912,00:03:21.597,IMU7,-1.15,2.95,9.08,-0.01,0.01,0.0,22.94,-17.56,-40.69,0.05,0.16,0.76,0.62
36913,00:03:21.601,IMU5,-0.27,6.82,-7.21,0.0,0.0,0.0,12.81,-59.75,-16.38,0.9,0.22,0.07,0.36
36913,00:03:21.601,IMU6,2.07,-9.61,0.34,0.0,0.0,0.0,0.62,42.19,-1.94,-0.44,-0.53,0.44,0.57
36913,00:03:21.601,IMU7,-1.15,2.95,9.08,-0.01,0.01,0.0,22.94,-17.56,-40.69,0.05,0.16,0.76,0.62
36914,00:03:21.606,IMU5,-0.27,6.82,-7.21,0.0,0.0,0.0,12.81,-59.75,-16.38,0.9,0.22,0.07,0.36
36914,00:03:21.606,IMU6,2.07,-9.61,0.34,0.0,0.0,0.0,-0.06,41.44,-2.25,-0.44,-0.53,0.44,0.57
36914,00:03:21.606,IMU7,-1.15,2.95,9.08,0.0,-0.0,-0.01,22.94,-17.56,-40.69,0.05,0.16,0.76,0.62
36915,00:03:21.611,IMU5,-0.27,6.82,-7.21,0.0,0.0,0.0,12.81,-59.75,-16.38,0.9,0.22,0.07,0.36
36915,00:03:21.611,IMU6,2.07,-9.61,0.34,-0.01,0.0,0.0,-0.06,41.44,-2.25,-0.44,-0.53,0.44,0.57
36915,00:03:21.611,IMU7,-1.15,2.95,9.08,0.0,-0.0,-0.01,22.94,-17.56,-40.69,0.05,0.16,0.76,0.62
36916,00:03:21.617,IMU5,-0.27,6.82,-7.21,0.0,0.0,0.0,12.81,-59.75,-16.38,0.9,0.22,0.07,0.36
36916,00:03:21.617,IMU6,2.07,-9.61,0.34,-0.01,0.0,0.0,-0.06,41.44,-2.25,-0.44,-0.53,0.44,0.57
36916,00:03:21.617,IMU7,-1.15,2.87,9.12,0.0,-0.0,-0.01,22.94,-17.56,-40.69,0.05,0.16,0.76,0.62
36917,00:03:21.621,IMU5,-0.27,6.82,-7.21,0.0,0.0,0.0,12.81,-59.75,-16.38,0.9,0.22,0.07,0.36
36917,00:03:21.621,IMU6,2.07,-9.61,0.34,0.0,-0.0,-0.0,-0.06,41.44,-2.25,-0.44,-0.53,0.44,0.57
36917,00:03:21.621,IMU7,-1.15,2.87,9.12,0.0,0.0,0.0,22.94,-17.56,-40.69,0.05,0.16,0.76,0.62
36918,00:03:21.628,IMU5,-0.27,6.82,-7.21,0.0,0.0,0.0,12.81,-59.75,-16.38,0.9,0.22,0.07,0.36
36918,00:03:21.628,IMU6,2.07,-9.61,0.34,0.0,-0.0,-0.0,-0.06,41.44,-2.25,-0.44,-0.53,0.44,0.57
36918,00:03:21.628,IMU7,-1.15,2.87,9.12,0.0,0.0,0.0,23.62,-18.25,-40.38,0.05,0.16,0.76,0.62
36919,00:03:21.635,IMU5,-0.27,6.82,-7.21,0.0,0.0,0.0,12.81,-59.75,-16.38,0.9,0.22,0.07,0.36
36919,00:03:21.635,IMU6,2.07,-9.61,0.34,0.01,-0.0,0.01,-0.06,41.44,-2.25,-0.44,-0.53,0.44,0.57
36919,00:03:21.635,IMU7,-1.15,2.87,9.12,0.0,0.0,0.0,23.62,-18.25,-40.38,0.05,0.16,0.76,0.62
36920,00:03:21.643,IMU5,-0.27,6.82,-7.21,0.0,0.0,0.0,12.81,-59.75,-16.38,0.9,0.22,0.07,0.36
36920,00:03:21.643,IMU6,2.07,-9.61,0.34,0.01,-0.0,0.01,-0.06,41.44,-2.25,-0.44,-0.53,0.44,0.57
36920,00:03:21.643,IMU7,-1.15,2.87,9.12,0.01,0.0,0.0,23.62,-18.25,-40.38,0.05,0.16,0.76,0.62
36921,00:03:21.646,IMU5,-0.27,6.82,-7.21,0.0,0.0,0.0,12.81,-59.75,-16.38,0.9,0.22,0.07,0.36
36921,00:03:21.646,IMU6,2.07,-9.61,0.34,0.0,0.0,0.0,-0.06,41.44,-2.25,-0.44,-0.53,0.44,0.57
36921,00:03:21.646,IMU7,-1.15,2.87,9.12,0.01,0.0,0.0,23.62,-18.25,-40.38,0.05,0.16,0.76,0.62
36922,00:03:21.653,IMU5,-0.27,6.82,-7.21,0.0,0.0,0.0,12.81,-59.75,-16.38,0.9,0.22,0.07,0.36
36922,00:03:21.653,IMU6,2.07,-9.61,0.34,0.0,0.0,0.0,-0.06,41.44,-2.25,-0.44,-0.53,0.44,0.57
36922,00:03:21.653,IMU7,-1.15,2.87,9.12,-0.01,0.0,-0.01,23.62,-18.25,-40.38,0.05,0.16,0.76,0.62
36923,00:03:21.661,IMU5,-0.27,6.82,-7.21,0.0,0.0,0.0,12.81,-59.75,-16.38,0.9,0.22,0.07,0.36
36923,00:03:21.661,IMU6,2.11,-9.54,0.5,0.0,0.0,0.0,-0.06,41.44,-2.25,-0.44,-0.53,0.44,0.57
36923,00:03:21.661,IMU7,-1.15,2.87,9.12,-0.01,0.0,-0.01,23.62,-18.25,-40.38,0.05,0.16,0.76,0.62
36924,00:03:21.669,IMU5,-0.27,6.86,-7.23,0.0,0.0,0.0,12.81,-59.75,-16.38,0.9,0.22,0.07,0.36
36924,00:03:21.669,IMU6,2.11,-9.54,0.5,-0.0,0.0,0.0,-0.06,41.44,-2.25,-0.44,-0.53,0.44,0.57
36924,00:03:21.669,IMU7,-1.15,2.87,9.12,0.0,-0.01,-0.0,23.62,-18.25,-40.38,0.05,0.16,0.76,0.62
36925,00:03:21.672,IMU5,-0.27,6.86,-7.23,0.0,0.0,0.0,13.81,-59.75,-16.12,0.9,0.22,0.07,0.36
36925,00:03:21.672,IMU6,2.11,-9.54,0.5,-0.0,0.0,0.0,-1.06,42.81,-1.44,-0.44,-0.53,0.44,0.57
36925,00:03:21.672,IMU7,-1.15,2.87,9.12,0.0,-0.01,-0.0,23.62,-18.25,-40.38,0.05,0.16,0.76,0.62
36926,00:03:21.678,IMU5,-0.27,6.86,-7.23,0.0,0.0,0.0,13.81,-59.75,-16.12,0.9,0.22,0.07,0.36
36926,00:03:21.678,IMU6,2.11,-9.54,0.5,-0.0,0.0,0.0,-1.06,42.81,-1.44,-0.44,-0.53,0.44,0.57
36926,00:03:21.678,IMU7,-1.15,2.87,9.12,0.0,0.01,0.0,23.62,-18.25,-40.38,0.05,0.16,0.76,0.62
36927,00:03:21.686,IMU5,-0.27,6.86,-7.23,0.0,0.0,0.0,13.81,-59.75,-16.12,0.9,0.22,0.07,0.36
36927,00:03:21.686,IMU6,2.11,-9.54,0.5,0.0,0.0,-0.01,-1.06,42.81,-1.44,-0.44,-0.53,0.44,0.57
36927,00:03:21.686,IMU7,-1.15,2.87,9.12,0.0,0.01,0.0,23.62,-18.25,-40.38,0.05,0.16,0.76,0.62
36928,00:03:21.693,IMU5,-0.27,6.86,-7.23,0.0,0.0,0.0,13.81,-59.75,-16.12,0.9,0.22,0.07,0.36
36928,00:03:21.693,IMU6,2.11,-9.54,0.5,0.0,0.0,-0.01,-1.06,42.81,-1.44,-0.44,-0.53,0.44,0.57
36928,00:03:21.693,IMU7,-1.15,2.87,9.12,0.0,-0.01,0.0,23.62,-18.25,-40.38,0.05,0.16,0.76,0.62
36929,00:03:21.696,IMU5,-0.27,6.86,-7.23,0.0,0.0,0.0,13.81,-59.75,-16.12,0.9,0.22,0.07,0.36
36929,00:03:21.696,IMU6,2.11,-9.54,0.5,-0.0,0.0,-0.01,-1.06,42.81,-1.44,-0.44,-0.53,0.44,0.57
36929,00:03:21.696,IMU7,-1.15,2.87,9.12,0.0,-0.01,0.0,23.62,-18.25,-40.38,0.05,0.16,0.76,0.62
36930,00:03:21.704,IMU5,-0.27,6.86,-7.23,0.0,0.0,0.0,13.81,-59.75,-16.12,0.9,0.22,0.07,0.36
36930,00:03:21.704,IMU6,2.11,-9.54,0.5,-0.0,0.0,-0.01,-1.06,42.81,-1.44,-0.44,-0.53,0.44,0.57
36930,00:03:21.704,IMU7,-1.19,2.95,9.16,0.0,-0.01,0.0,23.62,-18.25,-40.38,0.05,0.16,0.76,0.62
36931,00:03:21.711,IMU5,-0.27,6.86,-7.23,0.0,0.0,0.0,13.81,-59.75,-16.12,0.9,0.22,0.07,0.36
36931,00:03:21.711,IMU6,2.11,-9.54,0.5,0.0,0.0,0.0,-1.06,42.81,-1.44,-0.44,-0.53,0.44,0.57
36931,00:03:21.711,IMU7,-1.19,2.95,9.16,-0.0,0.01,-0.0,23.62,-18.25,-40.38,0.05,0.16,0.76,0.62
36932,00:03:21.714,IMU5,-0.27,6.86,-7.23,0.0,0.0,0.0,13.81,-59.75,-16.12,0.9,0.22,0.07,0.36
36932,00:03:21.714,IMU6,2.11,-9.54,0.5,0.0,0.0,0.0,-1.06,42.81,-1.44,-0.44,-0.53,0.44,0.57
36932,00:03:21.714,IMU7,-1.19,2.95,9.16,-0.0,0.01,-0.0,22.94,-17.81,-39.94,0.05,0.16,0.76,0.62
36933,00:03:21.718,IMU5,-0.27,6.86,-7.23,0.0,0.0,0.0,13.81,-59.75,-16.12,0.9,0.22,0.07,0.36
36933,00:03:21.718,IMU6,2.11,-9.54,0.5,0.0,0.0,0.0,-1.06,42.81,-1.44,-0.44,-0.53,0.44,0.57
36933,00:03:21.718,IMU7,-1.19,2.95,9.16,-0.0,0.01,-0.0,22.94,-17.81,-39.94,0.05,0.16,0.76,0.62
36934,00:03:21.725,IMU5,-0.27,6.86,-7.23,0.0,0.0,0.0,13.81,-59.75,-16.12,0.9,0.22,0.07,0.36
36934,00:03:21.725,IMU6,2.11,-9.54,0.5,0.0,0.0,0.0,-1.06,42.81,-1.44,-0.44,-0.53,0.44,0.57
36934,00:03:21.725,IMU7,-1.19,2.95,9.16,0.0,0.01,0.0,22.94,-17.81,-39.94,0.05,0.16,0.76,0.62
36935,00:03:21.728,IMU5,-0.27,6.86,-7.23,0.0,0.0,0.0,13.81,-59.75,-16.12,0.9,0.22,0.07,0.36
36935,00:03:21.728,IMU6,2.11,-9.54,0.5,-0.01,0.0,-0.01,-1.06,42.81,-1.44,-0.44,-0.53,0.44,0.57
36935,00:03:21.728,IMU7,-1.19,2.95,9.16,0.0,0.01,0.0,22.94,-17.81,-39.94,0.05,0.16,0.76,0.62
36936,00:03:21.733,IMU5,-0.34,6.82,-7.23,0.0,0.0,0.0,13.81,-59.75,-16.12,0.9,0.22,0.07,0.36
36936,00:03:21.733,IMU6,2.11,-9.54,0.5,-0.01,0.0,-0.01,-1.06,42.81,-1.44,-0.44,-0.53,0.44,0.57
36936,00:03:21.733,IMU7,-1.19,2.95,9.16,-0.0,-0.0,-0.01,22.94,-17.81,-39.94,0.05,0.16,0.76,0.62
36937,00:03:21.739,IMU5,-0.34,6.82,-7.23,0.0,0.0,0.0,13.94,-60.62,-17.19,0.9,0.22,0.07,0.36
36937,00:03:21.739,IMU6,2.11,-9.8,0.38,-0.01,0.0,-0.01,-1.06,42.81,-1.44,-0.44,-0.53,0.44,0.57
36937,00:03:21.739,IMU7,-1.19,2.95,9.16,-0.0,-0.0,-0.01,22.94,-17.81,-39.94,0.05,0.16,0.76,0.62
36938,00:03:21.744,IMU5,-0.34,6.82,-7.23,0.0,0.0,0.0,13.94,-60.62,-17.19,0.9,0.22,0.07,0.36
36938,00:03:21.744,IMU6,2.11,-9.8,0.38,-0.01,0.0,-0.01,0.25,42.19,-1.81,-0.44,-0.53,0.44,0.57
36938,00:03:21.744,IMU7,-1.19,2.95,9.16,0.0,-0.01,-0.0,22.94,-17.81,-39.94,0.05,0.16,0.76,0.62
36939,00:03:21.747,IMU5,-0.34,6.82,-7.23,0.0,0.0,0.0,13.94,-60.62,-17.19,0.9,0.22,0.07,0.36
36939,00:03:21.747,IMU6,2.11,-9.8,0.38,-0.0,-0.0,-0.01,0.25,42.19,-1.81,-0.44,-0.53,0.44,0.57
36939,00:03:21.747,IMU7,-1.19,2.95,9.16,0.0,-0.01,-0.0,22.94,-17.81,-39.94,0.05,0.16,0.76,0.62
36940,00:03:21.754,IMU5,-0.34,6.82,-7.23,0.0,0.0,0.0,13.94,-60.62,-17.19,0.9,0.22,0.07,0.36
36940,00:03:21.754,IMU6,2.11,-9.8,0.38,-0.0,-0.0,-0.01,0.25,42.19,-1.81,-0.44,-0.53,0.44,0.57
36940,00:03:21.754,IMU7,-1.11,2.87,9.08,0.0,-0.01,-0.0,22.94,-17.81,-39.94,0.05,0.16,0.76,0.62
36941,00:03:21.760,IMU5,-0.34,6.82,-7.23,0.0,0.0,0.0,13.94,-60.62,-17.19,0.9,0.22,0.07,0.36
36941,00:03:21.760,IMU6,2.11,-9.8,0.38,0.0,0.0,-0.0,0.25,42.19,-1.81,-0.44,-0.53,0.44,0.57
36941,00:03:21.760,IMU7,-1.11,2.87,9.08,0.0,-0.01,-0.0,23.94,-17.19,-40.69,0.05,0.16,0.76,0.62
36942,00:03:21.765,IMU5,-0.34,6.82,-7.23,0.0,0.0,0.0,13.94,-60.62,-17.19,0.9,0.22,0.07,0.36
36942,00:03:21.765,IMU6,2.11,-9.8,0.38,0.0,0.0,-0.0,0.25,42.19,-1.81,-0.44,-0.53,0.44,0.57
36942,00:03:21.765,IMU7,-1.11,2.87,9.08,-0.0,0.0,0.02,23.94,-17.19,-40.69,0.05,0.16,0.76,0.62
36943,00:03:21.769,IMU5,-0.34,6.82,-7.23,0.0,0.0,0.0,13.94,-60.62,-17.19,0.9,0.22,0.07,0.36
36943,00:03:21.769,IMU6,2.11,-9.8,0.38,-0.0,0.0,0.0,0.25,42.19,-1.81,-0.44,-0.53,0.44,0.57
36943,00:03:21.769,IMU7,-1.11,2.87,9.08,-0.0,0.0,0.02,23.94,-17.19,-40.69,0.05,0.16,0.76,0.62
36944,00:03:21.775,IMU5,-0.34,6.82,-7.23,0.0,0.0,0.0,13.94,-60.62,-17.19,0.9,0.22,0.07,0.36
36944,00:03:21.775,IMU6,2.11,-9.8,0.38,-0.0,0.0,0.0,0.25,42.19,-1.81,-0.44,-0.53,0.44,0.57
36944,00:03:21.775,IMU7,-1.11,2.87,9.08,-0.02,0.02,-0.0,23.94,-17.19,-40.69,0.05,0.16,0.76,0.62
36945,00:03:21.780,IMU5,-0.34,6.82,-7.23,0.0,0.0,0.0,13.94,-60.62,-17.19,0.9,0.22,0.07,0.36
36945,00:03:21.780,IMU6,2.07,-9.58,0.5,-0.0,0.0,0.0,0.25,42.19,-1.81,-0.44,-0.53,0.44,0.57
36945,00:03:21.780,IMU7,-1.11,2.87,9.08,-0.02,0.02,-0.0,23.94,-17.19,-40.69,0.05,0.16,0.76,0.62
36946,00:03:21.786,IMU5,-0.3,6.86,-7.31,0.0,0.0,0.0,13.94,-60.62,-17.19,0.9,0.22,0.07,0.36
36946,00:03:21.786,IMU6,2.07,-9.58,0.5,-0.0,0.0,0.0,0.25,41.56,-1.88,-0.44,-0.53,0.44,0.57
36946,00:03:21.786,IMU7,-1.11,2.87,9.08,0.0,0.02,0.0,23.94,-17.19,-40.69,0.05,0.16,0.76,0.62
36947,00:03:21.789,IMU5,-0.3,6.86,-7.31,0.0,0.0,0.0,13.94,-60.62,-17.19,0.9,0.22,0.07,0.36
36947,00:03:21.789,IMU6,2.07,-9.58,0.5,0.01,-0.0,-0.0,0.25,41.56,-1.88,-0.44,-0.53,0.44,0.57
36947,00:03:21.789,IMU7,-1.11,2.87,9.08,0.0,0.02,0.0,23.94,-17.19,-40.69,0.05,0.16,0.76,0.62
36948,00:03:21.794,IMU5,-0.3,6.86,-7.31,0.0,0.0,0.0,15.81,-62.06,-18.62,0.9,0.22,0.07,0.36
36948,00:03:21.794,IMU6,2.07,-9.58,0.5,0.01,-0.0,-0.0,0.25,41.56,-1.88,-0.44,-0.53,0.44,0.57
36948,00:03:21.794,IMU7,-1.19,2.87,9.08,0.0,0.02,0.0,23.94,-17.19,-40.69,0.05,0.16,0.76,0.62
36949,00:03:21.797,IMU5,-0.3,6.86,-7.31,0.0,0.0,0.0,15.81,-62.06,-18.62,0.9,0.22,0.07,0.36
36949,00:03:21.797,IMU6,2.07,-9.58,0.5,-0.0,0.0,-0.0,0.25,41.56,-1.88,-0.44,-0.53,0.44,0.57
36949,00:03:21.797,IMU7,-1.19,2.87,9.08,0.0,0.02,0.0,23.19,-16.0,-40.62,0.05,0.16,0.76,0.62
36950,00:03:21.804,IMU5,-0.3,6.86,-7.31,0.0,0.0,0.0,15.81,-62.06,-18.62,0.9,0.22,0.07,0.36
36950,00:03:21.804,IMU6,2.07,-9.58,0.5,-0.0,0.0,-0.0,0.25,41.56,-1.88,-0.44,-0.53,0.44,0.57
36950,00:03:21.804,IMU7,-1.19,2.87,9.08,-0.02,0.0,-0.01,23.19,-16.0,-40.62,0.05,0.16,0.76,0.62
36951,00:03:21.811,IMU5,-0.3,6.86,-7.31,0.0,0.0,0.0,15.81,-62.06,-18.62,0.9,0.22,0.07,0.36
36951,00:03:21.811,IMU6,2.07,-9.58,0.5,0.0,-0.0,-0.0,0.25,41.56,-1.88,-0.44,-0.53,0.44,0.57
36951,00:03:21.811,IMU7,-1.19,2.87,9.08,-0.02,0.0,-0.01,23.19,-16.0,-40.62,0.05,0.16,0.76,0.62
36952,00:03:21.817,IMU5,-0.3,6.86,-7.24,0.0,0.0,0.0,15.81,-62.06,-18.62,0.9,0.22,0.07,0.36
36952,00:03:21.817,IMU6,2.07,-9.58,0.5,0.0,-0.0,-0.0,0.25,41.56,-1.88,-0.44,-0.53,0.44,0.57
36952,00:03:21.817,IMU7,-1.19,2.87,9.08,0.0,-0.0,-0.0,23.19,-16.0,-40.62,0.05,0.16,0.76,0.62
36953,00:03:21.820,IMU5,-0.3,6.86,-7.24,0.0,0.0,0.0,15.81,-62.06,-18.62,0.9,0.22,0.07,0.36
36953,00:03:21.820,IMU6,2.11,-9.61,0.42,0.0,-0.0,-0.0,0.25,41.56,-1.88,-0.44,-0.53,0.44,0.57
36953,00:03:21.820,IMU7,-1.19,2.87,9.08,0.0,-0.0,-0.0,23.19,-16.0,-40.62,0.05,0.16,0.76,0.62
36954,00:03:21.824,IMU5,-0.3,6.86,-7.24,0.0,0.0,0.0,13.44,-59.44,-16.38,0.9,0.22,0.07,0.36
36954,00:03:21.824,IMU6,2.11,-9.61,0.42,0.0,-0.0,-0.0,0.0,42.06,-2.44,-0.44,-0.53,0.44,0.57
36954,00:03:21.824,IMU7,-1.19,2.87,9.08,0.0,-0.01,0.0,23.19,-16.0,-40.62,0.05,0.16,0.76,0.62
36955,00:03:21.827,IMU5,-0.3,6.86,-7.24,0.0,0.0,0.0,13.44,-59.44,-16.38,0.9,0.22,0.07,0.36
36955,00:03:21.827,IMU6,2.11,-9.61,0.42,-0.0,0.0,0.0,0.0,42.06,-2.44,-0.44,-0.53,0.44,0.57
36955,00:03:21.827,IMU7,-1.19,2.87,9.08,0.0,-0.01,0.0,23.19,-16.0,-40.62,0.05,0.16,0.76,0.62
36956,00:03:21.834,IMU5,-0.3,6.86,-7.24,0.0,0.0,0.0,13.44,-59.44,-16.38,0.9,0.22,0.07,0.36
36956,00:03:21.834,IMU6,2.11,-9.61,0.42,-0.0,0.0,0.0,0.0,42.06,-2.44,-0.44,-0.53,0.44,0.57
36956,00:03:21.834,IMU7,-1.19,2.87,9.08,0.0,-0.01,0.01,23.19,-16.0,-40.62,0.05,0.16,0.76,0.62
36957,00:03:21.841,IMU5,-0.3,6.86,-7.24,0.0,0.0,0.0,13.44,-59.44,-16.38,0.9,0.22,0.07,0.36
36957,00:03:21.841,IMU6,2.11,-9.61,0.42,-0.01,0.0,0.0,0.0,42.06,-2.44,-0.44,-0.53,0.44,0.57
36957,00:03:21.841,IMU7,-1.19,2.87,9.08,0.0,-0.01,0.01,23.19,-16.0,-40.62,0.05,0.16,0.76,0.62
36958,00:03:21.847,IMU5,-0.3,6.86,-7.24,0.0,0.0,0.0,13.44,-59.44,-16.38,0.9,0.22,0.07,0.36
36958,00:03:21.847,IMU6,2.11,-9.61,0.42,-0.01,0.0,0.0,0.0,42.06,-2.44,-0.44,-0.53,0.44,0.57
36958,00:03:21.847,IMU7,-1.19,2.87,9.08,0.0,-0.01,0.0,23.19,-16.0,-40.62,0.05,0.16,0.76,0.62
36959,00:03:21.851,IMU5,-0.3,6.86,-7.24,0.0,0.0,0.0,13.44,-59.44,-16.38,0.9,0.22,0.07,0.36
36959,00:03:21.851,IMU6,2.11,-9.61,0.42,0.0,0.0,-0.0,0.0,42.06,-2.44,-0.44,-0.53,0.44,0.57
36959,00:03:21.851,IMU7,-1.19,2.87,9.08,0.0,-0.01,0.0,23.19,-16.0,-40.62,0.05,0.16,0.76,0.62
36960,00:03:21.857,IMU5,-0.3,6.86,-7.24,0.0,0.0,0.0,13.44,-59.44,-16.38,0.9,0.22,0.07,0.36
36960,00:03:21.857,IMU6,2.11,-9.61,0.42,0.0,0.0,-0.0,0.0,42.06,-2.44,-0.44,-0.53,0.44,0.57
36960,00:03:21.857,IMU7,-1.15,2.91,9.5,0.0,-0.01,0.0,23.19,-16.0,-40.62,0.05,0.16,0.76,0.62
36961,00:03:21.863,IMU5,-0.3,6.86,-7.24,0.0,0.0,0.0,13.44,-59.44,-16.38,0.9,0.22,0.07,0.36
36961,00:03:21.863,IMU6,2.11,-9.61,0.42,-0.0,-0.0,0.0,0.0,42.06,-2.44,-0.44,-0.53,0.44,0.57
36961,00:03:21.863,IMU7,-1.15,2.91,9.5,0.0,-0.01,0.0,23.69,-19.06,-40.44,0.05,0.16,0.76,0.62
36962,00:03:21.869,IMU5,-0.3,6.82,-7.24,0.0,0.0,0.0,13.44,-59.44,-16.38,0.9,0.22,0.07,0.36
36962,00:03:21.869,IMU6,2.11,-9.61,0.42,-0.0,-0.0,0.0,0.0,42.06,-2.44,-0.44,-0.53,0.44,0.57
36962,00:03:21.869,IMU7,-1.15,2.91,9.5,-0.0,0.01,0.0,23.69,-19.06,-40.44,0.05,0.16,0.76,0.62
36963,00:03:21.872,IMU5,-0.3,6.82,-7.24,0.0,0.0,0.0,13.44,-59.44,-16.38,0.9,0.22,0.07,0.36
36963,00:03:21.872,IMU6,2.11,-9.61,0.42,0.0,0.0,0.0,0.0,42.06,-2.44,-0.44,-0.53,0.44,0.57
36963,00:03:21.872,IMU7,-1.15,2.91,9.5,-0.0,0.01,0.0,23.69,-19.06,-40.44,0.05,0.16,0.77,0.62
36964,00:03:21.877,IMU5,-0.3,6.82,-7.24,0.0,0.0,0.0,14.94,-60.0,-17.12,0.9,0.22,0.07,0.36
36964,00:03:21.877,IMU6,2.11,-9.61,0.42,0.0,0.0,0.0,0.0,42.06,-2.44,-0.44,-0.53,0.44,0.57
36964,00:03:21.877,IMU7,-1.15,2.91,9.5,0.02,0.01,0.0,23.69,-19.06,-40.44,0.05,0.16,0.77,0.62
36965,00:03:21.880,IMU5,-0.3,6.82,-7.24,0.0,0.0,0.0,14.94,-60.0,-17.12,0.9,0.22,0.07,0.36
36965,00:03:21.880,IMU6,2.07,-9.69,0.34,0.0,0.0,0.0,0.0,42.06,-2.44,-0.44,-0.53,0.44,0.57
36965,00:03:21.880,IMU7,-1.15,2.91,9.5,0.02,0.01,0.0,23.69,-19.06,-40.44,0.05,0.16,0.77,0.62
36966,00:03:21.888,IMU5,-0.3,6.82,-7.24,0.0,0.0,0.0,14.94,-60.0,-17.12,0.9,0.22,0.07,0.36
36966,00:03:21.888,IMU6,2.07,-9.69,0.34,0.0,0.0,0.0,-0.06,42.38,-2.06,-0.44,-0.53,0.44,0.57
36966,00:03:21.888,IMU7,-1.15,2.91,9.5,0.02,-0.01,-0.01,23.69,-19.06,-40.44,0.05,0.16,0.77,0.62
36967,00:03:21.896,IMU5,-0.3,6.82,-7.24,0.0,0.0,0.0,14.94,-60.0,-17.12,0.9,0.22,0.07,0.36
36967,00:03:21.896,IMU6,2.07,-9.69,0.34,0.01,-0.0,-0.01,-0.06,42.38,-2.06,-0.44,-0.53,0.44,0.57
36967,00:03:21.896,IMU7,-1.15,2.91,9.5,0.02,-0.01,-0.01,23.69,-19.06,-40.44,0.05,0.16,0.76,0.62
36968,00:03:21.904,IMU5,-0.3,6.82,-7.24,0.0,0.0,0.0,14.94,-60.0,-17.12,0.9,0.22,0.07,0.36
36968,00:03:21.904,IMU6,2.07,-9.69,0.34,0.01,-0.0,-0.01,-0.06,42.38,-2.06,-0.44,-0.53,0.44,0.57
36968,00:03:21.904,IMU7,-1.15,2.91,9.5,0.0,0.01,0.0,23.69,-19.06,-40.44,0.05,0.16,0.76,0.62
36969,00:03:21.907,IMU5,-0.3,6.82,-7.24,0.0,0.0,0.0,14.94,-60.0,-17.12,0.9,0.22,0.07,0.36
36969,00:03:21.907,IMU6,2.07,-9.69,0.34,-0.01,-0.0,0.01,-0.06,42.38,-2.06,-0.44,-0.53,0.44,0.57
36969,00:03:21.907,IMU7,-1.15,2.91,9.5,0.0,0.01,0.0,23.69,-19.06,-40.44,0.05,0.16,0.76,0.62
36970,00:03:21.915,IMU5,-0.3,6.82,-7.24,0.0,0.0,0.0,14.94,-60.0,-17.12,0.9,0.22,0.07,0.36
36970,00:03:21.915,IMU6,2.07,-9.69,0.34,-0.01,-0.0,0.01,-0.06,42.38,-2.06,-0.44,-0.53,0.44,0.57
36970,00:03:21.915,IMU7,-1.15,2.91,9.0,0.0,0.01,0.0,23.69,-19.06,-40.44,0.05,0.16,0.76,0.62
36971,00:03:21.925,IMU5,-0.3,6.82,-7.24,0.0,0.0,0.0,14.94,-60.0,-17.12,0.9,0.22,0.07,0.36
36971,00:03:21.925,IMU6,2.07,-9.69,0.34,0.01,-0.0,-0.0,-0.06,42.38,-2.06,-0.44,-0.53,0.44,0.57
36971,00:03:21.925,IMU7,-1.15,2.91,9.0,0.0,0.01,0.0,23.19,-16.69,-39.44,0.05,0.16,0.76,0.62
36972,00:03:21.932,IMU5,-0.3,6.82,-7.24,0.0,0.0,0.0,14.94,-60.0,-17.12,0.9,0.22,0.07,0.36
36972,00:03:21.932,IMU6,2.07,-9.69,0.34,0.01,-0.0,-0.0,-0.06,42.38,-2.06,-0.44,-0.53,0.44,0.57
36972,00:03:21.932,IMU7,-1.15,2.91,9.0,-0.0,-0.01,0.0,23.19,-16.69,-39.44,0.05,0.16,0.76,0.62
36973,00:03:21.936,IMU5,-0.3,6.82,-7.24,0.0,0.0,0.0,14.94,-60.0,-17.12,0.9,0.22,0.07,0.36
36973,00:03:21.936,IMU6,2.07,-9.69,0.34,0.01,0.01,0.0,-0.06,42.38,-2.06,-0.44,-0.53,0.44,0.57
36973,00:03:21.936,IMU7,-1.15,2.91,9.0,-0.0,-0.01,0.0,23.19,-16.69,-39.44,0.05,0.16,0.76,0.62
36974,00:03:21.942,IMU5,-0.3,6.82,-7.24,0.0,0.0,0.0,14.94,-60.0,-17.12,0.9,0.22,0.07,0.36
36974,00:03:21.942,IMU6,2.07,-9.69,0.34,0.01,0.01,0.0,-0.06,42.38,-2.06,-0.44,-0.53,0.44,0.57
36974,00:03:21.942,IMU7,-1.19,2.84,9.23,-0.0,-0.01,0.0,23.19,-16.69,-39.44,0.05,0.16,0.76,0.62
36975,00:03:21.950,IMU5,-0.3,6.82,-7.24,0.0,0.0,0.0,14.94,-60.0,-17.12,0.9,0.22,0.07,0.36
36975,00:03:21.950,IMU6,2.11,-9.58,0.5,0.01,0.01,0.0,-0.06,42.38,-2.06,-0.44,-0.53,0.44,0.57
36975,00:03:21.950,IMU7,-1.19,2.84,9.23,-0.0,-0.01,0.0,23.31,-17.94,-41.19,0.05,0.16,0.76,0.62
36976,00:03:21.957,IMU5,-0.3,6.82,-7.24,0.0,0.0,0.0,14.94,-60.0,-17.12,0.9,0.22,0.07,0.36
36976,00:03:21.957,IMU6,2.11,-9.58,0.5,-0.0,0.0,0.0,-0.06,42.38,-2.06,-0.44,-0.53,0.44,0.57
36976,00:03:21.957,IMU7,-1.19,2.84,9.23,-0.01,-0.01,-0.0,23.31,-17.94,-41.19,0.05,0.16,0.76,0.62
36977,00:03:21.960,IMU5,-0.3,6.82,-7.24,0.0,0.0,0.0,14.94,-60.0,-17.12,0.9,0.22,0.07,0.36
36977,00:03:21.960,IMU6,2.11,-9.58,0.5,-0.0,0.0,0.0,-0.5,42.75,-1.88,-0.44,-0.53,0.44,0.57
36977,00:03:21.960,IMU7,-1.19,2.84,9.23,-0.01,-0.01,-0.0,23.31,-17.94,-41.19,0.05,0.16,0.76,0.62
36978,00:03:21.967,IMU5,-0.23,6.86,-7.24,0.0,0.0,0.0,14.94,-60.0,-17.12,0.9,0.22,0.07,0.36
36978,00:03:21.967,IMU6,2.11,-9.58,0.5,-0.0,0.0,0.0,-0.5,42.75,-1.88,-0.44,-0.53,0.44,0.57
36978,00:03:21.967,IMU7,-1.19,2.84,9.23,-0.0,0.02,-0.0,23.31,-17.94,-41.19,0.05,0.16,0.76,0.62
36979,00:03:21.974,IMU5,-0.23,6.86,-7.24,0.0,0.0,0.0,14.94,-60.0,-17.12,0.9,0.22,0.07,0.36
36979,00:03:21.974,IMU6,2.11,-9.58,0.5,0.0,0.0,-0.0,-0.5,42.75,-1.88,-0.44,-0.53,0.44,0.57
36979,00:03:21.974,IMU7,-1.19,2.84,9.23,-0.0,0.02,-0.0,23.31,-17.94,-41.19,0.05,0.16,0.76,0.62
36980,00:03:21.981,IMU5,-0.23,6.86,-7.24,0.0,0.0,0.0,13.25,-59.94,-17.31,0.9,0.22,0.07,0.36
36980,00:03:21.981,IMU6,2.11,-9.58,0.5,0.0,0.0,-0.0,-0.5,42.75,-1.88,-0.44,-0.53,0.44,0.57
36980,00:03:21.981,IMU7,-1.19,2.84,9.23,0.0,0.01,0.0,23.31,-17.94,-41.19,0.05,0.16,0.76,0.62
36981,00:03:21.984,IMU5,-0.23,6.86,-7.24,0.0,0.0,0.0,13.25,-59.94,-17.31,0.9,0.22,0.07,0.36
36981,00:03:21.984,IMU6,2.11,-9.58,0.5,0.0,0.0,0.0,-0.5,42.75,-1.88,-0.44,-0.53,0.44,0.57
36981,00:03:21.984,IMU7,-1.19,2.84,9.23,0.0,0.01,0.0,23.31,-17.94,-41.19,0.05,0.16,0.76,0.62
36982,00:03:21.992,IMU5,-0.23,6.86,-7.24,0.0,0.0,0.0,13.25,-59.94,-17.31,0.9,0.22,0.07,0.36
36982,00:03:21.992,IMU6,2.11,-9.58,0.5,0.0,0.0,0.0,-0.5,42.75,-1.88,-0.44,-0.53,0.44,0.57
36982,00:03:21.992,IMU7,-1.19,2.84,9.23,0.0,-0.0,0.01,23.31,-17.94,-41.19,0.05,0.16,0.76,0.62
36983,00:03:22.001,IMU5,-0.23,6.86,-7.24,0.0,0.0,0.0,13.25,-59.94,-17.31,0.9,0.22,0.07,0.36
36983,00:03:22.001,IMU6,2.11,-9.58,0.5,0.0,0.0,0.0,-0.5,42.75,-1.88,-0.44,-0.53,0.44,0.57
36983,00:03:22.001,IMU7,-1.19,2.84,9.23,0.0,-0.0,0.01,23.31,-17.94,-41.19,0.05,0.16,0.76,0.62
36984,00:03:22.008,IMU5,-0.23,6.86,-7.24,0.0,0.0,0.0,13.25,-59.94,-17.31,0.9,0.22,0.07,0.36
36984,00:03:22.008,IMU6,2.11,-9.58,0.5,0.0,0.0,0.0,-0.5,42.75,-1.88,-0.44,-0.53,0.44,0.57
36984,00:03:22.008,IMU7,-1.19,2.84,9.23,0.0,0.0,0.0,23.31,-17.94,-41.19,0.05,0.16,0.76,0.62
36985,00:03:22.011,IMU5,-0.23,6.86,-7.24,0.0,0.0,0.0,13.25,-59.94,-17.31,0.9,0.22,0.07,0.36
36985,00:03:22.011,IMU6,2.11,-9.58,0.5,0.0,0.0,0.0,-0.5,42.75,-1.88,-0.44,-0.53,0.44,0.57
36985,00:03:22.011,IMU7,-1.19,2.84,9.23,0.0,0.0,0.0,23.31,-17.94,-41.19,0.05,0.16,0.76,0.62
36986,00:03:22.018,IMU5,-0.23,6.86,-7.24,0.0,0.0,0.0,13.25,-59.94,-17.31,0.9,0.22,0.07,0.36
36986,00:03:22.018,IMU6,2.11,-9.58,0.5,0.0,0.0,0.0,-0.5,42.75,-1.88,-0.44,-0.53,0.44,0.57
36986,00:03:22.018,IMU7,-1.19,2.87,9.12,0.0,0.0,0.0,23.31,-17.94,-41.19,0.05,0.16,0.76,0.62
36987,00:03:22.026,IMU5,-0.23,6.86,-7.24,0.0,0.0,0.0,13.25,-59.94,-17.31,0.9,0.22,0.07,0.36
36987,00:03:22.026,IMU6,2.11,-9.58,0.5,0.0,0.0,0.0,-0.5,42.75,-1.88,-0.44,-0.53,0.44,0.57
36987,00:03:22.026,IMU7,-1.19,2.87,9.12,0.0,0.0,-0.0,23.31,-17.94,-41.19,0.05,0.16,0.76,0.62
36988,00:03:22.029,IMU5,-0.3,6.89,-7.23,0.0,0.0,0.0,13.25,-59.94,-17.31,0.9,0.22,0.07,0.36
36988,00:03:22.029,IMU6,2.11,-9.58,0.5,0.0,0.0,0.0,-0.5,42.75,-1.88,-0.44,-0.53,0.44,0.57
36988,00:03:22.029,IMU7,-1.19,2.87,9.12,0.0,0.0,-0.0,24.25,-16.44,-40.75,0.05,0.16,0.76,0.62
36989,00:03:22.035,IMU5,-0.3,6.89,-7.23,0.0,0.0,0.0,13.56,-60.62,-17.12,0.9,0.22,0.07,0.36
36989,00:03:22.035,IMU6,2.11,-9.58,0.5,0.0,0.0,0.0,-0.5,42.75,-1.88,-0.44,-0.53,0.44,0.57
36989,00:03:22.035,IMU7,-1.19,2.87,9.12,0.0,0.0,-0.0,24.25,-16.44,-40.75,0.05,0.16,0.76,0.62
36990,00:03:22.042,IMU5,-0.3,6.89,-7.23,0.0,0.0,0.0,13.56,-60.62,-17.12,0.9,0.22,0.07,0.36
36990,00:03:22.042,IMU6,2.11,-9.58,0.5,0.0,0.0,0.0,-0.5,42.75,-1.88,-0.44,-0.53,0.44,0.57
36990,00:03:22.042,IMU7,-1.19,2.87,9.12,0.0,-0.0,0.0,24.25,-16.44,-40.75,0.05,0.16,0.76,0.62
36991,00:03:22.045,IMU5,-0.3,6.89,-7.23,0.0,0.0,0.0,13.56,-60.62,-17.12,0.9,0.22,0.07,0.36
36991,00:03:22.045,IMU6,2.07,-9.58,0.38,0.0,0.0,0.0,-0.5,42.75,-1.88,-0.44,-0.53,0.44,0.57
36991,00:03:22.045,IMU7,-1.19,2.87,9.12,0.0,-0.0,0.0,24.25,-16.44,-40.75,0.05,0.16,0.76,0.62
36992,00:03:22.052,IMU5,-0.3,6.89,-7.23,0.0,0.0,0.0,13.56,-60.62,-17.12,0.9,0.22,0.07,0.36
36992,00:03:22.052,IMU6,2.07,-9.58,0.38,0.0,0.0,0.0,-0.94,41.44,-2.0,-0.44,-0.53,0.44,0.57
36992,00:03:22.052,IMU7,-1.19,2.95,9.2,0.0,-0.0,0.0,24.25,-16.44,-40.75,0.05,0.16,0.76,0.62
36993,00:03:22.056,IMU5,-0.3,6.89,-7.23,0.0,0.0,0.0,13.56,-60.62,-17.12,0.9,0.22,0.07,0.36
36993,00:03:22.056,IMU6,2.07,-9.58,0.38,0.0,0.0,0.0,-0.94,41.44,-2.0,-0.44,-0.53,0.44,0.57
36993,00:03:22.056,IMU7,-1.19,2.95,9.2,0.0,-0.0,0.0,23.94,-17.19,-40.31,0.05,0.16,0.76,0.62
36994,00:03:22.063,IMU5,-0.3,6.89,-7.23,0.0,0.0,0.0,13.56,-60.62,-17.12,0.9,0.22,0.07,0.36
36994,00:03:22.063,IMU6,2.07,-9.58,0.38,0.0,0.0,0.0,-0.94,41.44,-2.0,-0.44,-0.53,0.44,0.57
36994,00:03:22.063,IMU7,-1.19,2.95,9.2,-0.0,0.01,-0.0,23.94,-17.19,-40.31,0.05,0.16,0.76,0.62
36995,00:03:22.066,IMU5,-0.3,6.89,-7.23,0.0,0.0,0.0,13.56,-60.62,-17.12,0.9,0.22,0.07,0.36
36995,00:03:22.066,IMU6,2.07,-9.58,0.38,0.0,0.0,0.0,-0.94,41.44,-2.0,-0.44,-0.53,0.44,0.57
36995,00:03:22.066,IMU7,-1.19,2.95,9.2,-0.0,0.01,-0.0,23.94,-17.19,-40.31,0.05,0.16,0.76,0.62
36996,00:03:22.074,IMU5,-0.3,6.89,-7.23,0.0,0.0,0.0,13.56,-60.62,-17.12,0.9,0.22,0.07,0.36
36996,00:03:22.074,IMU6,2.07,-9.58,0.38,0.0,0.0,0.0,-0.94,41.44,-2.0,-0.44,-0.53,0.44,0.57
36996,00:03:22.074,IMU7,-1.19,2.95,9.2,0.0,-0.01,-0.0,23.94,-17.19,-40.31,0.05,0.16,0.76,0.62
36997,00:03:22.079,IMU5,-0.3,6.89,-7.23,0.0,0.0,0.0,13.56,-60.62,-17.12,0.9,0.22,0.07,0.36
36997,00:03:22.079,IMU6,2.07,-9.58,0.38,0.0,0.0,0.0,-0.94,41.44,-2.0,-0.44,-0.53,0.44,0.57
36997,00:03:22.079,IMU7,-1.19,2.95,9.2,0.0,-0.01,-0.0,23.94,-17.19,-40.31,0.05,0.16,0.76,0.62
36998,00:03:22.084,IMU5,-0.3,6.86,-7.2,0.0,0.0,0.0,13.56,-60.62,-17.12,0.9,0.22,0.07,0.36
36998,00:03:22.084,IMU6,2.07,-9.58,0.38,0.0,0.0,0.0,-0.94,41.44,-2.0,-0.44,-0.53,0.44,0.57
36998,00:03:22.084,IMU7,-1.19,2.91,9.04,0.0,-0.01,-0.0,23.94,-17.19,-40.31,0.05,0.16,0.76,0.62
36999,00:03:22.089,IMU5,-0.3,6.86,-7.2,0.0,0.0,0.0,14.31,-60.75,-17.62,0.9,0.22,0.07,0.36
36999,00:03:22.089,IMU6,2.07,-9.58,0.38,0.0,0.0,0.0,-0.94,41.44,-2.0,-0.44,-0.53,0.44,0.57
36999,00:03:22.089,IMU7,-1.19,2.91,9.04,0.0,-0.01,-0.0,22.94,-17.88,-40.75,0.05,0.16,0.76,0.62
37000,00:03:22.095,IMU5,-0.3,6.86,-7.2,0.0,0.0,0.0,14.31,-60.75,-17.62,0.9,0.22,0.07,0.36
37000,00:03:22.095,IMU6,2.07,-9.58,0.38,0.0,0.0,0.0,-0.94,41.44,-2.0,-0.44,-0.53,0.44,0.57
37000,00:03:22.095,IMU7,-1.19,2.91,9.04,-0.0,0.01,-0.0,22.94,-17.88,-40.75,0.05,0.16,0.76,0.62
37001,00:03:22.098,IMU5,-0.3,6.86,-7.2,0.0,0.0,0.0,14.31,-60.75,-17.62,0.9,0.22,0.07,0.36
37001,00:03:22.098,IMU6,2.07,-9.58,0.38,0.0,0.0,0.0,-0.94,41.44,-2.0,-0.44,-0.53,0.44,0.57
37001,00:03:22.098,IMU7,-1.19,2.91,9.04,-0.0,0.01,-0.0,22.94,-17.88,-40.75,0.05,0.16,0.76,0.62
37002,00:03:22.103,IMU5,-0.3,6.86,-7.2,0.0,0.0,0.0,14.31,-60.75,-17.62,0.9,0.22,0.07,0.36
37002,00:03:22.103,IMU6,2.07,-9.58,0.38,0.0,0.0,0.0,-0.94,41.44,-2.0,-0.44,-0.53,0.44,0.57
37002,00:03:22.103,IMU7,-1.19,2.91,9.04,0.0,0.0,0.0,22.94,-17.88,-40.75,0.05,0.16,0.76,0.62
37003,00:03:22.110,IMU5,-0.3,6.86,-7.2,0.0,0.0,0.0,14.31,-60.75,-17.62,0.9,0.22,0.07,0.36
37003,00:03:22.110,IMU6,2.03,-9.65,0.46,0.0,0.0,0.0,-0.94,41.44,-2.0,-0.44,-0.53,0.44,0.57
37003,00:03:22.110,IMU7,-1.19,2.91,9.04,0.0,0.0,0.0,22.94,-17.88,-40.75,0.05,0.16,0.76,0.62
37004,00:03:22.116,IMU5,-0.27,6.82,-7.23,0.0,0.0,0.0,14.31,-60.75,-17.62,0.9,0.22,0.07,0.36
37004,00:03:22.116,IMU6,2.03,-9.65,0.46,0.0,0.0,0.0,-0.94,41.44,-2.0,-0.44,-0.53,0.44,0.57
37004,00:03:22.116,IMU7,-1.19,2.91,9.04,-0.0,0.0,-0.01,22.94,-17.88,-40.75,0.05,0.16,0.76,0.62
37005,00:03:22.119,IMU5,-0.27,6.82,-7.23,0.0,0.0,0.0,12.75,-59.62,-15.94,0.9,0.22,0.07,0.36
37005,00:03:22.119,IMU6,2.03,-9.65,0.46,0.0,0.0,0.0,0.06,41.69,-1.19,-0.44,-0.53,0.44,0.57
37005,00:03:22.119,IMU7,-1.19,2.91,9.04,-0.0,0.0,-0.01,22.94,-17.88,-40.75,0.05,0.16,0.76,0.62
37006,00:03:22.127,IMU5,-0.27,6.82,-7.23,0.0,0.0,0.0,12.75,-59.62,-15.94,0.9,0.22,0.07,0.36
37006,00:03:22.127,IMU6,2.03,-9.65,0.46,0.0,0.0,0.0,0.06,41.69,-1.19,-0.44,-0.53,0.44,0.57
37006,00:03:22.127,IMU7,-1.15,2.87,9.08,-0.0,0.0,-0.01,22.94,-17.88,-40.75,0.05,0.16,0.76,0.62
37007,00:03:22.134,IMU5,-0.27,6.82,-7.23,0.0,0.0,0.0,12.75,-59.62,-15.94,0.9,0.22,0.07,0.36
37007,00:03:22.134,IMU6,2.03,-9.65,0.46,0.0,0.0,0.0,0.06,41.69,-1.19,-0.44,-0.53,0.44,0.57
37007,00:03:22.134,IMU7,-1.15,2.87,9.08,-0.0,0.0,-0.01,23.56,-16.81,-40.69,0.05,0.16,0.76,0.62
37008,00:03:22.142,IMU5,-0.3,6.89,-7.32,0.0,0.0,0.0,12.75,-59.62,-15.94,0.9,0.22,0.07,0.36
37008,00:03:22.142,IMU6,2.03,-9.65,0.46,0.0,0.0,0.0,0.06,41.69,-1.19,-0.44,-0.53,0.44,0.57
37008,00:03:22.142,IMU7,-1.15,2.87,9.08,-0.0,0.0,-0.0,23.56,-16.81,-40.69,0.05,0.16,0.76,0.62
37009,00:03:22.146,IMU5,-0.3,6.89,-7.32,0.0,0.0,0.0,12.75,-59.62,-15.94,0.9,0.22,0.07,0.36
37009,00:03:22.146,IMU6,2.03,-9.65,0.46,0.0,0.0,0.0,0.06,41.69,-1.19,-0.44,-0.53,0.44,0.57
37009,00:03:22.146,IMU7,-1.15,2.87,9.08,-0.0,0.0,-0.0,23.56,-16.81,-40.69,0.05,0.16,0.76,0.62
37010,00:03:22.150,IMU5,-0.3,6.89,-7.32,0.0,0.0,0.0,13.12,-60.69,-15.88,0.9,0.22,0.07,0.36
37010,00:03:22.150,IMU6,2.03,-9.65,0.46,0.0,0.0,0.0,0.06,41.69,-1.19,-0.44,-0.53,0.44,0.57
37010,00:03:22.150,IMU7,-1.15,2.87,9.08,0.0,0.0,0.0,23.56,-16.81,-40.69,0.05,0.16,0.76,0.62
37011,00:03:22.156,IMU5,-0.3,6.89,-7.32,0.0,0.0,0.0,13.12,-60.69,-15.88,0.9,0.22,0.07,0.36
37011,00:03:22.156,IMU6,2.03,-9.65,0.46,0.0,0.0,0.0,0.06,41.69,-1.19,-0.44,-0.53,0.44,0.57
37011,00:03:22.156,IMU7,-1.15,2.87,9.08,0.0,0.0,0.0,23.56,-16.81,-40.69,0.05,0.16,0.76,0.62
37012,00:03:22.163,IMU5,-0.3,6.89,-7.32,0.0,0.0,0.0,13.12,-60.69,-15.88,0.9,0.22,0.07,0.36
37012,00:03:22.163,IMU6,2.03,-9.65,0.46,0.0,0.0,0.0,0.06,41.69,-1.19,-0.44,-0.53,0.44,0.57
37012,00:03:22.163,IMU7,-1.15,2.87,9.08,0.0,-0.0,0.0,23.56,-16.81,-40.69,0.05,0.16,0.76,0.62
37013,00:03:22.167,IMU5,-0.3,6.89,-7.32,0.0,0.0,0.0,13.12,-60.69,-15.88,0.9,0.22,0.07,0.36
37013,00:03:22.167,IMU6,2.03,-9.65,0.46,0.0,0.0,0.0,0.06,41.69,-1.19,-0.44,-0.53,0.44,0.57
37013,00:03:22.167,IMU7,-1.15,2.87,9.08,0.0,-0.0,0.0,23.56,-16.81,-40.69,0.05,0.16,0.76,0.62
37014,00:03:22.172,IMU5,-0.3,6.89,-7.32,0.0,0.0,0.0,13.12,-60.69,-15.88,0.9,0.22,0.07,0.36
37014,00:03:22.172,IMU6,2.03,-9.65,0.46,0.0,0.0,0.0,0.06,41.69,-1.19,-0.44,-0.53,0.44,0.57
37014,00:03:22.172,IMU7,-1.15,2.87,9.08,0.0,0.0,0.0,23.56,-16.81,-40.69,0.05,0.16,0.76,0.62
37015,00:03:22.176,IMU5,-0.3,6.89,-7.32,0.0,0.0,0.0,13.12,-60.69,-15.88,0.9,0.22,0.07,0.36
37015,00:03:22.176,IMU6,2.14,-9.54,0.54,0.0,0.0,0.0,0.06,41.69,-1.19,-0.44,-0.53,0.44,0.57
37015,00:03:22.176,IMU7,-1.15,2.87,9.08,0.0,0.0,0.0,23.56,-16.81,-40.69,0.05,0.16,0.76,0.62
37016,00:03:22.182,IMU5,-0.3,6.89,-7.32,0.0,0.0,0.0,13.12,-60.69,-15.88,0.9,0.22,0.07,0.36
37016,00:03:22.182,IMU6,2.14,-9.54,0.54,0.0,0.0,0.0,-0.06,41.44,-2.25,-0.44,-0.53,0.44,0.57
37016,00:03:22.182,IMU7,-1.11,2.91,9.12,0.0,0.0,0.0,23.56,-16.81,-40.69,0.05,0.16,0.76,0.62
37017,00:03:22.188,IMU5,-0.3,6.89,-7.32,0.0,0.0,0.0,13.12,-60.69,-15.88,0.9,0.22,0.07,0.36
37017,00:03:22.188,IMU6,2.14,-9.54,0.54,0.0,0.0,0.0,-0.06,41.44,-2.25,-0.44,-0.53,0.44,0.57
37017,00:03:22.188,IMU7,-1.11,2.91,9.12,0.0,0.0,0.0,23.94,-17.56,-40.31,0.05,0.16,0.76,0.62
37018,00:03:22.194,IMU5,-0.27,6.86,-7.27,0.0,0.0,0.0,13.12,-60.69,-15.88,0.9,0.22,0.07,0.36
37018,00:03:22.194,IMU6,2.14,-9.54,0.54,0.0,0.0,0.0,-0.06,41.44,-2.25,-0.44,-0.53,0.44,0.57
37018,00:03:22.194,IMU7,-1.11,2.91,9.12,0.0,0.0,-0.01,23.94,-17.56,-40.31,0.05,0.16,0.76,0.62
37019,00:03:22.198,IMU5,-0.27,6.86,-7.27,0.0,0.0,0.0,13.12,-60.69,-15.88,0.9,0.22,0.07,0.36
37019,00:03:22.198,IMU6,2.14,-9.54,0.54,0.0,0.0,0.0,-0.06,41.44,-2.25,-0.44,-0.53,0.44,0.57
37019,00:03:22.198,IMU7,-1.11,2.91,9.12,0.0,0.0,-0.01,23.94,-17.56,-40.31,0.05,0.16,0.76,0.62
37020,00:03:22.203,IMU5,-0.27,6.86,-7.27,0.0,0.0,0.0,14.25,-60.31,-17.12,0.9,0.22,0.07,0.36
37020,00:03:22.203,IMU6,2.14,-9.54,0.54,0.0,0.0,0.0,-0.06,41.44,-2.25,-0.44,-0.53,0.44,0.57
37020,00:03:22.203,IMU7,-1.11,2.91,9.12,-0.0,0.0,-0.0,23.94,-17.56,-40.31,0.05,0.16,0.76,0.62
37021,00:03:22.207,IMU5,-0.27,6.86,-7.27,0.0,0.0,0.0,14.25,-60.31,-17.12,0.9,0.22,0.07,0.36
37021,00:03:22.207,IMU6,2.03,-9.58,0.38,0.0,0.0,0.0,-0.06,41.44,-2.25,-0.44,-0.53,0.44,0.57
37021,00:03:22.207,IMU7,-1.11,2.91,9.12,-0.0,0.0,-0.0,23.94,-17.56,-40.31,0.05,0.16,0.76,0.62
37022,00:03:22.217,IMU5,-0.27,6.86,-7.27,0.0,0.0,0.0,14.25,-60.31,-17.12,0.9,0.22,0.07,0.36
37022,00:03:22.217,IMU6,2.03,-9.58,0.38,0.0,0.0,0.0,-0.06,41.44,-2.25,-0.44,-0.53,0.44,0.57
37022,00:03:22.217,IMU7,-1.11,2.91,9.12,-0.01,0.0,-0.01,23.94,-17.56,-40.31,0.05,0.16,0.76,0.62
37023,00:03:22.221,IMU5,-0.27,6.86,-7.27,0.0,0.0,0.0,14.25,-60.31,-17.12,0.9,0.22,0.07,0.36
37023,00:03:22.221,IMU6,2.03,-9.58,0.38,0.0,0.0,0.0,-0.94,40.81,-2.12,-0.44,-0.53,0.44,0.57
37023,00:03:22.221,IMU7,-1.11,2.91,9.12,-0.01,0.0,-0.01,23.94,-17.56,-40.31,0.05,0.16,0.76,0.62
37024,00:03:22.229,IMU5,-0.27,6.86,-7.27,0.0,0.0,0.0,14.25,-60.31,-17.12,0.9,0.22,0.07,0.36
37024,00:03:22.229,IMU6,2.03,-9.58,0.38,0.0,0.0,0.0,-0.94,40.81,-2.12,-0.44,-0.53,0.44,0.57
37024,00:03:22.229,IMU7,-1.11,2.91,9.12,0.0,0.0,0.0,23.94,-17.56,-40.31,0.05,0.16,0.76,0.62
37025,00:03:22.234,IMU5,-0.27,6.86,-7.27,0.0,0.0,0.0,14.25,-60.31,-17.12,0.9,0.22,0.07,0.36
37025,00:03:22.234,IMU6,2.03,-9.58,0.38,0.0,0.0,0.0,-0.94,40.81,-2.12,-0.44,-0.53,0.44,0.57
37025,00:03:22.234,IMU7,-1.11,2.91,9.12,0.0,0.0,0.0,23.94,-17.56,-40.31,0.05,0.16,0.76,0.62
37026,00:03:22.239,IMU5,-0.27,6.86,-7.27,0.0,0.0,0.0,14.25,-60.31,-17.12,0.9,0.22,0.07,0.36
37026,00:03:22.239,IMU6,2.03,-9.58,0.38,0.0,0.0,0.0,-0.94,40.81,-2.12,-0.44,-0.53,0.44,0.57
37026,00:03:22.239,IMU7,-1.15,2.91,8.89,0.0,0.0,0.0,23.94,-17.56,-40.31,0.05,0.16,0.76,0.62
37027,00:03:22.246,IMU5,-0.27,6.86,-7.27,0.0,0.0,0.0,14.25,-60.31,-17.12,0.9,0.22,0.07,0.36
37027,00:03:22.246,IMU6,2.03,-9.58,0.38,0.0,0.0,0.0,-0.94,40.81,-2.12,-0.44,-0.53,0.44,0.57
37027,00:03:22.246,IMU7,-1.15,2.91,8.89,0.0,0.0,0.0,23.94,-17.56,-40.31,0.05,0.16,0.76,0.62
37028,00:03:22.249,IMU5,-0.27,6.89,-7.28,0.0,0.0,0.0,14.25,-60.31,-17.12,0.9,0.22,0.07,0.36
37028,00:03:22.249,IMU6,2.03,-9.58,0.38,0.0,0.0,0.0,-0.94,40.81,-2.12,-0.44,-0.53,0.44,0.57
37028,00:03:22.249,IMU7,-1.15,2.91,8.89,0.0,0.0,0.0,23.62,-17.62,-41.56,0.05,0.16,0.76,0.62
37029,00:03:22.254,IMU5,-0.27,6.89,-7.28,0.0,0.0,0.0,13.31,-61.31,-17.25,0.9,0.22,0.07,0.36
37029,00:03:22.254,IMU6,2.26,-9.58,0.5,0.0,0.0,0.0,-0.94,40.81,-2.12,-0.44,-0.53,0.44,0.57
37029,00:03:22.254,IMU7,-1.15,2.91,8.89,0.0,0.0,0.0,23.62,-17.62,-41.56,0.05,0.16,0.76,0.62
37030,00:03:22.260,IMU5,-0.27,6.89,-7.28,0.0,0.0,0.0,13.31,-61.31,-17.25,0.9,0.22,0.07,0.36
37030,00:03:22.260,IMU6,2.26,-9.58,0.5,0.0,0.0,0.0,-0.31,41.94,-1.38,-0.44,-0.53,0.44,0.57
37030,00:03:22.260,IMU7,-1.15,2.91,8.89,0.01,0.0,-0.01,23.62,-17.62,-41.56,0.05,0.16,0.76,0.62
37031,00:03:22.263,IMU5,-0.27,6.89,-7.28,0.0,0.0,0.0,13.31,-61.31,-17.25,0.9,0.22,0.07,0.36
37031,00:03:22.263,IMU6,2.26,-9.58,0.5,0.0,0.0,0.0,-0.31,41.94,-1.38,-0.44,-0.53,0.44,0.57
37031,00:03:22.263,IMU7,-1.15,2.91,8.89,0.01,0.0,-0.01,23.62,-17.62,-41.56,0.05,0.16,0.76,0.62
37032,00:03:22.269,IMU5,-0.27,6.89,-7.28,0.0,0.0,0.0,13.31,-61.31,-17.25,0.9,0.22,0.07,0.36
37032,00:03:22.269,IMU6,2.26,-9.58,0.5,0.0,0.0,0.0,-0.31,41.94,-1.38,-0.44,-0.53,0.44,0.57
37032,00:03:22.269,IMU7,-1.23,2.8,8.81,0.01,0.0,-0.01,23.62,-17.62,-41.56,0.05,0.16,0.76,0.62
37033,00:03:22.275,IMU5,-0.27,6.89,-7.28,0.0,0.0,0.0,13.31,-61.31,-17.25,0.9,0.22,0.07,0.36
37033,00:03:22.275,IMU6,2.26,-9.58,0.5,0.0,0.0,0.0,-0.31,41.94,-1.38,-0.44,-0.53,0.44,0.57
37033,00:03:22.275,IMU7,-1.23,2.8,8.81,0.01,0.0,-0.01,22.88,-16.06,-41.44,0.05,0.16,0.76,0.62
37034,00:03:22.280,IMU5,-0.3,6.86,-7.12,0.0,0.0,0.0,13.31,-61.31,-17.25,0.9,0.22,0.07,0.36
37034,00:03:22.280,IMU6,2.26,-9.58,0.5,0.0,0.0,0.0,-0.31,41.94,-1.38,-0.44,-0.53,0.44,0.57
37034,00:03:22.280,IMU7,-1.23,2.8,8.81,0.0,0.02,-0.01,22.88,-16.06,-41.44,0.05,0.16,0.76,0.62
37035,00:03:22.285,IMU5,-0.3,6.86,-7.12,0.0,0.0,0.0,13.31,-61.31,-17.25,0.9,0.22,0.07,0.36
37035,00:03:22.285,IMU6,2.26,-9.58,0.5,0.0,0.0,0.0,-0.31,41.94,-1.38,-0.44,-0.53,0.44,0.57
37035,00:03:22.285,IMU7,-1.23,2.8,8.81,0.0,0.02,-0.01,22.88,-16.06,-41.44,0.05,0.16,0.76,0.62
37036,00:03:22.290,IMU5,-0.3,6.86,-7.12,0.0,0.0,0.0,15.25,-60.25,-16.81,0.9,0.22,0.07,0.36
37036,00:03:22.290,IMU6,2.26,-9.58,0.5,0.0,0.0,0.0,-0.31,41.94,-1.38,-0.44,-0.53,0.44,0.57
37036,00:03:22.290,IMU7,-1.23,2.8,8.81,0.01,-0.03,0.0,22.88,-16.06,-41.44,0.05,0.16,0.76,0.62
37037,00:03:22.293,IMU5,-0.3,6.86,-7.12,0.0,0.0,0.0,15.25,-60.25,-16.81,0.9,0.22,0.07,0.36
37037,00:03:22.293,IMU6,2.26,-9.58,0.5,0.0,0.0,0.0,-0.31,41.94,-1.38,-0.44,-0.53,0.44,0.57
37037,00:03:22.293,IMU7,-1.23,2.8,8.81,0.01,-0.03,0.0,22.88,-16.06,-41.44,0.05,0.16,0.76,0.62
37038,00:03:22.300,IMU5,-0.3,6.86,-7.12,0.0,0.0,0.0,15.25,-60.25,-16.81,0.9,0.22,0.07,0.36
37038,00:03:22.300,IMU6,2.26,-9.58,0.5,0.0,0.0,0.0,-0.31,41.94,-1.38,-0.44,-0.53,0.44,0.57
37038,00:03:22.300,IMU7,-1.23,2.8,8.81,-0.01,-0.01,0.0,22.88,-16.06,-41.44,0.05,0.16,0.76,0.62
37039,00:03:22.307,IMU5,-0.3,6.86,-7.12,0.0,0.0,0.0,15.25,-60.25,-16.81,0.9,0.22,0.07,0.36
37039,00:03:22.307,IMU6,2.26,-9.58,0.5,0.0,0.0,0.0,-0.31,41.94,-1.38,-0.44,-0.53,0.44,0.57
37039,00:03:22.307,IMU7,-1.23,2.8,8.81,-0.01,-0.01,0.0,22.88,-16.06,-41.44,0.05,0.16,0.76,0.62
37040,00:03:22.314,IMU5,-0.3,6.86,-7.12,0.0,0.0,0.0,15.25,-60.25,-16.81,0.9,0.22,0.07,0.36
37040,00:03:22.314,IMU6,2.26,-9.58,0.5,0.0,0.0,0.0,-0.31,41.94,-1.38,-0.44,-0.53,0.44,0.57
37040,00:03:22.314,IMU7,-1.23,2.8,8.81,-0.0,0.04,0.0,22.88,-16.06,-41.44,0.05,0.16,0.76,0.62
37041,00:03:22.317,IMU5,-0.3,6.86,-7.12,0.0,0.0,0.0,15.25,-60.25,-16.81,0.9,0.22,0.07,0.36
37041,00:03:22.317,IMU6,2.07,-9.73,0.42,0.0,0.0,0.0,-0.31,41.94,-1.38,-0.44,-0.53,0.44,0.57
37041,00:03:22.317,IMU7,-1.23,2.8,8.81,-0.0,0.04,0.0,22.88,-16.06,-41.44,0.05,0.16,0.76,0.62
37042,00:03:22.323,IMU5,-0.3,6.86,-7.12,0.0,0.0,0.0,15.25,-60.25,-16.81,0.9,0.22,0.07,0.36
37042,00:03:22.323,IMU6,2.07,-9.73,0.42,0.0,0.0,0.0,-0.81,42.94,-0.75,-0.44,-0.53,0.44,0.57
37042,00:03:22.323,IMU7,-1.11,2.91,9.08,-0.0,0.04,0.0,22.88,-16.06,-41.44,0.05,0.16,0.76,0.62
37043,00:03:22.329,IMU5,-0.3,6.86,-7.12,0.0,0.0,0.0,15.25,-60.25,-16.81,0.9,0.22,0.07,0.36
37043,00:03:22.329,IMU6,2.07,-9.73,0.42,0.0,0.0,0.0,-0.81,42.94,-0.75,-0.44,-0.53,0.44,0.57
37043,00:03:22.329,IMU7,-1.11,2.91,9.08,-0.0,0.04,0.0,23.5,-16.31,-39.44,0.05,0.16,0.76,0.62
37044,00:03:22.335,IMU5,-0.27,6.78,-7.24,0.0,0.0,0.0,15.25,-60.25,-16.81,0.9,0.22,0.07,0.36
37044,00:03:22.335,IMU6,2.07,-9.73,0.42,0.0,0.0,0.0,-0.81,42.94,-0.75,-0.44,-0.53,0.44,0.57
37044,00:03:22.335,IMU7,-1.11,2.91,9.08,-0.0,0.01,0.0,23.5,-16.31,-39.44,0.05,0.16,0.76,0.62
37045,00:03:22.338,IMU5,-0.27,6.78,-7.24,0.0,0.0,0.0,15.25,-60.25,-16.81,0.9,0.22,0.07,0.36
37045,00:03:22.338,IMU6,2.07,-9.73,0.42,0.0,0.0,0.0,-0.81,42.94,-0.75,-0.44,-0.53,0.44,0.57
37045,00:03:22.338,IMU7,-1.11,2.91,9.08,-0.0,0.01,0.0,23.5,-16.31,-39.44,0.05,0.16,0.76,0.62
37046,00:03:22.343,IMU5,-0.27,6.78,-7.24,0.0,0.0,0.0,12.69,-61.5,-18.12,0.9,0.22,0.07,0.36
37046,00:03:22.343,IMU6,2.07,-9.73,0.42,0.0,0.0,0.0,-0.81,42.94,-0.75,-0.44,-0.53,0.44,0.57
37046,00:03:22.343,IMU7,-1.11,2.91,9.08,-0.0,-0.01,0.01,23.5,-16.31,-39.44,0.05,0.16,0.76,0.62
37047,00:03:22.347,IMU5,-0.27,6.78,-7.24,0.0,0.0,0.0,12.69,-61.5,-18.12,0.9,0.22,0.07,0.36
37047,00:03:22.347,IMU6,2.07,-9.73,0.42,0.0,0.0,0.0,-0.81,42.94,-0.75,-0.44,-0.53,0.44,0.57
37047,00:03:22.347,IMU7,-1.11,2.91,9.08,-0.0,-0.01,0.01,23.5,-16.31,-39.44,0.05,0.16,0.76,0.62
37048,00:03:22.353,IMU5,-0.27,6.78,-7.24,0.0,0.0,0.0,12.69,-61.5,-18.12,0.9,0.22,0.07,0.36
37048,00:03:22.353,IMU6,2.07,-9.73,0.42,0.0,0.0,0.0,-0.81,42.94,-0.75,-0.44,-0.53,0.44,0.57
37048,00:03:22.353,IMU7,-1.11,2.91,9.08,-0.02,0.01,0.0,23.5,-16.31,-39.44,0.05,0.16,0.76,0.62
37049,00:03:22.360,IMU5,-0.27,6.78,-7.24,0.0,0.0,0.0,12.69,-61.5,-18.12,0.9,0.22,0.07,0.36
37049,00:03:22.360,IMU6,2.07,-9.73,0.42,0.0,0.0,0.0,-0.81,42.94,-0.75,-0.44,-0.53,0.44,0.57
37049,00:03:22.360,IMU7,-1.11,2.91,9.08,-0.02,0.01,0.0,23.5,-16.31,-39.44,0.05,0.16,0.76,0.62
37050,00:03:22.367,IMU5,-0.27,6.78,-7.24,0.0,0.0,0.0,12.69,-61.5,-18.12,0.9,0.22,0.07,0.36
37050,00:03:22.367,IMU6,2.07,-9.73,0.42,0.0,0.0,0.0,-0.81,42.94,-0.75,-0.44,-0.53,0.44,0.57
37050,00:03:22.367,IMU7,-1.11,2.91,9.08,-0.01,0.01,-0.01,23.5,-16.31,-39.44,0.05,0.16,0.76,0.62
37051,00:03:22.370,IMU5,-0.27,6.78,-7.24,0.0,0.0,0.0,12.69,-61.5,-18.12,0.9,0.22,0.07,0.36
37051,00:03:22.370,IMU6,2.07,-9.73,0.42,0.0,0.0,0.0,-0.81,42.94,-0.75,-0.44,-0.53,0.44,0.57
37051,00:03:22.370,IMU7,-1.11,2.91,9.08,-0.01,0.01,-0.01,23.5,-16.31,-39.44,0.05,0.16,0.76,0.62
37052,00:03:22.377,IMU5,-0.27,6.78,-7.24,0.0,0.0,0.0,12.69,-61.5,-18.12,0.9,0.22,0.07,0.36
37052,00:03:22.377,IMU6,2.07,-9.73,0.42,0.0,0.0,0.0,-0.81,42.94,-0.75,-0.44,-0.53,0.44,0.57
37052,00:03:22.377,IMU7,-1.07,3.03,9.23,-0.01,0.01,-0.01,23.5,-16.31,-39.44,0.05,0.16,0.76,0.62
37053,00:03:22.384,IMU5,-0.27,6.78,-7.24,0.0,0.0,0.0,12.69,-61.5,-18.12,0.9,0.22,0.07,0.36
37053,00:03:22.384,IMU6,2.07,-9.73,0.42,0.0,0.0,0.0,-0.81,42.94,-0.75,-0.44,-0.53,0.44,0.57
37053,00:03:22.384,IMU7,-1.07,3.03,9.23,-0.01,0.01,-0.01,22.88,-16.75,-40.62,0.05,0.16,0.76,0.62
37054,00:03:22.390,IMU5,-0.23,6.86,-7.2,0.0,0.0,0.0,12.69,-61.5,-18.12,0.9,0.22,0.07,0.36
37054,00:03:22.390,IMU6,2.07,-9.73,0.42,0.0,0.0,0.0,-0.81,42.94,-0.75,-0.44,-0.53,0.44,0.57
37054,00:03:22.390,IMU7,-1.07,3.03,9.23,-0.01,0.02,0.0,22.88,-16.75,-40.62,0.05,0.16,0.76,0.62
37055,00:03:22.393,IMU5,-0.23,6.86,-7.2,0.0,0.0,0.0,15.31,-60.81,-17.81,0.9,0.22,0.07,0.36
37055,00:03:22.393,IMU6,2.03,-9.58,0.46,0.0,0.0,0.0,-0.81,42.94,-0.75,-0.44,-0.53,0.44,0.57
37055,00:03:22.393,IMU7,-1.07,3.03,9.23,-0.01,0.02,0.0,22.88,-16.75,-40.62,0.05,0.16,0.76,0.62
37056,00:03:22.399,IMU5,-0.23,6.86,-7.2,0.0,0.0,0.0,15.31,-60.81,-17.81,0.9,0.22,0.07,0.36
37056,00:03:22.399,IMU6,2.03,-9.58,0.46,0.0,0.0,0.0,0.12,41.25,-1.56,-0.44,-0.53,0.44,0.57
37056,00:03:22.399,IMU7,-1.07,3.03,9.23,0.0,0.01,-0.0,22.88,-16.75,-40.62,0.05,0.16,0.76,0.62
37057,00:03:22.404,IMU5,-0.23,6.86,-7.2,0.0,0.0,0.0,15.31,-60.81,-17.81,0.9,0.22,0.07,0.36
37057,00:03:22.404,IMU6,2.03,-9.58,0.46,0.0,0.0,0.0,0.12,41.25,-1.56,-0.44,-0.53,0.44,0.57
37057,00:03:22.404,IMU7,-1.07,3.03,9.23,0.0,0.01,-0.0,22.88,-16.75,-40.62,0.05,0.16,0.76,0.62
37058,00:03:22.409,IMU5,-0.23,6.86,-7.2,0.0,0.0,0.0,15.31,-60.81,-17.81,0.9,0.22,0.07,0.36
37058,00:03:22.409,IMU6,2.03,-9.58,0.46,0.0,0.0,0.0,0.12,41.25,-1.56,-0.44,-0.53,0.44,0.57
37058,00:03:22.409,IMU7,-1.07,3.03,9.23,-0.01,0.01,-0.01,22.88,-16.75,-40.62,0.05,0.16,0.76,0.62
37059,00:03:22.412,IMU5,-0.23,6.86,-7.2,0.0,0.0,0.0,15.31,-60.81,-17.81,0.9,0.22,0.07,0.36
37059,00:03:22.412,IMU6,2.03,-9.58,0.46,0.0,0.0,0.0,0.12,41.25,-1.56,-0.44,-0.53,0.44,0.57
37059,00:03:22.412,IMU7,-1.07,3.03,9.23,-0.01,0.01,-0.01,22.88,-16.75,-40.62,0.05,0.16,0.76,0.62
37060,00:03:22.417,IMU5,-0.23,6.86,-7.2,0.0,0.0,0.0,15.31,-60.81,-17.81,0.9,0.22,0.07,0.36
37060,00:03:22.417,IMU6,2.03,-9.58,0.46,0.0,0.0,0.0,0.12,41.25,-1.56,-0.44,-0.53,0.44,0.57
37060,00:03:22.417,IMU7,-1.19,2.87,9.2,-0.01,0.01,-0.01,22.88,-16.75,-40.62,0.05,0.16,0.76,0.62
37061,00:03:22.423,IMU5,-0.23,6.86,-7.2,0.0,0.0,0.0,15.31,-60.81,-17.81,0.9,0.22,0.07,0.36
37061,00:03:22.423,IMU6,2.03,-9.58,0.46,0.0,0.0,0.0,0.12,41.25,-1.56,-0.44,-0.53,0.44,0.57
37061,00:03:22.423,IMU7,-1.19,2.87,9.2,-0.01,0.01,-0.01,23.62,-17.25,-41.12,0.05,0.16,0.76,0.62
37062,00:03:22.429,IMU5,-0.3,6.86,-7.24,0.0,0.0,0.0,15.31,-60.81,-17.81,0.9,0.22,0.07,0.36
37062,00:03:22.429,IMU6,2.03,-9.58,0.46,0.0,0.0,0.0,0.12,41.25,-1.56,-0.44,-0.53,0.44,0.57
37062,00:03:22.429,IMU7,-1.19,2.87,9.2,-0.0,-0.0,0.0,23.62,-17.25,-41.12,0.05,0.16,0.76,0.62
37063,00:03:22.433,IMU5,-0.3,6.86,-7.24,0.0,0.0,0.0,13.75,-59.38,-16.0,0.9,0.22,0.07,0.36
37063,00:03:22.433,IMU6,2.03,-9.61,0.46,0.0,0.0,0.0,0.12,41.25,-1.56,-0.44,-0.53,0.44,0.57
37063,00:03:22.433,IMU7,-1.19,2.87,9.2,-0.0,-0.0,0.0,23.62,-17.25,-41.12,0.05,0.16,0.76,0.62
37064,00:03:22.438,IMU5,-0.3,6.86,-7.24,0.0,0.0,0.0,13.75,-59.38,-16.0,0.9,0.22,0.07,0.36
37064,00:03:22.438,IMU6,2.03,-9.61,0.46,0.0,0.0,0.0,-0.75,42.25,-1.19,-0.44,-0.53,0.44,0.57
37064,00:03:22.438,IMU7,-1.19,2.87,9.2,0.0,0.0,0.0,23.62,-17.25,-41.12,0.05,0.16,0.76,0.62
37065,00:03:22.441,IMU5,-0.3,6.86,-7.24,0.0,0.0,0.0,13.75,-59.38,-16.0,0.9,0.22,0.07,0.36
37065,00:03:22.441,IMU6,2.03,-9.61,0.46,0.0,0.0,0.0,-0.75,42.25,-1.19,-0.44,-0.53,0.44,0.57
37065,00:03:22.441,IMU7,-1.19,2.87,9.2,0.0,0.0,0.0,23.62,-17.25,-41.12,0.05,0.16,0.76,0.62
37066,00:03:22.446,IMU5,-0.3,6.86,-7.24,0.0,0.0,0.0,13.75,-59.38,-16.0,0.9,0.22,0.07,0.36
37066,00:03:22.446,IMU6,2.03,-9.61,0.46,0.0,0.0,0.0,-0.75,42.25,-1.19,-0.44,-0.53,0.44,0.57
37066,00:03:22.446,IMU7,-1.19,2.91,9.04,0.0,0.0,0.0,23.62,-17.25,-41.12,0.05,0.16,0.76,0.62
37067,00:03:22.455,IMU5,-0.3,6.86,-7.24,0.0,0.0,0.0,13.75,-59.38,-16.0,0.9,0.22,0.07,0.36
37067,00:03:22.455,IMU6,2.03,-9.61,0.46,0.0,0.0,0.0,-0.75,42.25,-1.19,-0.44,-0.53,0.44,0.57
37067,00:03:22.455,IMU7,-1.19,2.91,9.04,0.0,0.0,0.0,22.19,-17.12,-40.62,0.05,0.16,0.76,0.62
37068,00:03:22.462,IMU5,-0.3,6.86,-7.24,0.0,0.0,0.0,13.75,-59.38,-16.0,0.9,0.22,0.07,0.36
37068,00:03:22.462,IMU6,2.03,-9.61,0.46,0.0,0.0,0.0,-0.75,42.25,-1.19,-0.44,-0.53,0.44,0.57
37068,00:03:22.462,IMU7,-1.19,2.91,9.04,0.0,0.0,0.0,22.19,-17.12,-40.62,0.05,0.16,0.76,0.62
37069,00:03:22.465,IMU5,-0.3,6.86,-7.24,0.0,0.0,0.0,13.75,-59.38,-16.0,0.9,0.22,0.07,0.36
37069,00:03:22.465,IMU6,2.03,-9.61,0.46,0.0,0.0,0.0,-0.75,42.25,-1.19,-0.44,-0.53,0.44,0.57
37069,00:03:22.465,IMU7,-1.19,2.91,9.04,0.0,0.0,0.0,22.19,-17.12,-40.62,0.05,0.16,0.76,0.62
37070,00:03:22.472,IMU5,-0.3,6.86,-7.24,0.0,0.0,0.0,13.75,-59.38,-16.0,0.9,0.22,0.07,0.36
37070,00:03:22.472,IMU6,2.03,-9.61,0.46,0.0,0.0,0.0,-0.75,42.25,-1.19,-0.44,-0.53,0.44,0.57
37070,00:03:22.472,IMU7,-1.15,2.95,9.08,0.0,0.0,0.0,22.19,-17.12,-40.62,0.05,0.16,0.76,0.62
37071,00:03:22.479,IMU5,-0.3,6.86,-7.24,0.0,0.0,0.0,13.75,-59.38,-16.0,0.9,0.22,0.07,0.36
37071,00:03:22.479,IMU6,2.03,-9.61,0.46,0.0,0.0,0.0,-0.75,42.25,-1.19,-0.44,-0.53,0.44,0.57
37071,00:03:22.479,IMU7,-1.15,2.95,9.08,0.0,0.0,0.0,23.0,-19.38,-40.44,0.05,0.16,0.76,0.62
37072,00:03:22.488,IMU5,-0.27,6.86,-7.23,0.0,0.0,0.0,13.75,-59.38,-16.0,0.9,0.22,0.07,0.36
37072,00:03:22.488,IMU6,2.03,-9.61,0.46,0.0,0.0,0.0,-0.75,42.25,-1.19,-0.44,-0.53,0.44,0.57
37072,00:03:22.488,IMU7,-1.15,2.95,9.08,0.0,0.01,0.0,23.0,-19.38,-40.44,0.05,0.16,0.76,0.62
37073,00:03:22.491,IMU5,-0.27,6.86,-7.23,0.0,0.0,0.0,14.94,-61.0,-17.0,0.9,0.22,0.07,0.36
37073,00:03:22.491,IMU6,2.03,-9.61,0.46,0.0,0.0,0.0,-0.75,42.25,-1.19,-0.44,-0.53,0.44,0.57
37073,00:03:22.491,IMU7,-1.15,2.95,9.08,0.0,0.01,0.0,23.0,-19.38,-40.44,0.05,0.16,0.76,0.62
37074,00:03:22.498,IMU5,-0.27,6.86,-7.23,0.0,0.0,0.0,14.94,-61.0,-17.0,0.9,0.22,0.07,0.36
37074,00:03:22.498,IMU6,2.03,-9.61,0.46,0.0,0.0,0.0,-0.75,42.25,-1.19,-0.44,-0.53,0.44,0.57
37074,00:03:22.498,IMU7,-1.15,2.91,9.16,0.0,0.01,0.0,23.0,-19.38,-40.44,0.05,0.16,0.76,0.62
37075,00:03:22.509,IMU5,-0.27,6.86,-7.23,0.0,0.0,0.0,14.94,-61.0,-17.0,0.9,0.22,0.07,0.36
37075,00:03:22.509,IMU6,2.03,-9.61,0.46,0.0,0.0,0.0,-0.75,42.25,-1.19,-0.44,-0.53,0.44,0.57
37075,00:03:22.509,IMU7,-1.15,2.91,9.16,0.0,-0.0,0.0,23.0,-19.38,-40.44,0.05,0.16,0.76,0.62
37076,00:03:22.513,IMU5,-0.23,6.82,-7.2,0.0,0.0,0.0,14.94,-61.0,-17.0,0.9,0.22,0.07,0.36
37076,00:03:22.513,IMU6,2.03,-9.61,0.46,0.0,0.0,0.0,-0.75,42.25,-1.19,-0.44,-0.53,0.44,0.57
37076,00:03:22.513,IMU7,-1.15,2.91,9.16,0.0,-0.0,0.0,22.94,-17.56,-40.69,0.05,0.16,0.76,0.62
37077,00:03:22.516,IMU5,-0.23,6.82,-7.2,0.0,0.0,0.0,13.62,-60.69,-17.56,0.9,0.22,0.07,0.36
37077,00:03:22.516,IMU6,2.07,-9.65,0.42,0.0,0.0,0.0,-0.75,42.25,-1.19,-0.44,-0.53,0.44,0.57
37077,00:03:22.516,IMU7,-1.15,2.91,9.16,0.0,-0.0,0.0,22.94,-17.56,-40.69,0.05,0.16,0.76,0.62
37078,00:03:22.522,IMU5,-0.23,6.82,-7.2,0.0,0.0,0.0,13.62,-60.69,-17.56,0.9,0.22,0.07,0.36
37078,00:03:22.522,IMU6,2.07,-9.65,0.42,0.0,0.0,0.0,-0.31,40.69,-1.62,-0.44,-0.53,0.44,0.57
37078,00:03:22.522,IMU7,-1.15,2.91,9.16,0.0,0.0,-0.0,22.94,-17.56,-40.69,0.05,0.16,0.76,0.62
37079,00:03:22.525,IMU5,-0.23,6.82,-7.2,0.0,0.0,0.0,13.62,-60.69,-17.56,0.9,0.22,0.07,0.36
37079,00:03:22.525,IMU6,2.07,-9.65,0.42,0.0,0.0,0.0,-0.31,40.69,-1.62,-0.44,-0.53,0.44,0.57
37079,00:03:22.525,IMU7,-1.15,2.91,9.16,0.0,0.0,-0.0,22.94,-17.56,-40.69,0.05,0.16,0.76,0.62
37080,00:03:22.531,IMU5,-0.23,6.82,-7.2,0.0,0.0,0.0,13.62,-60.69,-17.56,0.9,0.22,0.07,0.36
37080,00:03:22.531,IMU6,2.07,-9.65,0.42,0.0,0.0,0.0,-0.31,40.69,-1.62,-0.44,-0.53,0.44,0.57
37080,00:03:22.531,IMU7,-1.15,2.91,9.16,0.0,0.0,0.0,22.94,-17.56,-40.69,0.05,0.16,0.76,0.62
37081,00:03:22.535,IMU5,-0.23,6.82,-7.2,0.0,0.0,0.0,13.62,-60.69,-17.56,0.9,0.22,0.07,0.36
37081,00:03:22.535,IMU6,2.07,-9.65,0.42,0.0,0.0,0.0,-0.31,40.69,-1.62,-0.44,-0.53,0.44,0.57
37081,00:03:22.535,IMU7,-1.15,2.91,9.16,0.0,0.0,0.0,22.94,-17.56,-40.69,0.05,0.16,0.76,0.62
37082,00:03:22.542,IMU5,-0.23,6.82,-7.2,0.0,0.0,0.0,13.62,-60.69,-17.56,0.9,0.22,0.07,0.36
37082,00:03:22.542,IMU6,2.07,-9.65,0.42,0.0,0.0,0.0,-0.31,40.69,-1.62,-0.44,-0.53,0.44,0.57
37082,00:03:22.542,IMU7,-1.19,2.87,9.08,0.0,0.0,0.0,22.94,-17.56,-40.69,0.05,0.16,0.76,0.62
37083,00:03:22.546,IMU5,-0.23,6.82,-7.2,0.0,0.0,0.0,13.62,-60.69,-17.56,0.9,0.22,0.07,0.36
37083,00:03:22.546,IMU6,2.07,-9.65,0.42,0.0,0.0,0.0,-0.31,40.69,-1.62,-0.44,-0.53,0.44,0.57
37083,00:03:22.546,IMU7,-1.19,2.87,9.08,0.0,-0.0,0.0,22.94,-17.56,-40.69,0.05,0.16,0.76,0.62
37084,00:03:22.552,IMU5,-0.23,6.82,-7.2,0.0,0.0,0.0,13.62,-60.69,-17.56,0.9,0.22,0.07,0.36
37084,00:03:22.552,IMU6,2.07,-9.65,0.42,0.0,0.0,0.0,-0.31,40.69,-1.62,-0.44,-0.53,0.44,0.57
37084,00:03:22.552,IMU7,-1.19,2.87,9.08,0.0,-0.0,0.0,23.25,-17.12,-39.94,0.05,0.16,0.76,0.62
37085,00:03:22.559,IMU5,-0.23,6.82,-7.2,0.0,0.0,0.0,13.62,-60.69,-17.56,0.9,0.22,0.07,0.36
37085,00:03:22.559,IMU6,2.03,-9.58,0.34,0.0,0.0,0.0,-0.31,40.69,-1.62,-0.44,-0.53,0.44,0.57
37085,00:03:22.559,IMU7,-1.19,2.87,9.08,0.0,-0.0,0.0,23.25,-17.12,-39.94,0.05,0.16,0.76,0.62
37086,00:03:22.568,IMU5,-0.3,6.82,-7.31,0.0,0.0,0.0,13.62,-60.69,-17.56,0.9,0.22,0.07,0.36
37086,00:03:22.568,IMU6,2.03,-9.58,0.34,0.0,0.0,0.0,-0.31,40.69,-1.62,-0.44,-0.53,0.44,0.57
37086,00:03:22.568,IMU7,-1.19,2.87,9.08,0.0,0.0,-0.01,23.25,-17.12,-39.94,0.05,0.16,0.76,0.62
37087,00:03:22.571,IMU5,-0.3,6.82,-7.31,0.0,0.0,0.0,15.0,-60.81,-17.75,0.9,0.22,0.07,0.36
37087,00:03:22.571,IMU6,2.03,-9.58,0.34,0.0,0.0,0.0,-1.44,41.5,-1.56,-0.44,-0.53,0.44,0.57
37087,00:03:22.571,IMU7,-1.19,2.87,9.08,0.0,0.0,-0.01,23.25,-17.12,-39.94,0.05,0.16,0.76,0.62
37088,00:03:22.578,IMU5,-0.3,6.82,-7.31,0.0,0.0,0.0,15.0,-60.81,-17.75,0.9,0.22,0.07,0.36
37088,00:03:22.578,IMU6,2.03,-9.58,0.34,0.0,0.0,0.0,-1.44,41.5,-1.56,-0.44,-0.53,0.44,0.57
37088,00:03:22.578,IMU7,-1.19,2.87,9.08,0.0,0.0,0.0,23.25,-17.12,-39.94,0.05,0.16,0.76,0.62
37089,00:03:22.585,IMU5,-0.3,6.82,-7.31,0.0,0.0,0.0,15.0,-60.81,-17.75,0.9,0.22,0.07,0.36
37089,00:03:22.585,IMU6,2.03,-9.58,0.34,0.0,0.0,0.0,-1.44,41.5,-1.56,-0.44,-0.53,0.44,0.57
37089,00:03:22.585,IMU7,-1.19,2.87,9.08,0.0,0.0,0.0,23.25,-17.12,-39.94,0.05,0.16,0.76,0.62
37090,00:03:22.592,IMU5,-0.27,6.89,-7.28,0.0,0.0,0.0,15.0,-60.81,-17.75,0.9,0.22,0.07,0.36
37090,00:03:22.592,IMU6,2.03,-9.58,0.34,0.0,0.0,0.0,-1.44,41.5,-1.56,-0.44,-0.53,0.44,0.57
37090,00:03:22.592,IMU7,-1.19,2.87,9.08,-0.0,-0.0,0.0,23.25,-17.12,-39.94,0.05,0.16,0.76,0.62
37091,00:03:22.595,IMU5,-0.27,6.89,-7.28,0.0,0.0,0.0,14.94,-60.69,-17.31,0.9,0.22,0.07,0.36
37091,00:03:22.595,IMU6,2.03,-9.58,0.34,0.0,0.0,0.0,-1.44,41.5,-1.56,-0.44,-0.53,0.44,0.57
37091,00:03:22.595,IMU7,-1.19,2.87,9.08,-0.0,-0.0,0.0,23.25,-17.12,-39.94,0.05,0.16,0.76,0.62
37092,00:03:22.600,IMU5,-0.27,6.89,-7.28,0.0,0.0,0.0,14.94,-60.69,-17.31,0.9,0.22,0.07,0.36
37092,00:03:22.600,IMU6,2.03,-9.58,0.34,0.0,0.0,0.0,-1.44,41.5,-1.56,-0.44,-0.53,0.44,0.57
37092,00:03:22.600,IMU7,-1.19,2.87,9.08,-0.0,-0.0,0.0,23.25,-17.12,-39.94,0.05,0.16,0.76,0.62
37093,00:03:22.606,IMU5,-0.27,6.89,-7.28,0.0,0.0,0.0,14.94,-60.69,-17.31,0.9,0.22,0.07,0.36
37093,00:03:22.606,IMU6,2.03,-9.58,0.34,0.0,0.0,0.0,-1.44,41.5,-1.56,-0.44,-0.53,0.44,0.57
37093,00:03:22.606,IMU7,-1.19,2.87,9.08,-0.0,-0.0,0.0,23.25,-17.12,-39.94,0.05,0.16,0.76,0.62
37094,00:03:22.613,IMU5,-0.27,6.89,-7.28,0.0,0.0,0.0,14.94,-60.69,-17.31,0.9,0.22,0.07,0.36
37094,00:03:22.613,IMU6,2.03,-9.58,0.34,0.0,0.0,0.0,-1.44,41.5,-1.56,-0.44,-0.53,0.44,0.57
37094,00:03:22.613,IMU7,-1.19,2.87,9.08,-0.0,0.0,-0.0,23.25,-17.12,-39.94,0.05,0.16,0.76,0.62
37095,00:03:22.616,IMU5,-0.27,6.89,-7.28,0.0,0.0,0.0,14.94,-60.69,-17.31,0.9,0.22,0.07,0.36
37095,00:03:22.616,IMU6,2.11,-9.61,0.42,0.0,0.0,0.0,-1.44,41.5,-1.56,-0.44,-0.53,0.44,0.57
37095,00:03:22.616,IMU7,-1.19,2.87,9.08,-0.0,0.0,-0.0,23.25,-17.12,-39.94,0.05,0.16,0.76,0.62
37096,00:03:22.622,IMU5,-0.27,6.89,-7.28,0.0,0.0,0.0,14.94,-60.69,-17.31,0.9,0.22,0.07,0.36
37096,00:03:22.622,IMU6,2.11,-9.61,0.42,0.0,0.0,0.0,-1.25,42.0,-0.81,-0.44,-0.53,0.44,0.57
37096,00:03:22.622,IMU7,-1.19,2.91,9.04,-0.0,0.0,-0.0,23.25,-17.12,-39.94,0.05,0.16,0.76,0.62
37097,00:03:22.629,IMU5,-0.27,6.89,-7.28,0.0,0.0,0.0,14.94,-60.69,-17.31,0.9,0.22,0.07,0.36
37097,00:03:22.629,IMU6,2.11,-9.61,0.42,0.0,0.0,0.0,-1.25,42.0,-0.81,-0.44,-0.53,0.44,0.57
37097,00:03:22.629,IMU7,-1.19,2.91,9.04,-0.0,0.0,-0.0,22.69,-19.12,-42.06,0.05,0.16,0.76,0.62
37098,00:03:22.636,IMU5,-0.3,6.86,-7.2,0.0,0.0,0.0,14.94,-60.69,-17.31,0.9,0.22,0.07,0.36
37098,00:03:22.636,IMU6,2.11,-9.61,0.42,0.0,0.0,0.0,-1.25,42.0,-0.81,-0.44,-0.53,0.44,0.57
37098,00:03:22.636,IMU7,-1.19,2.91,9.04,-0.0,0.0,0.0,22.69,-19.12,-42.06,0.05,0.16,0.76,0.62
37099,00:03:22.639,IMU5,-0.3,6.86,-7.2,0.0,0.0,0.0,14.94,-60.69,-17.31,0.9,0.22,0.07,0.36
37099,00:03:22.639,IMU6,2.11,-9.61,0.42,0.0,0.0,0.0,-1.25,42.0,-0.81,-0.44,-0.53,0.44,0.57
37099,00:03:22.639,IMU7,-1.19,2.91,9.04,-0.0,0.0,0.0,22.69,-19.12,-42.06,0.05,0.16,0.76,0.62
37100,00:03:22.643,IMU5,-0.3,6.86,-7.2,0.0,0.0,0.0,13.12,-60.06,-16.12,0.9,0.22,0.07,0.36
37100,00:03:22.643,IMU6,2.11,-9.61,0.42,0.0,0.0,0.0,-1.25,42.0,-0.81,-0.44,-0.53,0.44,0.57
37100,00:03:22.643,IMU7,-1.19,2.91,9.04,-0.0,-0.0,0.0,22.69,-19.12,-42.06,0.05,0.16,0.76,0.62
37101,00:03:22.647,IMU5,-0.3,6.86,-7.2,0.0,0.0,0.0,13.12,-60.06,-16.12,0.9,0.22,0.07,0.36
37101,00:03:22.647,IMU6,2.11,-9.61,0.42,0.0,0.0,0.0,-1.25,42.0,-0.81,-0.44,-0.53,0.44,0.57
37101,00:03:22.647,IMU7,-1.19,2.91,9.04,-0.0,-0.0,0.0,22.69,-19.12,-42.06,0.05,0.16,0.76,0.62
37102,00:03:22.654,IMU5,-0.3,6.86,-7.2,0.0,0.0,0.0,13.12,-60.06,-16.12,0.9,0.22,0.07,0.36
37102,00:03:22.654,IMU6,2.11,-9.61,0.42,0.0,0.0,0.0,-1.25,42.0,-0.81,-0.44,-0.53,0.44,0.57
37102,00:03:22.654,IMU7,-1.19,2.91,9.04,0.0,0.0,0.0,22.69,-19.12,-42.06,0.05,0.16,0.76,0.62
37103,00:03:22.660,IMU5,-0.3,6.86,-7.2,0.0,0.0,0.0,13.12,-60.06,-16.12,0.9,0.22,0.07,0.36
37103,00:03:22.660,IMU6,2.11,-9.61,0.42,0.0,0.0,0.0,-1.25,42.0,-0.81,-0.44,-0.53,0.44,0.57
37103,00:03:22.660,IMU7,-1.19,2.91,9.04,0.0,0.0,0.0,22.69,-19.12,-42.06,0.05,0.16,0.76,0.62
37104,00:03:22.667,IMU5,-0.3,6.86,-7.2,0.0,0.0,0.0,13.12,-60.06,-16.12,0.9,0.22,0.07,0.36
37104,00:03:22.667,IMU6,2.11,-9.61,0.42,0.0,0.0,0.0,-1.25,42.0,-0.81,-0.44,-0.53,0.44,0.57
37104,00:03:22.667,IMU7,-1.19,2.91,9.04,0.0,0.0,0.0,22.69,-19.12,-42.06,0.05,0.16,0.76,0.62
37105,00:03:22.670,IMU5,-0.3,6.86,-7.2,0.0,0.0,0.0,13.12,-60.06,-16.12,0.9,0.22,0.07,0.36
37105,00:03:22.670,IMU6,2.11,-9.58,0.5,0.0,0.0,0.0,-1.25,42.0,-0.81,-0.44,-0.53,0.44,0.57
37105,00:03:22.670,IMU7,-1.19,2.91,9.04,0.0,0.0,0.0,22.69,-19.12,-42.06,0.05,0.16,0.76,0.62
37106,00:03:22.677,IMU5,-0.27,6.82,-7.21,0.0,0.0,0.0,13.12,-60.06,-16.12,0.9,0.22,0.07,0.36
37106,00:03:22.677,IMU6,2.11,-9.58,0.5,0.0,0.0,0.0,-1.38,43.69,-0.06,-0.44,-0.53,0.44,0.57
37106,00:03:22.677,IMU7,-1.19,2.91,9.04,-0.01,0.0,-0.0,22.69,-19.12,-42.06,0.05,0.16,0.76,0.62
37107,00:03:22.684,IMU5,-0.27,6.82,-7.21,0.0,0.0,0.0,13.12,-60.06,-16.12,0.9,0.22,0.07,0.36
37107,00:03:22.684,IMU6,2.11,-9.58,0.5,0.0,0.0,0.0,-1.38,43.69,-0.06,-0.44,-0.53,0.44,0.57
37107,00:03:22.684,IMU7,-1.19,2.91,9.04,-0.01,0.0,-0.0,22.69,-19.12,-42.06,0.05,0.16,0.76,0.62
37108,00:03:22.691,IMU5,-0.27,6.82,-7.21,0.0,0.0,0.0,15.25,-59.62,-17.12,0.9,0.22,0.07,0.36
37108,00:03:22.691,IMU6,2.11,-9.58,0.5,0.0,0.0,0.0,-1.38,43.69,-0.06,-0.44,-0.53,0.44,0.57
37108,00:03:22.691,IMU7,-1.19,2.87,9.16,-0.01,0.0,-0.0,22.69,-19.12,-42.06,0.05,0.16,0.76,0.62
37109,00:03:22.694,IMU5,-0.27,6.82,-7.21,0.0,0.0,0.0,15.25,-59.62,-17.12,0.9,0.22,0.07,0.36
37109,00:03:22.694,IMU6,2.07,-9.5,0.42,0.0,0.0,0.0,-1.38,43.69,-0.06,-0.44,-0.53,0.44,0.57
37109,00:03:22.694,IMU7,-1.19,2.87,9.16,0.0,0.01,-0.0,22.69,-19.12,-42.06,0.05,0.16,0.76,0.62
37110,00:03:22.701,IMU5,-0.27,6.82,-7.21,0.0,0.0,0.0,15.25,-59.62,-17.12,0.9,0.22,0.07,0.36
37110,00:03:22.701,IMU6,2.07,-9.5,0.42,0.0,0.0,0.0,0.06,42.31,-1.06,-0.44,-0.53,0.44,0.57
37110,00:03:22.701,IMU7,-1.19,2.87,9.16,0.0,0.01,-0.0,23.19,-16.38,-40.25,0.05,0.16,0.76,0.62
37111,00:03:22.706,IMU5,-0.27,6.82,-7.21,0.0,0.0,0.0,15.25,-59.62,-17.12,0.9,0.22,0.07,0.36
37111,00:03:22.706,IMU6,2.07,-9.5,0.42,0.0,0.0,0.0,0.06,42.31,-1.06,-0.44,-0.53,0.44,0.57
37111,00:03:22.706,IMU7,-1.19,2.87,9.16,0.0,0.01,-0.0,23.19,-16.38,-40.25,0.05,0.16,0.76,0.62
37112,00:03:22.713,IMU5,-0.27,6.82,-7.21,0.0,0.0,0.0,15.25,-59.62,-17.12,0.9,0.22,0.07,0.36
37112,00:03:22.713,IMU6,2.07,-9.5,0.42,0.0,0.0,0.0,0.06,42.31,-1.06,-0.44,-0.53,0.44,0.57
37112,00:03:22.713,IMU7,-1.19,2.87,9.16,-0.0,0.0,-0.01,23.19,-16.38,-40.25,0.05,0.16,0.76,0.62
37113,00:03:22.717,IMU5,-0.27,6.82,-7.21,0.0,0.0,0.0,15.25,-59.62,-17.12,0.9,0.22,0.07,0.36
37113,00:03:22.717,IMU6,2.07,-9.5,0.42,0.0,0.0,0.0,0.06,42.31,-1.06,-0.44,-0.53,0.44,0.57
37113,00:03:22.717,IMU7,-1.19,2.87,9.16,-0.0,0.0,-0.01,23.19,-16.38,-40.25,0.05,0.16,0.76,0.62
37114,00:03:22.724,IMU5,-0.27,6.82,-7.21,0.0,0.0,0.0,15.25,-59.62,-17.12,0.9,0.22,0.07,0.36
37114,00:03:22.724,IMU6,2.07,-9.5,0.42,0.0,0.0,0.0,0.06,42.31,-1.06,-0.44,-0.53,0.44,0.57
37114,00:03:22.724,IMU7,-1.19,2.87,9.16,0.0,0.0,-0.01,23.19,-16.38,-40.25,0.05,0.16,0.76,0.62
37115,00:03:22.734,IMU5,-0.27,6.82,-7.21,0.0,0.0,0.0,15.25,-59.62,-17.12,0.9,0.22,0.07,0.36
37115,00:03:22.734,IMU6,2.07,-9.5,0.42,0.0,0.0,0.0,0.06,42.31,-1.06,-0.44,-0.53,0.44,0.57
37115,00:03:22.734,IMU7,-1.19,2.87,9.16,0.0,0.0,-0.01,23.19,-16.38,-40.25,0.05,0.16,0.76,0.62
37116,00:03:22.741,IMU5,-0.27,6.82,-7.21,0.0,0.0,0.0,15.25,-59.62,-17.12,0.9,0.22,0.07,0.36
37116,00:03:22.741,IMU6,2.07,-9.5,0.42,0.0,0.0,0.0,0.06,42.31,-1.06,-0.44,-0.53,0.44,0.57
37116,00:03:22.741,IMU7,-1.19,2.87,9.16,-0.0,-0.01,0.0,23.19,-16.38,-40.25,0.05,0.16,0.76,0.62
37117,00:03:22.744,IMU5,-0.27,6.82,-7.21,0.0,0.0,0.0,15.25,-59.62,-17.12,0.9,0.22,0.07,0.36
37117,00:03:22.744,IMU6,2.07,-9.5,0.42,0.0,0.0,0.0,0.06,42.31,-1.06,-0.44,-0.53,0.44,0.57
37117,00:03:22.744,IMU7,-1.19,2.87,9.16,-0.0,-0.01,0.0,23.19,-16.38,-40.25,0.05,0.16,0.76,0.62
37118,00:03:22.751,IMU5,-0.27,6.82,-7.21,0.0,0.0,0.0,15.25,-59.62,-17.12,0.9,0.22,0.07,0.36
37118,00:03:22.751,IMU6,2.07,-9.5,0.42,0.0,0.0,0.0,0.06,42.31,-1.06,-0.44,-0.53,0.44,0.57
37118,00:03:22.751,IMU7,-1.15,2.91,9.12,-0.0,-0.01,0.0,23.19,-16.38,-40.25,0.05,0.16,0.76,0.62
37119,00:03:22.759,IMU5,-0.27,6.82,-7.21,0.0,0.0,0.0,15.25,-59.62,-17.12,0.9,0.22,0.07,0.36
37119,00:03:22.759,IMU6,2.11,-9.58,0.38,0.0,0.0,0.0,0.06,42.31,-1.06,-0.44,-0.53,0.44,0.57
37119,00:03:22.759,IMU7,-1.15,2.91,9.12,-0.0,-0.01,0.0,23.56,-16.81,-40.25,0.05,0.16,0.76,0.62
37120,00:03:22.769,IMU5,-0.3,6.89,-7.23,0.0,0.0,0.0,15.25,-59.62,-17.12,0.9,0.22,0.07,0.36
37120,00:03:22.769,IMU6,2.11,-9.58,0.38,0.0,0.0,0.0,0.06,42.31,-1.06,-0.44,-0.53,0.44,0.57
37120,00:03:22.769,IMU7,-1.15,2.91,9.12,0.0,0.0,0.0,23.56,-16.81,-40.25,0.05,0.16,0.76,0.62
37121,00:03:22.772,IMU5,-0.3,6.89,-7.23,0.0,0.0,0.0,14.81,-60.44,-16.0,0.9,0.22,0.07,0.36
37121,00:03:22.772,IMU6,2.11,-9.58,0.38,0.0,0.0,0.0,-0.06,41.81,-2.19,-0.44,-0.53,0.44,0.57
37121,00:03:22.772,IMU7,-1.15,2.91,9.12,0.0,0.0,0.0,23.56,-16.81,-40.25,0.05,0.16,0.76,0.62
37122,00:03:22.781,IMU5,-0.3,6.89,-7.23,0.0,0.0,0.0,14.81,-60.44,-16.0,0.9,0.22,0.07,0.36
37122,00:03:22.781,IMU6,2.11,-9.58,0.38,0.0,0.0,0.0,-0.06,41.81,-2.19,-0.44,-0.53,0.44,0.57
37122,00:03:22.781,IMU7,-1.15,2.91,9.12,0.0,-0.0,0.0,23.56,-16.81,-40.25,0.05,0.16,0.76,0.62
37123,00:03:22.787,IMU5,-0.3,6.89,-7.23,0.0,0.0,0.0,14.81,-60.44,-16.0,0.9,0.22,0.07,0.36
37123,00:03:22.787,IMU6,2.11,-9.58,0.38,0.0,0.0,0.0,-0.06,41.81,-2.19,-0.44,-0.53,0.44,0.57
37123,00:03:22.787,IMU7,-1.15,2.91,9.12,0.0,-0.0,0.0,23.56,-16.81,-40.25,0.05,0.16,0.76,0.62
37124,00:03:22.794,IMU5,-0.3,6.89,-7.23,0.0,0.0,0.0,14.81,-60.44,-16.0,0.9,0.22,0.07,0.36
37124,00:03:22.794,IMU6,2.11,-9.58,0.38,0.0,0.0,0.0,-0.06,41.81,-2.19,-0.44,-0.53,0.44,0.57
37124,00:03:22.794,IMU7,-1.15,2.91,9.12,0.0,0.0,0.0,23.56,-16.81,-40.25,0.05,0.16,0.76,0.62
37125,00:03:22.797,IMU5,-0.3,6.89,-7.23,0.0,0.0,0.0,14.81,-60.44,-16.0,0.9,0.22,0.07,0.36
37125,00:03:22.797,IMU6,2.11,-9.58,0.38,0.0,0.0,0.0,-0.06,41.81,-2.19,-0.44,-0.53,0.44,0.57
37125,00:03:22.797,IMU7,-1.15,2.91,9.12,0.0,0.0,0.0,23.56,-16.81,-40.25,0.05,0.16,0.76,0.62
37126,00:03:22.804,IMU5,-0.3,6.89,-7.23,0.0,0.0,0.0,14.81,-60.44,-16.0,0.9,0.22,0.07,0.36
37126,00:03:22.804,IMU6,2.11,-9.58,0.38,0.0,0.0,0.0,-0.06,41.81,-2.19,-0.44,-0.53,0.44,0.57
37126,00:03:22.804,IMU7,-1.15,2.91,9.12,0.01,0.0,0.0,23.56,-16.81,-40.25,0.05,0.16,0.76,0.62
37127,00:03:22.814,IMU5,-0.3,6.89,-7.23,0.0,0.0,0.0,14.81,-60.44,-16.0,0.9,0.22,0.07,0.36
37127,00:03:22.814,IMU6,2.11,-9.58,0.38,0.0,0.0,0.0,-0.06,41.81,-2.19,-0.44,-0.53,0.44,0.57
37127,00:03:22.814,IMU7,-1.15,2.91,9.12,0.01,0.0,0.0,23.56,-16.81,-40.25,0.05,0.16,0.76,0.62
37128,00:03:22.824,IMU5,-0.3,6.89,-7.23,0.0,0.0,0.0,14.81,-60.44,-16.0,0.9,0.22,0.07,0.36
37128,00:03:22.824,IMU6,2.11,-9.58,0.38,0.0,0.0,0.0,-0.06,41.81,-2.19,-0.44,-0.53,0.44,0.57
37128,00:03:22.824,IMU7,-1.15,2.91,9.12,0.0,0.0,0.0,23.56,-16.81,-40.25,0.05,0.16,0.76,0.62
37129,00:03:22.827,IMU5,-0.3,6.89,-7.23,0.0,0.0,0.0,14.81,-60.44,-16.0,0.9,0.22,0.07,0.36
37129,00:03:22.827,IMU6,2.11,-9.58,0.38,0.0,0.0,0.0,-0.06,41.81,-2.19,-0.44,-0.53,0.44,0.57
37129,00:03:22.827,IMU7,-1.15,2.91,9.12,0.0,0.0,0.0,23.56,-16.81,-40.25,0.05,0.16,0.76,0.62
37130,00:03:22.834,IMU5,-0.3,6.89,-7.23,0.0,0.0,0.0,14.81,-60.44,-16.0,0.9,0.22,0.07,0.36
37130,00:03:22.834,IMU6,2.11,-9.58,0.38,0.0,0.0,0.0,-0.06,41.81,-2.19,-0.44,-0.53,0.44,0.57
37130,00:03:22.834,IMU7,-1.15,2.91,9.12,0.01,-0.01,0.0,23.56,-16.81,-40.25,0.05,0.16,0.76,0.62
37131,00:03:22.841,IMU5,-0.3,6.89,-7.23,0.0,0.0,0.0,14.81,-60.44,-16.0,0.9,0.22,0.07,0.36
37131,00:03:22.841,IMU6,2.11,-9.58,0.38,0.0,0.0,0.0,-0.06,41.81,-2.19,-0.44,-0.53,0.44,0.57
37131,00:03:22.841,IMU7,-1.15,2.91,9.12,0.01,-0.01,0.0,23.56,-16.81,-40.25,0.05,0.16,0.76,0.62
37132,00:03:22.849,IMU5,-0.3,6.89,-7.23,0.0,0.0,0.0,14.81,-60.44,-16.0,0.9,0.22,0.07,0.36
37132,00:03:22.849,IMU6,2.11,-9.58,0.38,0.0,0.0,0.0,-0.06,41.81,-2.19,-0.44,-0.53,0.44,0.57
37132,00:03:22.849,IMU7,-1.15,2.87,9.04,0.01,-0.01,0.0,23.56,-16.81,-40.25,0.05,0.16,0.76,0.62
37133,00:03:22.852,IMU5,-0.3,6.89,-7.23,0.0,0.0,0.0,14.81,-60.44,-16.0,0.9,0.22,0.07,0.36
37133,00:03:22.852,IMU6,2.11,-9.61,0.46,0.0,0.0,0.0,-0.06,41.81,-2.19,-0.44,-0.53,0.44,0.57
37133,00:03:22.852,IMU7,-1.15,2.87,9.04,0.01,-0.0,0.01,23.56,-16.81,-40.25,0.05,0.16,0.76,0.62
37134,00:03:22.858,IMU5,-0.23,6.78,-7.23,0.0,0.0,0.0,14.81,-60.44,-16.0,0.9,0.22,0.07,0.36
37134,00:03:22.858,IMU6,2.11,-9.61,0.46,0.0,0.0,0.0,-0.06,42.38,-2.06,-0.44,-0.53,0.44,0.57
37134,00:03:22.858,IMU7,-1.15,2.87,9.04,0.01,-0.0,0.01,23.56,-16.81,-40.75,0.05,0.16,0.76,0.62
37135,00:03:22.866,IMU5,-0.23,6.78,-7.23,0.0,0.0,0.0,14.81,-60.44,-16.0,0.9,0.22,0.07,0.36
37135,00:03:22.866,IMU6,2.11,-9.61,0.46,0.0,0.0,0.0,-0.06,42.38,-2.06,-0.44,-0.53,0.44,0.57
37135,00:03:22.866,IMU7,-1.15,2.87,9.04,0.01,-0.0,0.01,23.56,-16.81,-40.75,0.05,0.16,0.76,0.62
37136,00:03:22.875,IMU5,-0.23,6.78,-7.23,0.0,0.0,0.0,13.69,-61.19,-18.12,0.9,0.22,0.07,0.36
37136,00:03:22.875,IMU6,2.11,-9.61,0.46,0.0,0.0,0.0,-0.06,42.38,-2.06,-0.44,-0.53,0.44,0.57
37136,00:03:22.875,IMU7,-1.15,2.87,9.04,0.0,0.0,0.0,23.56,-16.81,-40.75,0.05,0.16,0.76,0.62
37137,00:03:22.878,IMU5,-0.23,6.78,-7.23,0.0,0.0,0.0,13.69,-61.19,-18.12,0.9,0.22,0.07,0.36
37137,00:03:22.878,IMU6,2.11,-9.58,0.42,0.0,0.0,0.0,-0.06,42.38,-2.06,-0.44,-0.53,0.44,0.57
37137,00:03:22.878,IMU7,-1.15,2.87,9.04,0.0,0.0,0.0,23.56,-16.81,-40.75,0.05,0.16,0.76,0.62
37138,00:03:22.885,IMU5,-0.23,6.78,-7.23,0.0,0.0,0.0,13.69,-61.19,-18.12,0.9,0.22,0.07,0.36
37138,00:03:22.885,IMU6,2.11,-9.58,0.42,0.0,0.0,0.0,-0.06,42.38,-2.06,-0.44,-0.53,0.44,0.57
37138,00:03:22.885,IMU7,-1.15,2.87,9.04,-0.0,0.0,-0.0,23.56,-16.81,-40.75,0.05,0.16,0.76,0.62
37139,00:03:22.888,IMU5,-0.23,6.78,-7.23,0.0,0.0,0.0,13.69,-61.19,-18.12,0.9,0.22,0.07,0.36
37139,00:03:22.888,IMU6,2.11,-9.58,0.42,0.0,0.0,0.0,-0.5,41.81,-2.06,-0.44,-0.53,0.44,0.57
37139,00:03:22.888,IMU7,-1.15,2.87,9.04,-0.0,0.0,-0.0,23.56,-16.81,-40.75,0.05,0.16,0.76,0.62
37140,00:03:22.894,IMU5,-0.27,6.89,-7.28,0.0,0.0,0.0,13.69,-61.19,-18.12,0.9,0.22,0.07,0.36
37140,00:03:22.894,IMU6,2.11,-9.58,0.42,0.0,0.0,0.0,-0.5,41.81,-2.06,-0.44,-0.53,0.44,0.57
37140,00:03:22.894,IMU7,-1.15,2.87,9.04,-0.0,0.0,0.0,23.56,-16.81,-40.75,0.05,0.16,0.76,0.62
37141,00:03:22.901,IMU5,-0.27,6.89,-7.28,0.0,0.0,0.0,13.88,-60.81,-16.38,0.9,0.22,0.07,0.36
37141,00:03:22.901,IMU6,2.11,-9.58,0.42,0.0,0.0,0.0,-0.5,41.81,-2.06,-0.44,-0.53,0.44,0.57
37141,00:03:22.901,IMU7,-1.15,2.87,9.04,-0.0,0.0,0.0,23.56,-16.81,-40.75,0.05,0.16,0.76,0.62
37142,00:03:22.907,IMU5,-0.27,6.89,-7.28,0.0,0.0,0.0,13.88,-60.81,-16.38,0.9,0.22,0.07,0.36
37142,00:03:22.907,IMU6,2.11,-9.58,0.42,0.0,0.0,0.0,-0.5,41.81,-2.06,-0.44,-0.53,0.44,0.57
37142,00:03:22.907,IMU7,-1.15,2.87,9.04,0.0,-0.0,-0.0,23.56,-16.81,-40.75,0.05,0.16,0.76,0.62
37143,00:03:22.910,IMU5,-0.27,6.89,-7.28,0.0,0.0,0.0,13.88,-60.81,-16.38,0.9,0.22,0.07,0.36
37143,00:03:22.910,IMU6,2.11,-9.58,0.42,0.0,0.0,0.0,-0.5,41.81,-2.06,-0.44,-0.53,0.44,0.57
37143,00:03:22.910,IMU7,-1.15,2.87,9.04,0.0,-0.0,-0.0,23.56,-16.81,-40.75,0.05,0.16,0.76,0.62
37144,00:03:22.918,IMU5,-0.27,6.89,-7.28,0.0,0.0,0.0,13.88,-60.81,-16.38,0.9,0.22,0.07,0.36
37144,00:03:22.918,IMU6,2.11,-9.58,0.42,0.0,0.0,0.0,-0.5,41.81,-2.06,-0.44,-0.53,0.44,0.57
37144,00:03:22.918,IMU7,-1.15,2.87,9.12,0.0,-0.0,-0.0,23.56,-16.81,-40.75,0.05,0.16,0.76,0.62
37145,00:03:22.924,IMU5,-0.27,6.89,-7.28,0.0,0.0,0.0,13.88,-60.81,-16.38,0.9,0.22,0.07,0.36
37145,00:03:22.924,IMU6,2.11,-9.58,0.42,0.0,0.0,0.0,-0.5,41.81,-2.06,-0.44,-0.53,0.44,0.57
37145,00:03:22.924,IMU7,-1.15,2.87,9.12,0.01,0.0,-0.0,23.56,-16.81,-40.75,0.05,0.16,0.76,0.62
37146,00:03:22.927,IMU5,-0.27,6.89,-7.28,0.0,0.0,0.0,13.88,-60.81,-16.38,0.9,0.22,0.07,0.36
37146,00:03:22.927,IMU6,2.11,-9.58,0.42,0.0,0.0,0.0,-0.5,41.81,-2.06,-0.44,-0.53,0.44,0.57
37146,00:03:22.927,IMU7,-1.15,2.87,9.12,0.01,0.0,-0.0,22.88,-16.44,-41.88,0.05,0.16,0.76,0.62
37147,00:03:22.933,IMU5,-0.27,6.89,-7.28,0.0,0.0,0.0,13.88,-60.81,-16.38,0.9,0.22,0.07,0.36
37147,00:03:22.933,IMU6,2.11,-9.61,0.5,0.0,0.0,0.0,-0.5,41.81,-2.06,-0.44,-0.53,0.44,0.57
37147,00:03:22.933,IMU7,-1.15,2.87,9.12,0.01,0.0,-0.0,22.88,-16.44,-41.88,0.05,0.16,0.76,0.62
37148,00:03:22.939,IMU5,-0.27,6.89,-7.28,0.0,0.0,0.0,13.88,-60.81,-16.38,0.9,0.22,0.07,0.36
37148,00:03:22.939,IMU6,2.11,-9.61,0.5,0.0,0.0,0.0,-0.62,41.5,-1.75,-0.44,-0.53,0.44,0.57
37148,00:03:22.939,IMU7,-1.15,2.87,9.12,0.0,0.0,-0.0,22.88,-16.44,-41.88,0.05,0.16,0.76,0.62
37149,00:03:22.942,IMU5,-0.27,6.89,-7.28,0.0,0.0,0.0,13.88,-60.81,-16.38,0.9,0.22,0.07,0.36
37149,00:03:22.942,IMU6,2.11,-9.61,0.5,0.0,0.0,0.0,-0.62,41.5,-1.75,-0.44,-0.53,0.44,0.57
37149,00:03:22.942,IMU7,-1.15,2.87,9.12,0.0,0.0,-0.0,22.88,-16.44,-41.88,0.05,0.16,0.76,0.62
37150,00:03:22.950,IMU5,-0.27,6.89,-7.28,0.0,0.0,0.0,13.88,-60.81,-16.38,0.9,0.22,0.07,0.36
37150,00:03:22.950,IMU6,2.11,-9.61,0.5,0.0,0.0,0.0,-0.62,41.5,-1.75,-0.44,-0.53,0.44,0.57
37150,00:03:22.950,IMU7,-1.19,2.87,9.16,0.0,0.0,-0.0,22.88,-16.44,-41.88,0.05,0.16,0.76,0.62
37151,00:03:22.959,IMU5,-0.27,6.89,-7.28,0.0,0.0,0.0,13.88,-60.81,-16.38,0.9,0.22,0.07,0.36
37151,00:03:22.959,IMU6,2.11,-9.61,0.5,0.0,0.0,0.0,-0.62,41.5,-1.75,-0.44,-0.53,0.44,0.57
37151,00:03:22.959,IMU7,-1.19,2.87,9.16,0.0,0.0,-0.0,22.62,-18.25,-41.19,0.05,0.16,0.76,0.62
37152,00:03:22.967,IMU5,-0.27,6.89,-7.28,0.0,0.0,0.0,13.88,-60.81,-16.38,0.9,0.22,0.07,0.36
37152,00:03:22.967,IMU6,2.11,-9.61,0.5,0.0,0.0,0.0,-0.62,41.5,-1.75,-0.44,-0.53,0.44,0.57
37152,00:03:22.967,IMU7,-1.19,2.87,9.16,0.0,-0.0,0.0,22.62,-18.25,-41.19,0.05,0.16,0.76,0.62
37153,00:03:22.970,IMU5,-0.27,6.89,-7.28,0.0,0.0,0.0,13.88,-60.81,-16.38,0.9,0.22,0.07,0.36
37153,00:03:22.970,IMU6,2.07,-9.61,0.38,0.0,0.0,0.0,-0.62,41.5,-1.75,-0.44,-0.53,0.44,0.57
37153,00:03:22.970,IMU7,-1.19,2.87,9.16,0.0,-0.0,0.0,22.62,-18.25,-41.19,0.05,0.16,0.76,0.62
37154,00:03:22.979,IMU5,-0.27,6.82,-7.23,0.0,0.0,0.0,13.88,-60.81,-16.38,0.9,0.22,0.07,0.36
37154,00:03:22.979,IMU6,2.07,-9.61,0.38,0.0,0.0,0.0,-0.62,41.5,-1.75,-0.44,-0.53,0.44,0.57
37154,00:03:22.979,IMU7,-1.15,2.91,9.12,0.0,-0.0,0.0,22.62,-18.25,-41.19,0.05,0.16,0.76,0.62
37155,00:03:22.988,IMU5,-0.27,6.82,-7.23,0.0,0.0,0.0,13.88,-60.81,-16.38,0.9,0.22,0.07,0.36
37155,00:03:22.988,IMU6,2.07,-9.61,0.38,0.0,0.0,0.0,-0.62,41.5,-1.75,-0.44,-0.53,0.44,0.57
37155,00:03:22.988,IMU7,-1.15,2.91,9.12,0.0,-0.0,0.0,23.19,-16.75,-39.88,0.05,0.16,0.76,0.62
37156,00:03:22.995,IMU5,-0.27,6.82,-7.23,0.0,0.0,0.0,13.81,-59.06,-16.31,0.9,0.22,0.07,0.36
37156,00:03:22.995,IMU6,2.07,-9.61,0.38,0.0,0.0,0.0,-0.62,41.5,-1.75,-0.44,-0.53,0.44,0.57
37156,00:03:22.995,IMU7,-1.15,2.91,9.12,-0.0,0.0,-0.0,23.19,-16.75,-39.88,0.05,0.16,0.76,0.62
37157,00:03:22.998,IMU5,-0.27,6.82,-7.23,0.0,0.0,0.0,13.81,-59.06,-16.31,0.9,0.22,0.07,0.36
37157,00:03:22.998,IMU6,1.99,-9.65,0.46,0.0,0.0,0.0,-0.62,41.5,-1.75,-0.44,-0.53,0.44,0.57
37157,00:03:22.998,IMU7,-1.15,2.91,9.12,-0.0,0.0,-0.0,23.19,-16.75,-39.88,0.05,0.16,0.76,0.62
37158,00:03:23.005,IMU5,-0.27,6.82,-7.23,0.0,0.0,0.0,13.81,-59.06,-16.31,0.9,0.22,0.07,0.36
37158,00:03:23.005,IMU6,1.99,-9.65,0.46,0.0,0.0,0.0,-0.62,41.88,-1.69,-0.44,-0.53,0.44,0.57
37158,00:03:23.005,IMU7,-1.15,2.91,9.12,0.0,0.0,0.0,23.19,-16.75,-39.88,0.05,0.16,0.76,0.62
37159,00:03:23.011,IMU5,-0.27,6.82,-7.23,0.0,0.0,0.0,13.81,-59.06,-16.31,0.9,0.22,0.07,0.36
37159,00:03:23.011,IMU6,1.99,-9.65,0.46,0.0,0.0,0.0,-0.62,41.88,-1.69,-0.44,-0.53,0.44,0.57
37159,00:03:23.011,IMU7,-1.15,2.91,9.12,0.0,0.0,0.0,23.19,-16.75,-39.88,0.05,0.16,0.76,0.62
37160,00:03:23.018,IMU5,-0.27,6.82,-7.23,0.0,0.0,0.0,13.81,-59.06,-16.31,0.9,0.22,0.07,0.36
37160,00:03:23.018,IMU6,1.99,-9.65,0.46,0.0,0.0,0.0,-0.62,41.88,-1.69,-0.44,-0.53,0.44,0.57
37160,00:03:23.018,IMU7,-1.15,2.91,9.12,-0.0,0.0,-0.0,23.19,-16.75,-39.88,0.05,0.16,0.76,0.62
37161,00:03:23.021,IMU5,-0.27,6.82,-7.23,0.0,0.0,0.0,13.81,-59.06,-16.31,0.9,0.22,0.07,0.36
37161,00:03:23.021,IMU6,1.99,-9.65,0.46,0.0,0.0,0.0,-0.62,41.88,-1.69,-0.44,-0.53,0.44,0.57
37161,00:03:23.021,IMU7,-1.15,2.91,9.12,-0.0,0.0,-0.0,23.19,-16.75,-39.88,0.05,0.16,0.76,0.62
37162,00:03:23.028,IMU5,-0.27,6.82,-7.23,0.0,0.0,0.0,13.81,-59.06,-16.31,0.9,0.22,0.07,0.36
37162,00:03:23.028,IMU6,1.99,-9.65,0.46,0.0,0.0,0.0,-0.62,41.88,-1.69,-0.44,-0.53,0.44,0.57
37162,00:03:23.028,IMU7,-1.15,2.91,9.12,0.0,-0.0,0.0,23.19,-16.75,-39.88,0.05,0.16,0.76,0.62
37163,00:03:23.035,IMU5,-0.27,6.82,-7.23,0.0,0.0,0.0,13.81,-59.06,-16.31,0.9,0.22,0.07,0.36
37163,00:03:23.035,IMU6,1.99,-9.65,0.46,0.0,0.0,0.0,-0.62,41.88,-1.69,-0.44,-0.53,0.44,0.57
37163,00:03:23.035,IMU7,-1.15,2.91,9.12,0.0,-0.0,0.0,23.19,-16.75,-39.88,0.05,0.16,0.76,0.62
37164,00:03:23.042,IMU5,-0.3,6.86,-7.24,0.0,0.0,0.0,13.81,-59.06,-16.31,0.9,0.22,0.07,0.36
37164,00:03:23.042,IMU6,1.99,-9.65,0.46,0.0,0.0,0.0,-0.62,41.88,-1.69,-0.44,-0.53,0.44,0.57
37164,00:03:23.042,IMU7,-1.15,2.91,9.12,-0.0,-0.0,0.0,23.19,-16.75,-39.88,0.05,0.16,0.76,0.62
37165,00:03:23.045,IMU5,-0.3,6.86,-7.24,0.0,0.0,0.0,14.69,-60.81,-17.69,0.9,0.22,0.07,0.36
37165,00:03:23.045,IMU6,2.11,-9.61,0.42,0.0,0.0,0.0,-0.62,41.88,-1.69,-0.44,-0.53,0.44,0.57
37165,00:03:23.045,IMU7,-1.15,2.91,9.12,-0.0,-0.0,0.0,23.19,-16.75,-39.88,0.05,0.16,0.76,0.62
37166,00:03:23.051,IMU5,-0.3,6.86,-7.24,0.0,0.0,0.0,14.69,-60.81,-17.69,0.9,0.22,0.07,0.36
37166,00:03:23.051,IMU6,2.11,-9.61,0.42,0.0,0.0,0.0,0.5,42.56,-1.44,-0.44,-0.53,0.44,0.57
37166,00:03:23.051,IMU7,-1.19,2.91,9.12,-0.0,-0.0,0.0,23.19,-16.75,-39.88,0.05,0.16,0.76,0.62
37167,00:03:23.057,IMU5,-0.3,6.86,-7.24,0.0,0.0,0.0,14.69,-60.81,-17.69,0.9,0.22,0.07,0.36
37167,00:03:23.057,IMU6,2.11,-9.61,0.42,0.0,0.0,0.0,0.5,42.56,-1.44,-0.44,-0.53,0.44,0.57
37167,00:03:23.057,IMU7,-1.19,2.91,9.12,-0.0,-0.0,0.0,23.56,-16.44,-41.44,0.05,0.16,0.76,0.62
37168,00:03:23.063,IMU5,-0.3,6.86,-7.24,0.0,0.0,0.0,14.69,-60.81,-17.69,0.9,0.22,0.07,0.36
37168,00:03:23.063,IMU6,2.11,-9.61,0.42,0.0,0.0,0.0,0.5,42.56,-1.44,-0.44,-0.53,0.44,0.57
37168,00:03:23.063,IMU7,-1.19,2.91,9.12,-0.0,0.0,0.01,23.56,-16.44,-41.44,0.05,0.16,0.76,0.62
37169,00:03:23.067,IMU5,-0.3,6.86,-7.24,0.0,0.0,0.0,14.69,-60.81,-17.69,0.9,0.22,0.07,0.36
37169,00:03:23.067,IMU6,2.11,-9.61,0.42,0.0,0.0,0.0,0.5,42.56,-1.44,-0.44,-0.53,0.44,0.57
37169,00:03:23.067,IMU7,-1.19,2.91,9.12,-0.0,0.0,0.01,23.56,-16.44,-41.44,0.05,0.16,0.76,0.62
37170,00:03:23.072,IMU5,-0.3,6.86,-7.24,0.0,0.0,0.0,14.69,-60.81,-17.69,0.9,0.22,0.07,0.36
37170,00:03:23.072,IMU6,2.11,-9.61,0.42,0.0,0.0,0.0,0.5,42.56,-1.44,-0.44,-0.53,0.44,0.57
37170,00:03:23.072,IMU7,-1.19,2.91,9.12,0.0,-0.0,0.0,23.56,-16.44,-41.44,0.05,0.16,0.76,0.62
37171,00:03:23.077,IMU5,-0.3,6.86,-7.24,0.0,0.0,0.0,14.69,-60.81,-17.69,0.9,0.22,0.07,0.36
37171,00:03:23.077,IMU6,2.11,-9.61,0.42,0.0,0.0,0.0,0.5,42.56,-1.44,-0.44,-0.53,0.44,0.57
37171,00:03:23.077,IMU7,-1.19,2.91,9.12,0.0,-0.0,0.0,23.56,-16.44,-41.44,0.05,0.16,0.76,0.62
37172,00:03:23.081,IMU5,-0.3,6.86,-7.24,0.0,0.0,0.0,14.69,-60.81,-17.69,0.9,0.22,0.07,0.36
37172,00:03:23.081,IMU6,2.11,-9.61,0.42,0.0,0.0,0.0,0.5,42.56,-1.44,-0.44,-0.53,0.44,0.57
37172,00:03:23.081,IMU7,-1.19,2.91,9.12,0.0,-0.0,0.0,23.56,-16.44,-41.44,0.05,0.16,0.76,0.62
37173,00:03:23.087,IMU5,-0.3,6.86,-7.24,0.0,0.0,0.0,14.69,-60.81,-17.69,0.9,0.22,0.07,0.36
37173,00:03:23.087,IMU6,2.11,-9.61,0.42,0.0,0.0,0.0,0.5,42.56,-1.44,-0.44,-0.53,0.44,0.57
37173,00:03:23.087,IMU7,-1.19,2.91,9.12,0.0,-0.0,0.0,23.56,-16.44,-41.44,0.05,0.16,0.76,0.62
37174,00:03:23.093,IMU5,-0.3,6.82,-7.24,0.0,0.0,0.0,14.69,-60.81,-17.69,0.9,0.22,0.07,0.36
37174,00:03:23.093,IMU6,2.11,-9.61,0.42,0.0,0.0,0.0,0.5,42.56,-1.44,-0.44,-0.53,0.44,0.57
37174,00:03:23.093,IMU7,-1.19,2.91,9.12,-0.0,0.0,-0.01,23.56,-16.44,-41.44,0.05,0.16,0.76,0.62
37175,00:03:23.096,IMU5,-0.3,6.82,-7.24,0.0,0.0,0.0,15.38,-61.56,-18.0,0.9,0.22,0.07,0.36
37175,00:03:23.096,IMU6,2.11,-9.65,0.46,0.0,0.0,0.0,0.5,42.56,-1.44,-0.44,-0.53,0.44,0.57
37175,00:03:23.096,IMU7,-1.19,2.91,9.12,-0.0,0.0,-0.01,23.56,-16.44,-41.44,0.05,0.16,0.76,0.62
37176,00:03:23.102,IMU5,-0.3,6.82,-7.24,0.0,0.0,0.0,15.38,-61.56,-18.0,0.9,0.22,0.07,0.36
37176,00:03:23.102,IMU6,2.11,-9.65,0.46,0.0,0.0,0.0,-1.25,41.69,-0.88,-0.44,-0.53,0.44,0.57
37176,00:03:23.102,IMU7,-1.19,2.99,9.16,-0.0,0.0,-0.01,23.56,-16.44,-41.44,0.05,0.16,0.76,0.62
37177,00:03:23.107,IMU5,-0.3,6.82,-7.24,0.0,0.0,0.0,15.38,-61.56,-18.0,0.9,0.22,0.07,0.36
37177,00:03:23.107,IMU6,2.11,-9.65,0.46,0.0,0.0,0.0,-1.25,41.69,-0.88,-0.44,-0.53,0.44,0.57
37177,00:03:23.107,IMU7,-1.19,2.99,9.16,-0.0,0.0,-0.01,23.88,-16.06,-41.06,0.05,0.16,0.76,0.62
37178,00:03:23.113,IMU5,-0.3,6.82,-7.24,0.0,0.0,0.0,15.38,-61.56,-18.0,0.9,0.22,0.07,0.36
37178,00:03:23.113,IMU6,2.11,-9.65,0.46,0.0,0.0,0.0,-1.25,41.69,-0.88,-0.44,-0.53,0.44,0.57
37178,00:03:23.113,IMU7,-1.19,2.99,9.16,0.0,0.0,0.0,23.88,-16.06,-41.06,0.05,0.16,0.76,0.62
37179,00:03:23.116,IMU5,-0.3,6.82,-7.24,0.0,0.0,0.0,15.38,-61.56,-18.0,0.9,0.22,0.07,0.36
37179,00:03:23.116,IMU6,2.11,-9.65,0.46,0.0,0.0,0.0,-1.25,41.69,-0.88,-0.44,-0.53,0.44,0.57
37179,00:03:23.116,IMU7,-1.19,2.99,9.16,0.0,0.0,0.0,23.88,-16.06,-41.06,0.05,0.16,0.76,0.62
37180,00:03:23.121,IMU5,-0.3,6.82,-7.24,0.0,0.0,0.0,15.38,-61.56,-18.0,0.9,0.22,0.07,0.36
37180,00:03:23.121,IMU6,2.11,-9.65,0.46,0.0,0.0,0.0,-1.25,41.69,-0.88,-0.44,-0.53,0.44,0.57
37180,00:03:23.121,IMU7,-1.19,2.99,9.16,0.0,-0.0,0.0,23.88,-16.06,-41.06,0.05,0.16,0.76,0.62
37181,00:03:23.127,IMU5,-0.3,6.82,-7.24,0.0,0.0,0.0,15.38,-61.56,-18.0,0.9,0.22,0.07,0.36
37181,00:03:23.127,IMU6,2.11,-9.65,0.46,0.0,0.0,0.0,-1.25,41.69,-0.88,-0.44,-0.53,0.44,0.57
37181,00:03:23.127,IMU7,-1.19,2.99,9.16,0.0,-0.0,0.0,23.88,-16.06,-41.06,0.05,0.16,0.76,0.62
37182,00:03:23.133,IMU5,-0.3,6.82,-7.24,0.0,0.0,0.0,15.38,-61.56,-18.0,0.9,0.22,0.07,0.36
37182,00:03:23.133,IMU6,2.11,-9.65,0.46,0.0,0.0,0.0,-1.25,41.69,-0.88,-0.44,-0.53,0.44,0.57
37182,00:03:23.133,IMU7,-1.19,2.99,9.16,0.0,0.0,0.0,23.88,-16.06,-41.06,0.05,0.16,0.76,0.62
37183,00:03:23.136,IMU5,-0.3,6.82,-7.24,0.0,0.0,0.0,15.38,-61.56,-18.0,0.9,0.22,0.07,0.36
37183,00:03:23.136,IMU6,2.07,-9.58,0.38,0.0,0.0,0.0,-1.25,41.69,-0.88,-0.44,-0.53,0.44,0.57
37183,00:03:23.136,IMU7,-1.19,2.99,9.16,0.0,0.0,0.0,23.88,-16.06,-41.06,0.05,0.16,0.76,0.62
37184,00:03:23.142,IMU5,-0.27,6.89,-7.24,0.0,0.0,0.0,15.38,-61.56,-18.0,0.9,0.22,0.07,0.36
37184,00:03:23.142,IMU6,2.07,-9.58,0.38,0.0,0.0,0.0,0.69,42.19,-3.31,-0.44,-0.53,0.44,0.57
37184,00:03:23.142,IMU7,-1.15,2.91,9.16,0.0,0.0,0.0,23.88,-16.06,-41.06,0.05,0.16,0.76,0.62
37185,00:03:23.146,IMU5,-0.27,6.89,-7.24,0.0,0.0,0.0,15.38,-61.56,-18.0,0.9,0.22,0.07,0.36
37185,00:03:23.146,IMU6,2.07,-9.58,0.38,0.0,0.0,0.0,0.69,42.19,-3.31,-0.44,-0.53,0.44,0.57
37185,00:03:23.146,IMU7,-1.15,2.91,9.16,0.0,0.0,0.0,24.0,-18.25,-40.0,0.05,0.16,0.76,0.62
37186,00:03:23.151,IMU5,-0.27,6.89,-7.24,0.0,0.0,0.0,13.88,-60.88,-16.81,0.9,0.22,0.07,0.36
37186,00:03:23.151,IMU6,2.07,-9.58,0.38,0.0,0.0,0.0,0.69,42.19,-3.31,-0.44,-0.53,0.44,0.57
37186,00:03:23.151,IMU7,-1.15,2.91,9.16,0.01,0.0,0.01,24.0,-18.25,-40.0,0.05,0.16,0.76,0.62
37187,00:03:23.154,IMU5,-0.27,6.89,-7.24,0.0,0.0,0.0,13.88,-60.88,-16.81,0.9,0.22,0.07,0.36
37187,00:03:23.154,IMU6,2.07,-9.58,0.38,0.0,0.0,0.0,0.69,42.19,-3.31,-0.44,-0.53,0.44,0.57
37187,00:03:23.154,IMU7,-1.15,2.91,9.16,0.01,0.0,0.01,24.0,-18.25,-40.0,0.05,0.16,0.76,0.62
37188,00:03:23.161,IMU5,-0.27,6.89,-7.24,0.0,0.0,0.0,13.88,-60.88,-16.81,0.9,0.22,0.07,0.36
37188,00:03:23.161,IMU6,2.07,-9.58,0.38,0.0,0.0,0.0,0.69,42.19,-3.31,-0.44,-0.53,0.44,0.57
37188,00:03:23.161,IMU7,-1.15,2.91,9.16,0.0,0.0,-0.0,24.0,-18.25,-40.0,0.05,0.16,0.76,0.62
37189,00:03:23.168,IMU5,-0.27,6.89,-7.24,0.0,0.0,0.0,13.88,-60.88,-16.81,0.9,0.22,0.07,0.36
37189,00:03:23.168,IMU6,2.07,-9.58,0.38,0.0,0.0,0.0,0.69,42.19,-3.31,-0.44,-0.53,0.44,0.57
37189,00:03:23.168,IMU7,-1.15,2.91,9.16,0.0,0.0,-0.0,24.0,-18.25,-40.0,0.05,0.16,0.76,0.62
37190,00:03:23.175,IMU5,-0.27,6.89,-7.24,0.0,0.0,0.0,13.88,-60.88,-16.81,0.9,0.22,0.07,0.36
37190,00:03:23.175,IMU6,2.07,-9.58,0.38,0.0,0.0,0.0,0.69,42.19,-3.31,-0.44,-0.53,0.44,0.57
37190,00:03:23.175,IMU7,-1.15,2.91,9.16,-0.0,0.01,0.0,24.0,-18.25,-40.0,0.05,0.16,0.76,0.62
37191,00:03:23.178,IMU5,-0.27,6.89,-7.24,0.0,0.0,0.0,13.88,-60.88,-16.81,0.9,0.22,0.07,0.36
37191,00:03:23.178,IMU6,2.07,-9.58,0.38,0.0,0.0,0.0,0.69,42.19,-3.31,-0.44,-0.53,0.44,0.57
37191,00:03:23.178,IMU7,-1.15,2.91,9.16,-0.0,0.01,0.0,24.0,-18.25,-40.0,0.05,0.16,0.76,0.62
37192,00:03:23.185,IMU5,-0.27,6.89,-7.24,0.0,0.0,0.0,13.88,-60.88,-16.81,0.9,0.22,0.07,0.36
37192,00:03:23.185,IMU6,2.07,-9.58,0.38,0.0,0.0,0.0,0.69,42.19,-3.31,-0.44,-0.53,0.44,0.57
37192,00:03:23.185,IMU7,-1.19,2.87,9.12,-0.0,0.01,0.0,24.0,-18.25,-40.0,0.05,0.16,0.76,0.62
37193,00:03:23.192,IMU5,-0.27,6.89,-7.24,0.0,0.0,0.0,13.88,-60.88,-16.81,0.9,0.22,0.07,0.36
37193,00:03:23.192,IMU6,2.07,-9.58,0.38,0.0,0.0,0.0,0.69,42.19,-3.31,-0.44,-0.53,0.44,0.57
37193,00:03:23.192,IMU7,-1.19,2.87,9.12,-0.0,0.01,0.0,23.31,-17.88,-40.81,0.05,0.16,0.76,0.62
37194,00:03:23.198,IMU5,-0.27,6.89,-7.24,0.0,0.0,0.0,13.88,-60.88,-16.81,0.9,0.22,0.07,0.36
37194,00:03:23.198,IMU6,2.07,-9.58,0.38,0.0,0.0,0.0,0.69,42.19,-3.31,-0.44,-0.53,0.44,0.57
37194,00:03:23.198,IMU7,-1.19,2.87,9.12,-0.0,-0.0,-0.0,23.31,-17.88,-40.81,0.05,0.16,0.76,0.62
37195,00:03:23.201,IMU5,-0.27,6.89,-7.24,0.0,0.0,0.0,13.88,-60.88,-16.81,0.9,0.22,0.07,0.36
37195,00:03:23.201,IMU6,2.07,-9.58,0.38,0.0,0.0,0.0,0.69,42.19,-3.31,-0.44,-0.53,0.44,0.57
37195,00:03:23.201,IMU7,-1.19,2.87,9.12,-0.0,-0.0,-0.0,23.31,-17.88,-40.81,0.05,0.16,0.76,0.62
37196,00:03:23.207,IMU5,-0.27,6.89,-7.24,0.0,0.0,0.0,13.88,-60.88,-16.81,0.9,0.22,0.07,0.36
37196,00:03:23.207,IMU6,2.07,-9.58,0.38,0.0,0.0,0.0,0.69,42.19,-3.31,-0.44,-0.53,0.44,0.57
37196,00:03:23.207,IMU7,-1.19,2.87,9.12,0.0,-0.01,0.0,23.31,-17.88,-40.81,0.05,0.16,0.76,0.62
37197,00:03:23.215,IMU5,-0.27,6.89,-7.24,0.0,0.0,0.0,13.88,-60.88,-16.81,0.9,0.22,0.07,0.36
37197,00:03:23.215,IMU6,2.07,-9.58,0.42,0.0,0.0,0.0,0.69,42.19,-3.31,-0.44,-0.53,0.44,0.57
37197,00:03:23.215,IMU7,-1.19,2.87,9.12,0.0,-0.01,0.0,23.31,-17.88,-40.81,0.05,0.16,0.76,0.62
37198,00:03:23.221,IMU5,-0.27,6.82,-7.21,0.0,0.0,0.0,13.88,-60.88,-16.81,0.9,0.22,0.07,0.36
37198,00:03:23.221,IMU6,2.07,-9.58,0.42,0.0,0.0,0.0,0.69,42.19,-3.31,-0.44,-0.53,0.44,0.57
37198,00:03:23.221,IMU7,-1.19,2.87,9.12,-0.0,-0.0,-0.01,23.31,-17.88,-40.81,0.05,0.16,0.76,0.62
37199,00:03:23.224,IMU5,-0.27,6.82,-7.21,0.0,0.0,0.0,13.88,-60.88,-16.81,0.9,0.22,0.07,0.36
37199,00:03:23.224,IMU6,2.07,-9.58,0.42,0.0,0.0,0.0,-0.75,42.56,-1.12,-0.44,-0.53,0.44,0.57
37199,00:03:23.224,IMU7,-1.19,2.87,9.12,-0.0,-0.0,-0.01,23.31,-17.88,-40.81,0.05,0.16,0.76,0.62
37200,00:03:23.230,IMU5,-0.27,6.82,-7.21,0.0,0.0,0.0,13.44,-60.06,-16.12,0.9,0.22,0.07,0.36
37200,00:03:23.230,IMU6,2.07,-9.58,0.42,0.0,0.0,0.0,-0.75,42.56,-1.12,-0.44,-0.53,0.44,0.57
37200,00:03:23.230,IMU7,-1.15,2.91,9.16,-0.0,-0.0,-0.01,23.31,-17.88,-40.81,0.05,0.16,0.76,0.62
37201,00:03:23.238,IMU5,-0.27,6.82,-7.21,0.0,0.0,0.0,13.44,-60.06,-16.12,0.9,0.22,0.07,0.36
37201,00:03:23.238,IMU6,2.07,-9.58,0.42,0.0,0.0,0.0,-0.75,42.56,-1.12,-0.44,-0.53,0.44,0.57
37201,00:03:23.238,IMU7,-1.15,2.91,9.16,0.01,0.0,0.0,23.31,-17.88,-40.81,0.05,0.16,0.76,0.62
37202,00:03:23.246,IMU5,-0.27,6.82,-7.21,0.0,0.0,0.0,13.44,-60.06,-16.12,0.9,0.22,0.07,0.36
37202,00:03:23.246,IMU6,2.07,-9.58,0.42,0.0,0.0,0.0,-0.75,42.56,-1.12,-0.44,-0.53,0.44,0.57
37202,00:03:23.246,IMU7,-1.15,2.91,9.16,0.01,0.0,0.0,23.19,-15.25,-41.38,0.05,0.16,0.76,0.62
37203,00:03:23.255,IMU5,-0.27,6.82,-7.21,0.0,0.0,0.0,13.44,-60.06,-16.12,0.9,0.22,0.07,0.36
37203,00:03:23.255,IMU6,2.07,-9.58,0.42,0.0,0.0,0.0,-0.75,42.56,-1.12,-0.44,-0.53,0.44,0.57
37203,00:03:23.255,IMU7,-1.15,2.91,9.16,0.01,0.0,0.0,23.19,-15.25,-41.38,0.05,0.16,0.76,0.62
37204,00:03:23.263,IMU5,-0.27,6.86,-7.21,0.0,0.0,0.0,13.44,-60.06,-16.12,0.9,0.22,0.07,0.36
37204,00:03:23.263,IMU6,2.07,-9.58,0.42,0.0,0.0,0.0,-0.75,42.56,-1.12,-0.44,-0.53,0.44,0.57
37204,00:03:23.263,IMU7,-1.15,2.91,9.16,0.0,0.01,-0.0,23.19,-15.25,-41.38,0.05,0.16,0.76,0.62
37205,00:03:23.267,IMU5,-0.27,6.86,-7.21,0.0,0.0,0.0,15.25,-60.62,-16.88,0.9,0.22,0.07,0.36
37205,00:03:23.267,IMU6,2.14,-9.58,0.5,0.0,0.0,0.0,-0.75,42.56,-1.12,-0.44,-0.53,0.44,0.57
37205,00:03:23.267,IMU7,-1.15,2.91,9.16,0.0,0.01,-0.0,23.19,-15.25,-41.38,0.05,0.16,0.76,0.62
37206,00:03:23.274,IMU5,-0.27,6.86,-7.21,0.0,0.0,0.0,15.25,-60.62,-16.88,0.9,0.22,0.07,0.36
37206,00:03:23.274,IMU6,2.14,-9.58,0.5,0.0,0.0,0.0,0.62,42.19,-1.94,-0.44,-0.53,0.44,0.57
37206,00:03:23.274,IMU7,-1.15,2.91,9.16,-0.01,0.0,0.0,23.19,-15.25,-41.38,0.05,0.16,0.76,0.62
37207,00:03:23.282,IMU5,-0.27,6.86,-7.21,0.0,0.0,0.0,15.25,-60.62,-16.88,0.9,0.22,0.07,0.36
37207,00:03:23.282,IMU6,2.14,-9.58,0.5,0.0,0.0,0.0,0.62,42.19,-1.94,-0.44,-0.53,0.44,0.57
37207,00:03:23.282,IMU7,-1.15,2.91,9.16,-0.01,0.0,0.0,23.19,-15.25,-41.38,0.05,0.16,0.76,0.62
37208,00:03:23.288,IMU5,-0.27,6.89,-7.24,0.0,0.0,0.0,15.25,-60.62,-16.88,0.9,0.22,0.07,0.36
37208,00:03:23.288,IMU6,2.14,-9.58,0.5,0.0,0.0,0.0,0.62,42.19,-1.94,-0.44,-0.53,0.44,0.57
37208,00:03:23.288,IMU7,-1.15,2.91,9.16,0.0,0.0,-0.0,23.19,-15.25,-41.38,0.05,0.16,0.76,0.62
37209,00:03:23.293,IMU5,-0.27,6.89,-7.24,0.0,0.0,0.0,13.94,-60.38,-17.5,0.9,0.22,0.07,0.36
37209,00:03:23.293,IMU6,2.11,-9.58,0.5,0.0,0.0,0.0,0.62,42.19,-1.94,-0.44,-0.53,0.44,0.57
37209,00:03:23.293,IMU7,-1.15,2.91,9.16,0.0,0.0,-0.0,23.19,-15.25,-41.38,0.05,0.16,0.76,0.62
37210,00:03:23.299,IMU5,-0.27,6.89,-7.24,0.0,0.0,0.0,13.94,-60.38,-17.5,0.9,0.22,0.07,0.36
37210,00:03:23.299,IMU6,2.11,-9.58,0.5,0.0,0.0,0.0,0.62,42.19,-1.94,-0.44,-0.53,0.44,0.57
37210,00:03:23.299,IMU7,-1.15,2.91,9.16,-0.0,0.0,0.0,23.19,-15.25,-41.38,0.05,0.16,0.76,0.62
37211,00:03:23.302,IMU5,-0.27,6.89,-7.24,0.0,0.0,0.0,13.94,-60.38,-17.5,0.9,0.22,0.07,0.36
37211,00:03:23.302,IMU6,2.11,-9.58,0.5,0.0,0.0,0.0,-0.62,42.44,-1.56,-0.44,-0.53,0.44,0.57
37211,00:03:23.302,IMU7,-1.15,2.91,9.16,-0.0,0.0,0.0,23.19,-15.25,-41.38,0.05,0.16,0.76,0.62
37212,00:03:23.310,IMU5,-0.3,6.89,-7.27,0.0,0.0,0.0,13.94,-60.38,-17.5,0.9,0.22,0.07,0.36
37212,00:03:23.310,IMU6,2.11,-9.58,0.5,0.0,0.0,0.0,-0.62,42.44,-1.56,-0.44,-0.53,0.44,0.57
37212,00:03:23.310,IMU7,-1.15,2.91,9.16,0.0,0.0,0.0,23.19,-15.25,-41.38,0.05,0.16,0.76,0.62
37213,00:03:23.318,IMU5,-0.3,6.89,-7.27,0.0,0.0,0.0,13.94,-60.38,-17.5,0.9,0.22,0.07,0.36
37213,00:03:23.318,IMU6,2.11,-9.58,0.5,0.0,0.0,0.0,-0.62,42.44,-1.56,-0.44,-0.53,0.44,0.57
37213,00:03:23.318,IMU7,-1.15,2.91,9.16,0.0,0.0,0.0,23.19,-15.25,-41.38,0.05,0.16,0.76,0.62
37214,00:03:23.326,IMU5,-0.3,6.89,-7.27,0.0,0.0,0.0,14.19,-60.56,-16.75,0.9,0.22,0.07,0.36
37214,00:03:23.326,IMU6,2.11,-9.58,0.5,0.0,0.0,0.0,-0.62,42.44,-1.56,-0.44,-0.53,0.44,0.57
37214,00:03:23.326,IMU7,-1.15,2.87,9.2,0.0,0.0,0.0,23.19,-15.25,-41.38,0.05,0.16,0.76,0.62
37215,00:03:23.329,IMU5,-0.3,6.89,-7.27,0.0,0.0,0.0,14.19,-60.56,-16.75,0.9,0.22,0.07,0.36
37215,00:03:23.329,IMU6,2.11,-9.58,0.5,0.0,0.0,0.0,-0.62,42.44,-1.56,-0.44,-0.53,0.44,0.57
37215,00:03:23.329,IMU7,-1.15,2.87,9.2,-0.0,0.01,-0.01,23.19,-15.25,-41.38,0.05,0.16,0.76,0.62
37216,00:03:23.337,IMU5,-0.3,6.89,-7.27,0.0,0.0,0.0,14.19,-60.56,-16.75,0.9,0.22,0.07,0.36
37216,00:03:23.337,IMU6,2.11,-9.58,0.5,0.0,0.0,0.0,-0.62,42.44,-1.56,-0.44,-0.53,0.44,0.57
37216,00:03:23.337,IMU7,-1.15,2.87,9.2,-0.0,0.01,-0.01,23.56,-17.12,-39.56,0.05,0.16,0.76,0.62
37217,00:03:23.344,IMU5,-0.3,6.89,-7.27,0.0,0.0,0.0,14.19,-60.56,-16.75,0.9,0.22,0.07,0.36
37217,00:03:23.344,IMU6,2.11,-9.58,0.5,0.0,0.0,0.0,-0.62,42.44,-1.56,-0.44,-0.53,0.44,0.57
37217,00:03:23.344,IMU7,-1.15,2.87,9.2,-0.0,0.01,-0.01,23.56,-17.12,-39.56,0.05,0.16,0.76,0.62
37218,00:03:23.351,IMU5,-0.3,6.89,-7.27,0.0,0.0,0.0,14.19,-60.56,-16.75,0.9,0.22,0.07,0.36
37218,00:03:23.351,IMU6,2.11,-9.58,0.5,0.0,0.0,0.0,-0.62,42.44,-1.56,-0.44,-0.53,0.44,0.57
37218,00:03:23.351,IMU7,-1.15,2.87,9.2,-0.0,0.0,-0.01,23.56,-17.12,-39.56,0.05,0.16,0.76,0.62
37219,00:03:23.354,IMU5,-0.3,6.89,-7.27,0.0,0.0,0.0,14.19,-60.56,-16.75,0.9,0.22,0.07,0.36
37219,00:03:23.354,IMU6,2.03,-9.58,0.46,0.0,0.0,0.0,-0.62,42.44,-1.56,-0.44,-0.53,0.44,0.57
37219,00:03:23.354,IMU7,-1.15,2.87,9.2,-0.0,0.0,-0.01,23.56,-17.12,-39.56,0.05,0.16,0.76,0.62
37220,00:03:23.362,IMU5,-0.3,6.89,-7.27,0.0,0.0,0.0,14.19,-60.56,-16.75,0.9,0.22,0.07,0.36
37220,00:03:23.362,IMU6,2.03,-9.58,0.46,0.0,0.0,0.0,-0.5,42.75,-1.88,-0.44,-0.53,0.44,0.57
37220,00:03:23.362,IMU7,-1.15,2.87,9.2,0.0,0.0,0.0,23.56,-17.12,-39.56,0.05,0.16,0.76,0.62
37221,00:03:23.371,IMU5,-0.3,6.89,-7.27,0.0,0.0,0.0,14.19,-60.56,-16.75,0.9,0.22,0.07,0.36
37221,00:03:23.371,IMU6,2.03,-9.58,0.46,0.0,0.0,0.0,-0.5,42.75,-1.88,-0.44,-0.53,0.44,0.57
37221,00:03:23.371,IMU7,-1.15,2.87,9.2,0.0,0.0,0.0,23.56,-17.12,-39.56,0.05,0.16,0.76,0.62
37222,00:03:23.378,IMU5,-0.3,6.89,-7.27,0.0,0.0,0.0,14.19,-60.56,-16.75,0.9,0.22,0.07,0.36
37222,00:03:23.378,IMU6,2.03,-9.58,0.46,0.0,0.0,0.0,-0.5,42.75,-1.88,-0.44,-0.53,0.44,0.57
37222,00:03:23.378,IMU7,-1.15,2.87,9.2,-0.0,0.0,0.0,23.56,-17.12,-39.56,0.05,0.16,0.76,0.62
37223,00:03:23.381,IMU5,-0.3,6.89,-7.27,0.0,0.0,0.0,14.19,-60.56,-16.75,0.9,0.22,0.07,0.36
37223,00:03:23.381,IMU6,2.03,-9.58,0.46,0.0,0.0,0.0,-0.5,42.75,-1.88,-0.44,-0.53,0.44,0.57
37223,00:03:23.381,IMU7,-1.15,2.87,9.2,-0.0,0.0,0.0,23.56,-17.12,-39.56,0.05,0.16,0.76,0.62
37224,00:03:23.391,IMU5,-0.3,6.89,-7.27,0.0,0.0,0.0,14.19,-60.56,-16.75,0.9,0.22,0.07,0.36
37224,00:03:23.391,IMU6,2.03,-9.58,0.46,0.0,0.0,0.0,-0.5,42.75,-1.88,-0.44,-0.53,0.44,0.57
37224,00:03:23.391,IMU7,-1.19,2.91,9.2,-0.0,0.0,0.0,23.56,-17.12,-39.56,0.05,0.16,0.76,0.62
37225,00:03:23.399,IMU5,-0.3,6.89,-7.27,0.0,0.0,0.0,14.19,-60.56,-16.75,0.9,0.22,0.07,0.36
37225,00:03:23.399,IMU6,2.03,-9.58,0.46,0.0,0.0,0.0,-0.5,42.75,-1.88,-0.44,-0.53,0.44,0.57
37225,00:03:23.399,IMU7,-1.19,2.91,9.2,0.0,0.0,0.0,23.56,-17.12,-39.56,0.05,0.16,0.76,0.62
37226,00:03:23.402,IMU5,-0.27,6.86,-7.23,0.0,0.0,0.0,14.19,-60.56,-16.75,0.9,0.22,0.07,0.36
37226,00:03:23.402,IMU6,2.03,-9.58,0.46,0.0,0.0,0.0,-0.5,42.75,-1.88,-0.44,-0.53,0.44,0.57
37226,00:03:23.402,IMU7,-1.19,2.91,9.2,0.0,0.0,0.0,23.25,-17.19,-40.75,0.05,0.16,0.76,0.62
37227,00:03:23.407,IMU5,-0.27,6.86,-7.23,0.0,0.0,0.0,14.38,-60.88,-18.12,0.9,0.22,0.07,0.36
37227,00:03:23.407,IMU6,2.07,-9.58,0.42,0.0,0.0,0.0,-0.5,42.75,-1.88,-0.44,-0.53,0.44,0.57
37227,00:03:23.407,IMU7,-1.19,2.91,9.2,0.0,0.0,0.0,23.25,-17.19,-40.75,0.05,0.16,0.76,0.62
37228,00:03:23.414,IMU5,-0.27,6.86,-7.23,0.0,0.0,0.0,14.38,-60.88,-18.12,0.9,0.22,0.07,0.36
37228,00:03:23.414,IMU6,2.07,-9.58,0.42,0.0,0.0,0.0,-0.06,41.81,-2.19,-0.44,-0.53,0.44,0.57
37228,00:03:23.414,IMU7,-1.19,2.91,9.2,0.0,0.0,0.0,23.25,-17.19,-40.75,0.05,0.16,0.76,0.62
37229,00:03:23.417,IMU5,-0.27,6.86,-7.23,0.0,0.0,0.0,14.38,-60.88,-18.12,0.9,0.22,0.07,0.36
37229,00:03:23.417,IMU6,2.07,-9.58,0.42,0.0,0.0,0.0,-0.06,41.81,-2.19,-0.44,-0.53,0.44,0.57
37229,00:03:23.417,IMU7,-1.19,2.91,9.2,0.0,0.0,0.0,23.25,-17.19,-40.75,0.05,0.16,0.76,0.62
37230,00:03:23.424,IMU5,-0.27,6.86,-7.23,0.0,0.0,0.0,14.38,-60.88,-18.12,0.9,0.22,0.07,0.36
37230,00:03:23.424,IMU6,2.07,-9.58,0.42,0.0,0.0,0.0,-0.06,41.81,-2.19,-0.44,-0.53,0.44,0.57
37230,00:03:23.424,IMU7,-1.19,2.91,9.2,0.0,0.0,0.02,23.25,-17.19,-40.75,0.05,0.16,0.76,0.62
37231,00:03:23.430,IMU5,-0.27,6.86,-7.23,0.0,0.0,0.0,14.38,-60.88,-18.12,0.9,0.22,0.07,0.36
37231,00:03:23.430,IMU6,2.07,-9.58,0.42,0.0,0.0,0.0,-0.06,41.81,-2.19,-0.44,-0.53,0.44,0.57
37231,00:03:23.430,IMU7,-1.19,2.91,9.2,0.0,0.0,0.02,23.25,-17.19,-40.75,0.05,0.16,0.76,0.62
37232,00:03:23.437,IMU5,-0.27,6.86,-7.23,0.0,0.0,0.0,14.38,-60.88,-18.12,0.9,0.22,0.07,0.36
37232,00:03:23.437,IMU6,2.07,-9.58,0.42,0.0,0.0,0.0,-0.06,41.81,-2.19,-0.44,-0.53,0.44,0.57
37232,00:03:23.437,IMU7,-1.19,2.91,9.2,0.0,0.0,0.0,23.25,-17.19,-40.75,0.05,0.16,0.76,0.62
37233,00:03:23.440,IMU5,-0.27,6.86,-7.23,0.0,0.0,0.0,14.38,-60.88,-18.12,0.9,0.22,0.07,0.36
37233,00:03:23.440,IMU6,2.07,-9.54,0.34,0.0,0.0,0.0,-0.06,41.81,-2.19,-0.44,-0.53,0.44,0.57
37233,00:03:23.440,IMU7,-1.19,2.91,9.2,0.0,0.0,0.0,23.25,-17.19,-40.75,0.05,0.16,0.76,0.62
37234,00:03:23.448,IMU5,-0.27,6.86,-7.23,0.0,0.0,0.0,14.38,-60.88,-18.12,0.9,0.22,0.07,0.36
37234,00:03:23.448,IMU6,2.07,-9.54,0.34,0.0,0.0,0.0,0.12,41.94,-1.44,-0.44,-0.53,0.44,0.57
37234,00:03:23.448,IMU7,-1.15,2.87,9.16,0.0,0.0,0.0,23.25,-17.19,-40.75,0.05,0.16,0.76,0.62
37235,00:03:23.457,IMU5,-0.27,6.86,-7.23,0.0,0.0,0.0,14.38,-60.88,-18.12,0.9,0.22,0.07,0.36
37235,00:03:23.457,IMU6,2.07,-9.54,0.34,0.0,0.0,0.0,0.12,41.94,-1.44,-0.44,-0.53,0.44,0.57
37235,00:03:23.457,IMU7,-1.15,2.87,9.16,0.0,0.0,0.0,22.94,-17.56,-41.12,0.05,0.16,0.76,0.62
37236,00:03:23.464,IMU5,-0.27,6.82,-7.21,0.0,0.0,0.0,14.38,-60.88,-18.12,0.9,0.22,0.07,0.36
37236,00:03:23.464,IMU6,2.07,-9.54,0.34,0.0,0.0,0.0,0.12,41.94,-1.44,-0.44,-0.53,0.44,0.57
37236,00:03:23.464,IMU7,-1.15,2.87,9.16,-0.0,0.0,-0.01,22.94,-17.56,-41.12,0.05,0.16,0.76,0.62
37237,00:03:23.468,IMU5,-0.27,6.82,-7.21,0.0,0.0,0.0,14.38,-60.88,-18.12,0.9,0.22,0.07,0.36
37237,00:03:23.468,IMU6,2.07,-9.54,0.34,0.0,0.0,0.0,0.12,41.94,-1.44,-0.44,-0.53,0.44,0.57
37237,00:03:23.468,IMU7,-1.15,2.87,9.16,-0.0,0.0,-0.01,22.94,-17.56,-41.12,0.05,0.16,0.76,0.62
37238,00:03:23.472,IMU5,-0.27,6.82,-7.21,0.0,0.0,0.0,13.69,-60.44,-17.94,0.9,0.22,0.07,0.36
37238,00:03:23.472,IMU6,2.07,-9.54,0.34,0.0,0.0,0.0,0.12,41.94,-1.44,-0.44,-0.53,0.44,0.57
37238,00:03:23.472,IMU7,-1.15,2.87,9.16,-0.0,0.0,-0.0,22.94,-17.56,-41.12,0.05,0.16,0.76,0.62
37239,00:03:23.479,IMU5,-0.27,6.82,-7.21,0.0,0.0,0.0,13.69,-60.44,-17.94,0.9,0.22,0.07,0.36
37239,00:03:23.479,IMU6,2.07,-9.54,0.34,0.0,0.0,0.0,0.12,41.94,-1.44,-0.44,-0.53,0.44,0.57
37239,00:03:23.479,IMU7,-1.15,2.87,9.16,-0.0,0.0,-0.0,22.94,-17.56,-41.12,0.05,0.16,0.76,0.62
37240,00:03:23.486,IMU5,-0.27,6.82,-7.21,0.0,0.0,0.0,13.69,-60.44,-17.94,0.9,0.22,0.07,0.36
37240,00:03:23.486,IMU6,2.07,-9.54,0.34,0.0,0.0,0.0,0.12,41.94,-1.44,-0.44,-0.53,0.44,0.57
37240,00:03:23.486,IMU7,-1.15,2.87,9.16,-0.01,0.0,0.0,22.94,-17.56,-41.12,0.05,0.16,0.76,0.62
37241,00:03:23.492,IMU5,-0.27,6.82,-7.21,0.0,0.0,0.0,13.69,-60.44,-17.94,0.9,0.22,0.07,0.36
37241,00:03:23.492,IMU6,2.07,-9.54,0.34,0.0,0.0,0.0,0.12,41.94,-1.44,-0.44,-0.53,0.44,0.57
37241,00:03:23.492,IMU7,-1.15,2.87,9.16,-0.01,0.0,0.0,22.94,-17.56,-41.12,0.05,0.16,0.76,0.62
37242,00:03:23.499,IMU5,-0.27,6.82,-7.21,0.0,0.0,0.0,13.69,-60.44,-17.94,0.9,0.22,0.07,0.36
37242,00:03:23.499,IMU6,2.07,-9.54,0.34,0.0,0.0,0.0,0.12,41.94,-1.44,-0.44,-0.53,0.44,0.57
37242,00:03:23.499,IMU7,-1.15,2.87,9.16,-0.0,-0.01,0.0,22.94,-17.56,-41.12,0.05,0.16,0.76,0.62
37243,00:03:23.502,IMU5,-0.27,6.82,-7.21,0.0,0.0,0.0,13.69,-60.44,-17.94,0.9,0.22,0.07,0.36
37243,00:03:23.502,IMU6,2.07,-9.54,0.34,0.0,0.0,0.0,0.12,41.94,-1.44,-0.44,-0.53,0.44,0.57
37243,00:03:23.502,IMU7,-1.15,2.87,9.16,-0.0,-0.01,0.0,22.94,-17.56,-41.12,0.05,0.16,0.76,0.62
37244,00:03:23.510,IMU5,-0.27,6.82,-7.21,0.0,0.0,0.0,13.69,-60.44,-17.94,0.9,0.22,0.07,0.36
37244,00:03:23.510,IMU6,2.07,-9.54,0.34,0.0,0.0,0.0,0.12,41.94,-1.44,-0.44,-0.53,0.44,0.57
37244,00:03:23.510,IMU7,-1.11,2.91,9.12,-0.0,-0.01,0.0,22.94,-17.56,-41.12,0.05,0.16,0.76,0.62
37245,00:03:23.517,IMU5,-0.27,6.82,-7.21,0.0,0.0,0.0,13.69,-60.44,-17.94,0.9,0.22,0.07,0.36
37245,00:03:23.517,IMU6,2.07,-9.54,0.34,0.0,0.0,0.0,0.12,41.94,-1.44,-0.44,-0.53,0.44,0.57
37245,00:03:23.517,IMU7,-1.11,2.91,9.12,-0.0,-0.01,0.0,23.88,-16.06,-40.62,0.05,0.16,0.76,0.62
37246,00:03:23.524,IMU5,-0.27,6.86,-7.23,0.0,0.0,0.0,13.69,-60.44,-17.94,0.9,0.22,0.07,0.36
37246,00:03:23.524,IMU6,2.07,-9.54,0.34,0.0,0.0,0.0,0.12,41.94,-1.44,-0.44,-0.53,0.44,0.57
37246,00:03:23.524,IMU7,-1.11,2.91,9.12,-0.01,0.01,0.0,23.88,-16.06,-40.62,0.05,0.16,0.76,0.62
37247,00:03:23.527,IMU5,-0.27,6.86,-7.23,0.0,0.0,0.0,13.69,-60.44,-17.94,0.9,0.22,0.07,0.36
37247,00:03:23.527,IMU6,2.11,-9.58,0.54,0.0,0.0,0.0,0.12,41.94,-1.44,-0.44,-0.53,0.44,0.57
37247,00:03:23.527,IMU7,-1.11,2.91,9.12,-0.01,0.01,0.0,23.88,-16.06,-40.62,0.05,0.16,0.76,0.62
37248,00:03:23.531,IMU5,-0.27,6.86,-7.23,0.0,0.0,0.0,12.81,-60.12,-16.44,0.9,0.22,0.07,0.36
37248,00:03:23.531,IMU6,2.11,-9.58,0.54,0.0,0.0,0.0,-1.69,42.31,-0.62,-0.44,-0.53,0.44,0.57
37248,00:03:23.531,IMU7,-1.11,2.91,9.12,-0.0,0.0,0.0,23.88,-16.06,-40.62,0.05,0.16,0.76,0.62
37249,00:03:23.534,IMU5,-0.27,6.86,-7.23,0.0,0.0,0.0,12.81,-60.12,-16.44,0.9,0.22,0.07,0.36
37249,00:03:23.534,IMU6,2.11,-9.58,0.54,0.0,0.0,0.0,-1.69,42.31,-0.62,-0.44,-0.53,0.44,0.57
37249,00:03:23.534,IMU7,-1.11,2.91,9.12,-0.0,0.0,0.0,23.88,-16.06,-40.62,0.05,0.16,0.76,0.62
37250,00:03:23.541,IMU5,-0.27,6.86,-7.23,0.0,0.0,0.0,12.81,-60.12,-16.44,0.9,0.22,0.07,0.36
37250,00:03:23.541,IMU6,2.11,-9.58,0.54,0.0,0.0,0.0,-1.69,42.31,-0.62,-0.44,-0.53,0.44,0.57
37250,00:03:23.541,IMU7,-1.19,2.87,9.2,-0.0,0.0,0.0,23.88,-16.06,-40.62,0.05,0.16,0.76,0.62
37251,00:03:23.546,IMU5,-0.27,6.86,-7.23,0.0,0.0,0.0,12.81,-60.12,-16.44,0.9,0.22,0.07,0.36
37251,00:03:23.546,IMU6,2.11,-9.58,0.54,0.0,0.0,0.0,-1.69,42.31,-0.62,-0.44,-0.53,0.44,0.57
37251,00:03:23.546,IMU7,-1.19,2.87,9.2,-0.0,0.0,0.0,23.56,-16.5,-41.88,0.05,0.16,0.76,0.62
37252,00:03:23.552,IMU5,-0.27,6.86,-7.23,0.0,0.0,0.0,12.81,-60.12,-16.44,0.9,0.22,0.07,0.36
37252,00:03:23.552,IMU6,2.11,-9.58,0.54,0.0,0.0,0.0,-1.69,42.31,-0.62,-0.44,-0.53,0.44,0.57
37252,00:03:23.552,IMU7,-1.19,2.87,9.2,0.0,-0.01,0.0,23.56,-16.5,-41.88,0.05,0.16,0.76,0.62
37253,00:03:23.556,IMU5,-0.27,6.86,-7.23,0.0,0.0,0.0,12.81,-60.12,-16.44,0.9,0.22,0.07,0.36
37253,00:03:23.556,IMU6,2.03,-9.61,0.42,0.0,0.0,0.0,-1.69,42.31,-0.62,-0.44,-0.53,0.44,0.57
37253,00:03:23.556,IMU7,-1.19,2.87,9.2,0.0,-0.01,0.0,23.56,-16.5,-41.88,0.05,0.16,0.76,0.62
37254,00:03:23.564,IMU5,-0.27,6.86,-7.23,0.0,0.0,0.0,12.81,-60.12,-16.44,0.9,0.22,0.07,0.36
37254,00:03:23.564,IMU6,2.03,-9.61,0.42,0.0,0.0,0.0,-1.69,42.31,-0.62,-0.44,-0.53,0.44,0.57
37254,00:03:23.564,IMU7,-1.19,2.87,9.2,-0.0,0.0,0.0,23.56,-16.5,-41.88,0.05,0.16,0.76,0.62
37255,00:03:23.567,IMU5,-0.27,6.86,-7.23,0.0,0.0,0.0,12.81,-60.12,-16.44,0.9,0.22,0.07,0.36
37255,00:03:23.567,IMU6,2.03,-9.61,0.42,0.0,0.0,0.0,0.0,42.69,-2.38,-0.44,-0.53,0.44,0.57
37255,00:03:23.567,IMU7,-1.19,2.87,9.2,-0.0,0.0,0.0,23.56,-16.5,-41.88,0.05,0.16,0.76,0.62
37256,00:03:23.573,IMU5,-0.27,6.86,-7.23,0.0,0.0,0.0,12.81,-60.12,-16.44,0.9,0.22,0.07,0.36
37256,00:03:23.573,IMU6,2.03,-9.61,0.42,0.0,0.0,0.0,0.0,42.69,-2.38,-0.44,-0.53,0.44,0.57
37256,00:03:23.573,IMU7,-1.19,2.87,9.2,0.0,0.0,0.0,23.56,-16.5,-41.88,0.05,0.16,0.76,0.62
37257,00:03:23.580,IMU5,-0.27,6.86,-7.23,0.0,0.0,0.0,12.81,-60.12,-16.44,0.9,0.22,0.07,0.36
37257,00:03:23.580,IMU6,2.03,-9.61,0.42,0.0,0.0,0.0,0.0,42.69,-2.38,-0.44,-0.53,0.44,0.57
37257,00:03:23.580,IMU7,-1.19,2.87,9.2,0.0,0.0,0.0,23.56,-16.5,-41.88,0.05,0.16,0.76,0.62
37258,00:03:23.586,IMU5,-0.27,6.93,-7.24,0.0,0.0,0.0,12.81,-60.12,-16.44,0.9,0.22,0.07,0.36
37258,00:03:23.586,IMU6,2.03,-9.61,0.42,0.0,0.0,0.0,0.0,42.69,-2.38,-0.44,-0.53,0.44,0.57
37258,00:03:23.586,IMU7,-1.19,2.87,9.2,0.0,0.0,0.0,23.56,-16.5,-41.88,0.05,0.16,0.76,0.62
37259,00:03:23.589,IMU5,-0.27,6.93,-7.24,0.0,0.0,0.0,14.69,-61.44,-17.44,0.9,0.22,0.07,0.36
37259,00:03:23.589,IMU6,2.11,-9.61,0.42,0.0,0.0,0.0,0.0,42.69,-2.38,-0.44,-0.53,0.44,0.57
37259,00:03:23.589,IMU7,-1.19,2.87,9.2,0.0,0.0,0.0,23.56,-16.5,-41.88,0.05,0.16,0.76,0.62
37260,00:03:23.596,IMU5,-0.27,6.93,-7.24,0.0,0.0,0.0,14.69,-61.44,-17.44,0.9,0.22,0.07,0.36
37260,00:03:23.596,IMU6,2.11,-9.61,0.42,0.0,0.0,0.0,-0.81,42.31,-2.25,-0.44,-0.53,0.44,0.57
37260,00:03:23.596,IMU7,-1.15,2.87,9.12,0.0,0.0,0.0,23.56,-16.5,-41.88,0.05,0.16,0.76,0.62
37261,00:03:23.600,IMU5,-0.27,6.93,-7.24,0.0,0.0,0.0,14.69,-61.44,-17.44,0.9,0.22,0.07,0.36
37261,00:03:23.600,IMU6,2.11,-9.61,0.42,0.0,0.0,0.0,-0.81,42.31,-2.25,-0.44,-0.53,0.44,0.57
37261,00:03:23.600,IMU7,-1.15,2.87,9.12,0.0,0.0,0.0,23.56,-16.5,-41.88,0.05,0.16,0.76,0.62
37262,00:03:23.604,IMU5,-0.27,6.93,-7.24,0.0,0.0,0.0,14.69,-61.44,-17.44,0.9,0.22,0.07,0.36
37262,00:03:23.604,IMU6,2.11,-9.61,0.42,0.0,0.0,0.0,-0.81,42.31,-2.25,-0.44,-0.53,0.44,0.57
37262,00:03:23.604,IMU7,-1.15,2.87,9.12,0.0,0.0,0.0,23.69,-17.69,-41.94,0.05,0.16,0.76,0.62
37263,00:03:23.608,IMU5,-0.27,6.93,-7.24,0.0,0.0,0.0,14.69,-61.44,-17.44,0.9,0.22,0.07,0.36
37263,00:03:23.608,IMU6,2.11,-9.61,0.42,0.0,0.0,0.0,-0.81,42.31,-2.25,-0.44,-0.53,0.44,0.57
37263,00:03:23.608,IMU7,-1.15,2.87,9.12,0.0,0.0,0.0,23.69,-17.69,-41.94,0.05,0.16,0.76,0.62
37264,00:03:23.615,IMU5,-0.27,6.86,-7.27,0.0,0.0,0.0,14.69,-61.44,-17.44,0.9,0.22,0.07,0.36
37264,00:03:23.615,IMU6,2.11,-9.61,0.42,0.0,0.0,0.0,-0.81,42.31,-2.25,-0.44,-0.53,0.44,0.57
37264,00:03:23.615,IMU7,-1.15,2.87,9.12,0.0,0.0,0.0,23.69,-17.69,-41.94,0.05,0.16,0.76,0.62
37265,00:03:23.618,IMU5,-0.27,6.86,-7.27,0.0,0.0,0.0,15.12,-59.19,-16.5,0.9,0.22,0.07,0.36
37265,00:03:23.618,IMU6,2.11,-9.61,0.42,0.0,0.0,0.0,-0.81,42.31,-2.25,-0.44,-0.53,0.44,0.57
37265,00:03:23.618,IMU7,-1.15,2.87,9.12,0.0,0.0,0.0,23.69,-17.69,-41.94,0.05,0.16,0.76,0.62
37266,00:03:23.622,IMU5,-0.27,6.86,-7.27,0.0,0.0,0.0,15.12,-59.19,-16.5,0.9,0.22,0.07,0.36
37266,00:03:23.622,IMU6,2.11,-9.61,0.42,0.0,0.0,0.0,-0.81,42.31,-2.25,-0.44,-0.53,0.44,0.57
37266,00:03:23.622,IMU7,-1.15,2.87,9.12,0.0,0.0,0.0,23.69,-17.69,-41.94,0.05,0.16,0.76,0.62
37267,00:03:23.629,IMU5,-0.27,6.86,-7.27,0.0,0.0,0.0,15.12,-59.19,-16.5,0.9,0.22,0.07,0.36
37267,00:03:23.629,IMU6,2.11,-9.61,0.42,0.0,0.0,0.0,-0.81,42.31,-2.25,-0.44,-0.53,0.44,0.57
37267,00:03:23.629,IMU7,-1.15,2.87,9.12,0.0,0.0,0.0,23.69,-17.69,-41.94,0.05,0.16,0.76,0.62
37268,00:03:23.636,IMU5,-0.27,6.86,-7.27,0.0,0.0,0.0,15.12,-59.19,-16.5,0.9,0.22,0.07,0.36
37268,00:03:23.636,IMU6,2.11,-9.61,0.42,0.0,0.0,0.0,-0.81,42.31,-2.25,-0.44,-0.53,0.44,0.57
37268,00:03:23.636,IMU7,-1.15,2.87,9.12,0.0,0.0,0.0,23.69,-17.69,-41.94,0.05,0.16,0.76,0.62
37269,00:03:23.639,IMU5,-0.27,6.86,-7.27,0.0,0.0,0.0,15.12,-59.19,-16.5,0.9,0.22,0.07,0.36
37269,00:03:23.639,IMU6,2.11,-9.61,0.42,0.0,0.0,0.0,-0.81,42.31,-2.25,-0.44,-0.53,0.44,0.57
37269,00:03:23.639,IMU7,-1.15,2.87,9.12,0.0,0.0,0.0,23.69,-17.69,-41.94,0.05,0.16,0.76,0.62
37270,00:03:23.646,IMU5,-0.27,6.86,-7.27,0.0,0.0,0.0,15.12,-59.19,-16.5,0.9,0.22,0.07,0.36
37270,00:03:23.646,IMU6,2.11,-9.61,0.42,0.0,0.0,0.0,-0.81,42.31,-2.25,-0.44,-0.53,0.44,0.57
37270,00:03:23.646,IMU7,-1.15,2.87,9.12,0.0,0.0,0.0,23.69,-17.69,-41.94,0.05,0.16,0.76,0.62
37271,00:03:23.653,IMU5,-0.27,6.86,-7.27,0.0,0.0,0.0,15.12,-59.19,-16.5,0.9,0.22,0.07,0.36
37271,00:03:23.653,IMU6,2.11,-9.61,0.42,0.0,0.0,0.0,-0.81,42.31,-2.25,-0.44,-0.53,0.44,0.57
37271,00:03:23.653,IMU7,-1.15,2.87,9.12,0.0,0.0,0.0,23.69,-17.69,-41.94,0.05,0.16,0.76,0.62
37272,00:03:23.660,IMU5,-0.27,6.86,-7.27,0.0,0.0,0.0,15.12,-59.19,-16.5,0.9,0.22,0.07,0.36
37272,00:03:23.660,IMU6,2.11,-9.61,0.42,0.0,0.0,0.0,-0.81,42.31,-2.25,-0.44,-0.53,0.44,0.57
37272,00:03:23.660,IMU7,-1.15,2.87,9.12,0.0,0.0,0.0,23.69,-17.69,-41.94,0.05,0.16,0.76,0.62
37273,00:03:23.663,IMU5,-0.27,6.86,-7.27,0.0,0.0,0.0,15.12,-59.19,-16.5,0.9,0.22,0.07,0.36
37273,00:03:23.663,IMU6,2.11,-9.61,0.46,0.0,0.0,0.0,-0.81,42.31,-2.25,-0.44,-0.53,0.44,0.57
37273,00:03:23.663,IMU7,-1.15,2.87,9.12,0.0,0.0,0.0,23.69,-17.69,-41.94,0.05,0.16,0.76,0.62
37274,00:03:23.672,IMU5,-0.27,6.86,-7.27,0.0,0.0,0.0,15.12,-59.19,-16.5,0.9,0.22,0.07,0.36
37274,00:03:23.672,IMU6,2.11,-9.61,0.46,0.0,0.0,0.0,-0.81,42.31,-0.81,-0.44,-0.53,0.44,0.57
37274,00:03:23.672,IMU7,-1.15,2.87,9.12,0.0,0.0,0.0,23.69,-17.69,-41.94,0.05,0.16,0.76,0.62
37275,00:03:23.679,IMU5,-0.27,6.86,-7.27,0.0,0.0,0.0,15.12,-59.19,-16.5,0.9,0.22,0.07,0.36
37275,00:03:23.679,IMU6,2.11,-9.61,0.46,0.0,0.0,0.0,-0.81,42.31,-0.81,-0.44,-0.53,0.44,0.57
37275,00:03:23.679,IMU7,-1.15,2.87,9.12,0.0,0.0,0.0,23.69,-17.69,-41.94,0.05,0.16,0.76,0.62
37276,00:03:23.686,IMU5,-0.3,6.93,-7.23,0.0,0.0,0.0,15.12,-59.19,-16.5,0.9,0.22,0.07,0.36
37276,00:03:23.686,IMU6,2.11,-9.61,0.46,0.0,0.0,0.0,-0.81,42.31,-0.81,-0.44,-0.53,0.44,0.57
37276,00:03:23.686,IMU7,-1.15,2.91,9.12,0.0,0.0,0.0,23.69,-17.69,-41.94,0.05,0.16,0.76,0.62
37277,00:03:23.689,IMU5,-0.3,6.93,-7.23,0.0,0.0,0.0,15.12,-59.19,-16.5,0.9,0.22,0.07,0.36
37277,00:03:23.689,IMU6,2.11,-9.61,0.46,0.0,0.0,0.0,-0.81,42.31,-0.81,-0.44,-0.53,0.44,0.57
37277,00:03:23.689,IMU7,-1.15,2.91,9.12,0.0,0.0,0.0,23.69,-17.69,-41.94,0.05,0.16,0.76,0.62
37278,00:03:23.692,IMU5,-0.3,6.93,-7.23,0.0,0.0,0.0,14.38,-59.94,-15.38,0.9,0.22,0.07,0.36
37278,00:03:23.692,IMU6,2.11,-9.61,0.46,0.0,0.0,0.0,-0.81,42.31,-0.81,-0.44,-0.53,0.44,0.57
37278,00:03:23.692,IMU7,-1.15,2.91,9.12,0.0,0.0,0.0,23.31,-18.25,-40.38,0.05,0.16,0.76,0.62
37279,00:03:23.697,IMU5,-0.3,6.93,-7.23,0.0,0.0,0.0,14.38,-59.94,-15.38,0.9,0.22,0.07,0.36
37279,00:03:23.697,IMU6,2.11,-9.61,0.46,0.0,0.0,0.0,-0.81,42.31,-0.81,-0.44,-0.53,0.44,0.57
37279,00:03:23.697,IMU7,-1.15,2.91,9.12,0.0,0.0,0.0,23.31,-18.25,-40.38,0.05,0.16,0.76,0.62
37280,00:03:23.705,IMU5,-0.3,6.93,-7.23,0.0,0.0,0.0,14.38,-59.94,-15.38,0.9,0.22,0.07,0.36
37280,00:03:23.705,IMU6,2.11,-9.61,0.46,0.0,0.0,0.0,-0.81,42.31,-0.81,-0.44,-0.53,0.44,0.57
37280,00:03:23.705,IMU7,-1.15,2.91,9.12,0.0,0.0,0.0,23.31,-18.25,-40.38,0.05,0.16,0.76,0.62
37281,00:03:23.711,IMU5,-0.3,6.93,-7.23,0.0,0.0,0.0,14.38,-59.94,-15.38,0.9,0.22,0.07,0.36
37281,00:03:23.711,IMU6,2.11,-9.61,0.46,0.0,0.0,0.0,-0.81,42.31,-0.81,-0.44,-0.53,0.44,0.57
37281,00:03:23.711,IMU7,-1.15,2.91,9.12,0.0,0.0,0.0,23.31,-18.25,-40.38,0.05,0.16,0.76,0.62
37282,00:03:23.717,IMU5,-0.3,6.86,-7.2,0.0,0.0,0.0,14.38,-59.94,-15.38,0.9,0.22,0.07,0.36
37282,00:03:23.717,IMU6,2.11,-9.61,0.46,0.0,0.0,0.0,-0.81,42.31,-0.81,-0.44,-0.53,0.44,0.57
37282,00:03:23.717,IMU7,-1.15,2.91,9.12,0.0,0.0,0.0,23.31,-18.25,-40.38,0.05,0.16,0.76,0.62
37283,00:03:23.720,IMU5,-0.3,6.86,-7.2,0.0,0.0,0.0,15.06,-60.94,-18.25,0.9,0.22,0.07,0.36
37283,00:03:23.720,IMU6,2.03,-9.65,0.46,0.0,0.0,0.0,-0.81,42.31,-0.81,-0.44,-0.53,0.44,0.57
37283,00:03:23.720,IMU7,-1.15,2.91,9.12,0.0,0.0,0.0,23.31,-18.25,-40.38,0.05,0.16,0.76,0.62
37284,00:03:23.726,IMU5,-0.3,6.86,-7.2,0.0,0.0,0.0,15.06,-60.94,-18.25,0.9,0.22,0.07,0.36
37284,00:03:23.726,IMU6,2.03,-9.65,0.46,0.0,0.0,0.0,-1.25,42.06,-2.25,-0.44,-0.53,0.44,0.57
37284,00:03:23.726,IMU7,-1.19,2.87,9.16,0.0,0.0,0.0,23.31,-18.25,-40.38,0.05,0.16,0.76,0.62
37285,00:03:23.732,IMU5,-0.3,6.86,-7.2,0.0,0.0,0.0,15.06,-60.94,-18.25,0.9,0.22,0.07,0.36
37285,00:03:23.732,IMU6,2.03,-9.65,0.46,0.0,0.0,0.0,-1.25,42.06,-2.25,-0.44,-0.53,0.44,0.57
37285,00:03:23.732,IMU7,-1.19,2.87,9.16,0.0,0.0,0.0,23.19,-16.0,-40.69,0.05,0.16,0.76,0.62
37286,00:03:23.738,IMU5,-0.3,6.86,-7.2,0.0,0.0,0.0,15.06,-60.94,-18.25,0.9,0.22,0.07,0.36
37286,00:03:23.738,IMU6,2.03,-9.65,0.46,0.0,0.0,0.0,-1.25,42.06,-2.25,-0.44,-0.53,0.44,0.57
37286,00:03:23.738,IMU7,-1.19,2.87,9.16,0.0,0.0,0.0,23.19,-16.0,-40.69,0.05,0.16,0.76,0.62
37287,00:03:23.742,IMU5,-0.3,6.86,-7.2,0.0,0.0,0.0,15.06,-60.94,-18.25,0.9,0.22,0.07,0.36
37287,00:03:23.742,IMU6,2.03,-9.65,0.46,0.0,0.0,0.0,-1.25,42.06,-2.25,-0.44,-0.53,0.44,0.57
37287,00:03:23.742,IMU7,-1.19,2.87,9.16,0.0,0.0,0.0,23.19,-16.0,-40.69,0.05,0.16,0.76,0.62
37288,00:03:23.748,IMU5,-0.3,6.86,-7.2,0.0,0.0,0.0,15.06,-60.94,-18.25,0.9,0.22,0.07,0.36
37288,00:03:23.748,IMU6,2.03,-9.65,0.46,0.0,0.0,0.0,-1.25,42.06,-2.25,-0.44,-0.53,0.44,0.57
37288,00:03:23.748,IMU7,-1.19,2.87,9.16,0.0,0.0,0.0,23.19,-16.0,-40.69,0.05,0.16,0.76,0.62
37289,00:03:23.754,IMU5,-0.3,6.86,-7.2,0.0,0.0,0.0,15.06,-60.94,-18.25,0.9,0.22,0.07,0.36
37289,00:03:23.754,IMU6,2.03,-9.65,0.46,0.0,0.0,0.0,-1.25,42.06,-2.25,-0.44,-0.53,0.44,0.57
37289,00:03:23.754,IMU7,-1.19,2.87,9.16,0.0,0.0,0.0,23.19,-16.0,-40.69,0.05,0.16,0.76,0.62
37290,00:03:23.760,IMU5,-0.3,6.86,-7.28,0.0,0.0,0.0,15.06,-60.94,-18.25,0.9,0.22,0.07,0.36
37290,00:03:23.760,IMU6,2.03,-9.65,0.46,0.0,0.0,0.0,-1.25,42.06,-2.25,-0.44,-0.53,0.44,0.57
37290,00:03:23.760,IMU7,-1.19,2.87,9.16,0.0,0.0,0.0,23.19,-16.0,-40.69,0.05,0.16,0.76,0.62
37291,00:03:23.763,IMU5,-0.3,6.86,-7.28,0.0,0.0,0.0,15.56,-60.31,-16.81,0.9,0.22,0.07,0.36
37291,00:03:23.763,IMU6,2.03,-9.65,0.46,0.0,0.0,0.0,-1.25,42.06,-2.25,-0.44,-0.53,0.44,0.57
37291,00:03:23.763,IMU7,-1.19,2.87,9.16,0.0,0.0,0.0,23.19,-16.0,-40.69,0.05,0.16,0.76,0.62
37292,00:03:23.769,IMU5,-0.3,6.86,-7.28,0.0,0.0,0.0,15.56,-60.31,-16.81,0.9,0.22,0.07,0.36
37292,00:03:23.769,IMU6,2.03,-9.65,0.46,0.0,0.0,0.0,-1.25,42.06,-2.25,-0.44,-0.53,0.44,0.57
37292,00:03:23.769,IMU7,-1.19,2.87,9.16,0.0,0.0,0.0,23.19,-16.0,-40.69,0.05,0.16,0.76,0.62
37293,00:03:23.775,IMU5,-0.3,6.86,-7.28,0.0,0.0,0.0,15.56,-60.31,-16.81,0.9,0.22,0.07,0.36
37293,00:03:23.775,IMU6,2.03,-9.65,0.46,0.0,0.0,0.0,-1.25,42.06,-2.25,-0.44,-0.53,0.44,0.57
37293,00:03:23.775,IMU7,-1.19,2.87,9.16,0.0,0.0,0.0,23.19,-16.0,-40.69,0.05,0.16,0.76,0.62
37294,00:03:23.781,IMU5,-0.3,6.86,-7.28,0.0,0.0,0.0,15.56,-60.31,-16.81,0.9,0.22,0.07,0.36
37294,00:03:23.781,IMU6,2.03,-9.65,0.46,0.0,0.0,0.0,-1.25,42.06,-2.25,-0.44,-0.53,0.44,0.57
37294,00:03:23.781,IMU7,-1.19,2.87,9.16,0.0,0.0,0.0,23.19,-16.0,-40.69,0.05,0.16,0.76,0.62
37295,00:03:23.784,IMU5,-0.3,6.86,-7.28,0.0,0.0,0.0,15.56,-60.31,-16.81,0.9,0.22,0.07,0.36
37295,00:03:23.784,IMU6,2.03,-9.65,0.46,0.0,0.0,0.0,-1.25,42.06,-2.25,-0.44,-0.53,0.44,0.57
37295,00:03:23.784,IMU7,-1.19,2.87,9.16,0.0,0.0,0.0,23.19,-16.0,-40.69,0.05,0.16,0.76,0.62
37296,00:03:23.790,IMU5,-0.3,6.86,-7.28,0.0,0.0,0.0,15.56,-60.31,-16.81,0.9,0.22,0.07,0.36
37296,00:03:23.790,IMU6,2.03,-9.65,0.46,0.0,0.0,0.0,-0.75,42.25,-1.19,-0.44,-0.53,0.44,0.57
37296,00:03:23.790,IMU7,-1.15,2.87,9.12,0.0,0.0,0.0,23.19,-16.0,-40.69,0.05,0.16,0.76,0.62
37297,00:03:23.796,IMU5,-0.3,6.86,-7.28,0.0,0.0,0.0,15.56,-60.31,-16.81,0.9,0.22,0.07,0.36
37297,00:03:23.796,IMU6,2.03,-9.65,0.46,0.0,0.0,0.0,-0.75,42.25,-1.19,-0.44,-0.53,0.44,0.57
37297,00:03:23.796,IMU7,-1.15,2.87,9.12,0.0,0.0,0.0,22.44,-16.25,-39.44,0.05,0.16,0.76,0.62
37298,00:03:23.801,IMU5,-0.3,6.86,-7.28,0.0,0.0,0.0,15.56,-60.31,-16.81,0.9,0.22,0.07,0.36
37298,00:03:23.801,IMU6,2.03,-9.65,0.46,0.0,0.0,0.0,-0.75,42.25,-1.19,-0.44,-0.53,0.44,0.57
37298,00:03:23.801,IMU7,-1.15,2.87,9.12,0.0,0.0,0.0,22.44,-16.25,-39.44,0.05,0.16,0.76,0.62
37299,00:03:23.804,IMU5,-0.3,6.86,-7.28,0.0,0.0,0.0,15.56,-60.31,-16.81,0.9,0.22,0.07,0.36
37299,00:03:23.804,IMU6,2.03,-9.65,0.46,0.0,0.0,0.0,-0.75,42.25,-1.19,-0.44,-0.53,0.44,0.57
37299,00:03:23.804,IMU7,-1.15,2.87,9.12,0.0,0.0,0.0,22.44,-16.25,-39.44,0.05,0.16,0.76,0.62
37300,00:03:23.811,IMU5,-0.3,6.86,-7.28,0.0,0.0,0.0,15.56,-60.31,-16.81,0.9,0.22,0.07,0.36
37300,00:03:23.811,IMU6,2.03,-9.65,0.46,0.0,0.0,0.0,-0.75,42.25,-1.19,-0.44,-0.53,0.44,0.57
37300,00:03:23.811,IMU7,-1.15,2.87,9.12,0.0,0.0,0.0,22.44,-16.25,-39.44,0.05,0.16,0.76,0.62
37301,00:03:23.817,IMU5,-0.3,6.86,-7.28,0.0,0.0,0.0,15.56,-60.31,-16.81,0.9,0.22,0.07,0.36
37301,00:03:23.817,IMU6,2.03,-9.65,0.46,0.0,0.0,0.0,-0.75,42.25,-1.19,-0.44,-0.53,0.44,0.57
37301,00:03:23.817,IMU7,-1.15,2.87,9.12,0.0,0.0,0.0,22.44,-16.25,-39.44,0.05,0.16,0.76,0.62
37302,00:03:23.825,IMU5,-0.3,6.89,-7.23,0.0,0.0,0.0,15.56,-60.31,-16.81,0.9,0.22,0.07,0.36
37302,00:03:23.825,IMU6,2.03,-9.65,0.46,0.0,0.0,0.0,-0.75,42.25,-1.19,-0.44,-0.53,0.44,0.57
37302,00:03:23.825,IMU7,-1.15,2.87,9.12,0.0,0.0,0.0,22.44,-16.25,-39.44,0.05,0.16,0.76,0.62
37303,00:03:23.828,IMU5,-0.3,6.89,-7.23,0.0,0.0,0.0,15.12,-61.75,-18.81,0.9,0.22,0.07,0.36
37303,00:03:23.828,IMU6,2.03,-9.65,0.46,0.0,0.0,0.0,-0.75,42.25,-1.19,-0.44,-0.53,0.44,0.57
37303,00:03:23.828,IMU7,-1.15,2.87,9.12,0.0,0.0,0.0,22.44,-16.25,-39.44,0.05,0.16,0.76,0.62
37304,00:03:23.835,IMU5,-0.3,6.89,-7.23,0.0,0.0,0.0,15.12,-61.75,-18.81,0.9,0.22,0.07,0.36
37304,00:03:23.835,IMU6,2.03,-9.65,0.46,0.0,0.0,0.0,-0.75,42.25,-1.19,-0.44,-0.53,0.44,0.57
37304,00:03:23.835,IMU7,-1.15,2.87,9.12,0.0,0.0,0.0,22.44,-16.25,-39.44,0.05,0.16,0.76,0.62
37305,00:03:23.843,IMU5,-0.3,6.89,-7.23,0.0,0.0,0.0,15.12,-61.75,-18.81,0.9,0.22,0.07,0.36
37305,00:03:23.843,IMU6,2.07,-9.69,0.42,0.0,0.0,0.0,-0.75,42.25,-1.19,-0.44,-0.53,0.44,0.57
37305,00:03:23.843,IMU7,-1.15,2.87,9.12,0.0,0.0,0.0,22.44,-16.25,-39.44,0.05,0.16,0.76,0.62
37306,00:03:23.850,IMU5,-0.3,6.86,-7.28,0.0,0.0,0.0,15.12,-61.75,-18.81,0.9,0.22,0.07,0.36
37306,00:03:23.850,IMU6,2.07,-9.69,0.42,0.0,0.0,0.0,-0.75,42.25,-1.19,-0.44,-0.53,0.44,0.57
37306,00:03:23.850,IMU7,-1.15,2.87,9.12,0.0,0.0,0.0,22.44,-16.25,-39.44,0.05,0.16,0.76,0.62
37307,00:03:23.853,IMU5,-0.3,6.86,-7.28,0.0,0.0,0.0,13.56,-60.25,-17.06,0.9,0.22,0.07,0.36
37307,00:03:23.853,IMU6,2.07,-9.69,0.42,0.0,0.0,0.0,0.5,43.5,-1.25,-0.44,-0.53,0.44,0.57
37307,00:03:23.853,IMU7,-1.15,2.87,9.12,0.0,0.0,0.0,22.44,-16.25,-39.44,0.05,0.16,0.76,0.62
37308,00:03:23.859,IMU5,-0.3,6.86,-7.28,0.0,0.0,0.0,13.56,-60.25,-17.06,0.9,0.22,0.07,0.36
37308,00:03:23.859,IMU6,2.07,-9.69,0.42,0.0,0.0,0.0,0.5,43.5,-1.25,-0.44,-0.53,0.44,0.57
37308,00:03:23.859,IMU7,-1.19,2.87,9.12,0.0,0.0,0.0,22.44,-16.25,-39.44,0.05,0.16,0.76,0.62
37309,00:03:23.866,IMU5,-0.3,6.86,-7.28,0.0,0.0,0.0,13.56,-60.25,-17.06,0.9,0.22,0.07,0.36
37309,00:03:23.866,IMU6,2.07,-9.69,0.42,0.0,0.0,0.0,0.5,43.5,-1.25,-0.44,-0.53,0.44,0.57
37309,00:03:23.866,IMU7,-1.19,2.87,9.12,0.0,0.0,0.0,23.19,-17.12,-39.5,0.05,0.16,0.76,0.62
37310,00:03:23.872,IMU5,-0.3,6.86,-7.28,0.0,0.0,0.0,13.56,-60.25,-17.06,0.9,0.22,0.07,0.36
37310,00:03:23.872,IMU6,2.07,-9.69,0.42,0.0,0.0,0.0,0.5,43.5,-1.25,-0.44,-0.53,0.44,0.57
37310,00:03:23.872,IMU7,-1.19,2.87,9.12,0.0,0.0,0.0,23.19,-17.12,-39.5,0.05,0.16,0.76,0.62
37311,00:03:23.877,IMU5,-0.3,6.86,-7.28,0.0,0.0,0.0,13.56,-60.25,-17.06,0.9,0.22,0.07,0.36
37311,00:03:23.877,IMU6,2.07,-9.65,0.46,0.0,0.0,0.0,0.5,43.5,-1.25,-0.44,-0.53,0.44,0.57
37311,00:03:23.877,IMU7,-1.19,2.87,9.12,0.0,0.0,0.0,23.19,-17.12,-39.5,0.05,0.16,0.76,0.62
37312,00:03:23.883,IMU5,-0.3,6.86,-7.28,0.0,0.0,0.0,13.56,-60.25,-17.06,0.9,0.22,0.07,0.36
37312,00:03:23.883,IMU6,2.07,-9.65,0.46,0.0,0.0,0.0,0.5,43.5,-1.25,-0.44,-0.53,0.44,0.57
37312,00:03:23.883,IMU7,-1.19,2.87,9.12,0.0,0.0,0.0,23.19,-17.12,-39.5,0.05,0.16,0.76,0.62
37313,00:03:23.886,IMU5,-0.3,6.86,-7.28,0.0,0.0,0.0,13.56,-60.25,-17.06,0.9,0.22,0.07,0.36
37313,00:03:23.886,IMU6,2.07,-9.65,0.46,0.0,0.0,0.0,0.12,42.25,-1.38,-0.44,-0.53,0.44,0.57
37313,00:03:23.886,IMU7,-1.19,2.87,9.12,0.0,0.0,0.0,23.19,-17.12,-39.5,0.05,0.16,0.76,0.62
37314,00:03:23.892,IMU5,-0.3,6.86,-7.28,0.0,0.0,0.0,13.56,-60.25,-17.06,0.9,0.22,0.07,0.36
37314,00:03:23.892,IMU6,2.07,-9.65,0.46,0.0,0.0,0.0,0.12,42.25,-1.38,-0.44,-0.53,0.44,0.57
37314,00:03:23.892,IMU7,-1.19,2.87,9.12,0.0,0.0,0.0,23.19,-17.12,-39.5,0.05,0.16,0.76,0.62
37315,00:03:23.898,IMU5,-0.3,6.86,-7.28,0.0,0.0,0.0,13.56,-60.25,-17.06,0.9,0.22,0.07,0.36
37315,00:03:23.898,IMU6,2.07,-9.65,0.46,0.0,0.0,0.0,0.12,42.25,-1.38,-0.44,-0.53,0.44,0.57
37315,00:03:23.898,IMU7,-1.19,2.87,9.12,0.0,0.0,0.0,23.19,-17.12,-39.5,0.05,0.16,0.76,0.62
37316,00:03:23.905,IMU5,-0.23,6.82,-7.24,0.0,0.0,0.0,13.56,-60.25,-17.06,0.9,0.22,0.07,0.36
37316,00:03:23.905,IMU6,2.07,-9.65,0.46,0.0,0.0,0.0,0.12,42.25,-1.38,-0.44,-0.53,0.44,0.57
37316,00:03:23.905,IMU7,-1.19,2.87,9.12,0.0,0.0,0.0,23.19,-17.12,-39.5,0.05,0.16,0.76,0.62
37317,00:03:23.908,IMU5,-0.23,6.82,-7.24,0.0,0.0,0.0,13.56,-60.25,-17.06,0.9,0.22,0.07,0.36
37317,00:03:23.908,IMU6,2.07,-9.65,0.46,0.0,0.0,0.0,0.12,42.25,-1.38,-0.44,-0.53,0.44,0.57
37317,00:03:23.908,IMU7,-1.19,2.87,9.12,0.0,0.0,0.0,23.19,-17.12,-39.5,0.05,0.16,0.76,0.62
37318,00:03:23.913,IMU5,-0.23,6.82,-7.24,0.0,0.0,0.0,13.38,-59.62,-15.62,0.9,0.22,0.07,0.36
37318,00:03:23.913,IMU6,2.07,-9.65,0.46,0.0,0.0,0.0,0.12,42.25,-1.38,-0.44,-0.53,0.44,0.57
37318,00:03:23.913,IMU7,-1.19,2.87,9.04,0.0,0.0,0.0,23.19,-17.12,-39.5,0.05,0.16,0.76,0.62
37319,00:03:23.916,IMU5,-0.23,6.82,-7.24,0.0,0.0,0.0,13.38,-59.62,-15.62,0.9,0.22,0.07,0.36
37319,00:03:23.916,IMU6,2.07,-9.61,0.42,0.0,0.0,0.0,0.12,42.25,-1.38,-0.44,-0.53,0.44,0.57
37319,00:03:23.916,IMU7,-1.19,2.87,9.04,0.0,0.0,0.0,23.69,-18.31,-41.19,0.05,0.16,0.76,0.62
37320,00:03:23.924,IMU5,-0.23,6.82,-7.24,0.0,0.0,0.0,13.38,-59.62,-15.62,0.9,0.22,0.07,0.36
37320,00:03:23.924,IMU6,2.07,-9.61,0.42,0.0,0.0,0.0,-0.81,42.31,-0.81,-0.44,-0.53,0.44,0.57
37320,00:03:23.924,IMU7,-1.19,2.87,9.04,0.0,0.0,0.0,23.69,-18.31,-41.19,0.05,0.16,0.76,0.62
37321,00:03:23.931,IMU5,-0.23,6.82,-7.24,0.0,0.0,0.0,13.38,-59.62,-15.62,0.9,0.22,0.07,0.36
37321,00:03:23.931,IMU6,2.07,-9.61,0.42,0.0,0.0,0.0,-0.81,42.31,-0.81,-0.44,-0.53,0.44,0.57
37321,00:03:23.931,IMU7,-1.19,2.87,9.04,0.0,0.0,0.0,23.69,-18.31,-41.19,0.05,0.16,0.76,0.62
37322,00:03:23.938,IMU5,-0.23,6.82,-7.24,0.0,0.0,0.0,13.38,-59.62,-15.62,0.9,0.22,0.07,0.36
37322,00:03:23.938,IMU6,2.07,-9.61,0.42,0.0,0.0,0.0,-0.81,42.31,-0.81,-0.44,-0.53,0.44,0.57
37322,00:03:23.938,IMU7,-1.19,2.87,9.04,0.0,0.0,0.0,23.69,-18.31,-41.19,0.05,0.16,0.76,0.62
37323,00:03:23.941,IMU5,-0.23,6.82,-7.24,0.0,0.0,0.0,13.38,-59.62,-15.62,0.9,0.22,0.07,0.36
37323,00:03:23.941,IMU6,2.11,-9.61,0.5,0.0,0.0,0.0,-0.81,42.31,-0.81,-0.44,-0.53,0.44,0.57
37323,00:03:23.941,IMU7,-1.19,2.87,9.04,0.0,0.0,0.0,23.69,-18.31,-41.19,0.05,0.16,0.76,0.62
37324,00:03:23.947,IMU5,-0.23,6.82,-7.24,0.0,0.0,0.0,13.38,-59.62,-15.62,0.9,0.22,0.07,0.36
37324,00:03:23.947,IMU6,2.11,-9.61,0.5,0.0,0.0,0.0,-1.12,42.25,-1.12,-0.44,-0.53,0.44,0.57
37324,00:03:23.947,IMU7,-1.15,2.87,9.12,0.0,0.0,0.0,23.69,-18.31,-41.19,0.05,0.16,0.76,0.62
37325,00:03:23.952,IMU5,-0.23,6.82,-7.24,0.0,0.0,0.0,13.38,-59.62,-15.62,0.9,0.22,0.07,0.36
37325,00:03:23.952,IMU6,2.11,-9.61,0.5,0.0,0.0,0.0,-1.12,42.25,-1.12,-0.44,-0.53,0.44,0.57
37325,00:03:23.952,IMU7,-1.15,2.87,9.12,0.0,0.0,0.0,23.69,-18.31,-41.19,0.05,0.16,0.76,0.62
37326,00:03:23.955,IMU5,-0.23,6.82,-7.24,0.0,0.0,0.0,13.38,-59.62,-15.62,0.9,0.22,0.07,0.36
37326,00:03:23.955,IMU6,2.11,-9.61,0.5,0.0,0.0,0.0,-1.12,42.25,-1.12,-0.44,-0.53,0.44,0.57
37326,00:03:23.955,IMU7,-1.15,2.87,9.12,0.0,0.0,0.0,24.06,-19.06,-40.44,0.05,0.16,0.76,0.62
37327,00:03:23.960,IMU5,-0.23,6.82,-7.24,0.0,0.0,0.0,13.38,-59.62,-15.62,0.9,0.22,0.07,0.36
37327,00:03:23.960,IMU6,2.11,-9.61,0.5,0.0,0.0,0.0,-1.12,42.25,-1.12,-0.44,-0.53,0.44,0.57
37327,00:03:23.960,IMU7,-1.15,2.87,9.12,0.0,0.0,0.0,24.06,-19.06,-40.44,0.05,0.16,0.76,0.62
37328,00:03:23.967,IMU5,-0.3,6.89,-7.21,0.0,0.0,0.0,13.38,-59.62,-15.62,0.9,0.22,0.07,0.36
37328,00:03:23.967,IMU6,2.11,-9.61,0.5,0.0,0.0,0.0,-1.12,42.25,-1.12,-0.44,-0.53,0.44,0.57
37328,00:03:23.967,IMU7,-1.15,2.87,9.12,0.0,0.0,0.0,24.06,-19.06,-40.44,0.05,0.16,0.76,0.62
37329,00:03:23.970,IMU5,-0.3,6.89,-7.21,0.0,0.0,0.0,14.25,-61.31,-16.94,0.9,0.22,0.07,0.36
37329,00:03:23.970,IMU6,2.07,-9.58,0.42,0.0,0.0,0.0,-1.12,42.25,-1.12,-0.44,-0.53,0.44,0.57
37329,00:03:23.970,IMU7,-1.15,2.87,9.12,0.0,0.0,0.0,24.06,-19.06,-40.44,0.05,0.16,0.76,0.62
37330,00:03:23.978,IMU5,-0.3,6.89,-7.21,0.0,0.0,0.0,14.25,-61.31,-16.94,0.9,0.22,0.07,0.36
37330,00:03:23.978,IMU6,2.07,-9.58,0.42,0.0,0.0,0.0,-1.12,42.25,-1.12,-0.44,-0.53,0.44,0.57
37330,00:03:23.978,IMU7,-1.15,2.87,9.12,0.0,0.0,0.0,24.06,-19.06,-40.44,0.05,0.16,0.76,0.62
37331,00:03:23.982,IMU5,-0.3,6.89,-7.21,0.0,0.0,0.0,14.25,-61.31,-16.94,0.9,0.22,0.07,0.36
37331,00:03:23.982,IMU6,2.07,-9.58,0.42,0.0,0.0,0.0,-0.19,41.19,-1.94,-0.44,-0.53,0.44,0.57
37331,00:03:23.982,IMU7,-1.15,2.87,9.12,0.0,0.0,0.0,24.06,-19.06,-40.44,0.05,0.16,0.76,0.62
37332,00:03:23.987,IMU5,-0.3,6.89,-7.21,0.0,0.0,0.0,14.25,-61.31,-16.94,0.9,0.22,0.07,0.36
37332,00:03:23.987,IMU6,2.07,-9.58,0.42,0.0,0.0,0.0,-0.19,41.19,-1.94,-0.44,-0.53,0.44,0.57
37332,00:03:23.987,IMU7,-1.15,2.87,9.12,0.0,0.0,0.0,24.06,-19.06,-40.44,0.05,0.16,0.76,0.62
37333,00:03:23.997,IMU5,-0.3,6.89,-7.21,0.0,0.0,0.0,14.25,-61.31,-16.94,0.9,0.22,0.07,0.36
37333,00:03:23.997,IMU6,2.07,-9.58,0.42,0.0,0.0,0.0,-0.19,41.19,-1.94,-0.44,-0.53,0.44,0.57
37333,00:03:23.997,IMU7,-1.15,2.87,9.12,0.0,0.0,0.0,24.06,-19.06,-40.44,0.05,0.16,0.76,0.62
37334,00:03:24.005,IMU5,-0.3,6.89,-7.27,0.0,0.0,0.0,14.25,-61.31,-16.94,0.9,0.22,0.07,0.36
37334,00:03:24.005,IMU6,2.07,-9.58,0.42,0.0,0.0,0.0,-0.19,41.19,-1.94,-0.44,-0.53,0.44,0.57
37334,00:03:24.005,IMU7,-1.19,2.91,9.16,0.0,0.0,0.0,24.06,-19.06,-40.44,0.05,0.16,0.76,0.62
37335,00:03:24.008,IMU5,-0.3,6.89,-7.27,0.0,0.0,0.0,13.12,-60.38,-16.19,0.9,0.22,0.07,0.36
37335,00:03:24.008,IMU6,2.07,-9.58,0.42,0.0,0.0,0.0,-0.19,41.19,-1.94,-0.44,-0.53,0.44,0.57
37335,00:03:24.008,IMU7,-1.19,2.91,9.16,0.0,0.0,0.0,24.06,-19.06,-40.44,0.05,0.16,0.76,0.62
37336,00:03:24.018,IMU5,-0.3,6.89,-7.27,0.0,0.0,0.0,13.12,-60.38,-16.19,0.9,0.22,0.07,0.36
37336,00:03:24.018,IMU6,2.07,-9.58,0.42,0.0,0.0,0.0,-0.19,41.19,-1.94,-0.44,-0.53,0.44,0.57
37336,00:03:24.018,IMU7,-1.19,2.91,9.16,0.0,0.0,0.0,23.69,-18.31,-41.19,0.05,0.16,0.76,0.62
37337,00:03:24.026,IMU5,-0.3,6.89,-7.27,0.0,0.0,0.0,13.12,-60.38,-16.19,0.9,0.22,0.07,0.36
37337,00:03:24.026,IMU6,2.07,-9.58,0.42,0.0,0.0,0.0,-0.19,41.19,-1.94,-0.44,-0.53,0.44,0.57
37337,00:03:24.026,IMU7,-1.19,2.91,9.16,0.0,0.0,0.0,23.69,-18.31,-41.19,0.05,0.16,0.76,0.62
37338,00:03:24.033,IMU5,-0.3,6.89,-7.27,0.0,0.0,0.0,13.12,-60.38,-16.19,0.9,0.22,0.07,0.36
37338,00:03:24.033,IMU6,2.07,-9.58,0.42,0.0,0.0,0.0,-0.19,41.19,-1.94,-0.44,-0.53,0.44,0.57
37338,00:03:24.033,IMU7,-1.19,2.91,9.16,0.0,0.0,0.0,23.69,-18.31,-41.19,0.05,0.16,0.76,0.62
37339,00:03:24.036,IMU5,-0.3,6.89,-7.27,0.0,0.0,0.0,13.12,-60.38,-16.19,0.9,0.22,0.07,0.36
37339,00:03:24.036,IMU6,2.03,-9.54,0.46,0.0,0.0,0.0,-0.19,41.19,-1.94,-0.44,-0.53,0.44,0.57
37339,00:03:24.036,IMU7,-1.19,2.91,9.16,0.0,0.0,0.0,23.69,-18.31,-41.19,0.05,0.16,0.76,0.62
37340,00:03:24.045,IMU5,-0.3,6.89,-7.27,0.0,0.0,0.0,13.12,-60.38,-16.19,0.9,0.22,0.07,0.36
37340,00:03:24.045,IMU6,2.03,-9.54,0.46,0.0,0.0,0.0,-0.19,41.19,-1.94,-0.44,-0.53,0.44,0.57
37340,00:03:24.045,IMU7,-1.15,2.91,9.12,0.0,0.0,0.0,23.69,-18.31,-41.19,0.05,0.16,0.76,0.62
37341,00:03:24.049,IMU5,-0.3,6.89,-7.27,0.0,0.0,0.0,13.12,-60.38,-16.19,0.9,0.22,0.07,0.36
37341,00:03:24.049,IMU6,2.03,-9.54,0.46,0.0,0.0,0.0,-0.81,41.69,-0.94,-0.44,-0.53,0.44,0.57
37341,00:03:24.049,IMU7,-1.15,2.91,9.12,0.0,0.0,0.0,23.25,-16.81,-41.12,0.05,0.16,0.76,0.62
37342,00:03:24.055,IMU5,-0.3,6.89,-7.27,0.0,0.0,0.0,13.12,-60.38,-16.19,0.9,0.22,0.07,0.36
37342,00:03:24.055,IMU6,2.03,-9.54,0.46,0.0,0.0,0.0,-0.81,41.69,-0.94,-0.44,-0.53,0.44,0.57
37342,00:03:24.055,IMU7,-1.15,2.91,9.12,0.0,0.0,0.0,23.25,-16.81,-41.12,0.05,0.16,0.76,0.62
37343,00:03:24.061,IMU5,-0.3,6.89,-7.27,0.0,0.0,0.0,13.12,-60.38,-16.19,0.9,0.22,0.07,0.36
