Count,Timestamp,IMU,AccelX,AccelY,AccelZ,GyroX,GyroY,GyroZ,MagX,MagY,MagZ,QuatW,QuatX,QuatY,QuatZ
9411,00:00:53.689,IMU1,0.3,0.04,9.79,0.0,0.0,0.0,36.94,-9.88,-40.75,0.02,-0.01,0.79,0.61
9411,00:00:53.689,IMU2,0.2,0.14,9.83,0.0,0.0,0.0,33.81,-26.75,-45.75,0.01,0.0,0.88,0.47
9411,00:00:53.689,IMU3,0.2,0.08,9.81,0.0,0.0,0.0,23.75,-15.38,-41.5,0.01,-0.0,0.87,0.49
9411,00:00:53.689,IMU4,0.16,0.1,9.8,0.0,0.0,0.0,8.25,-6.19,-25.88,0.01,-0.0,0.85,0.53
9412,00:00:53.696,IMU1,0.3,0.04,9.79,0.0,0.0,0.0,36.94,-9.88,-40.75,0.02,-0.01,0.79,0.61
9412,00:00:53.696,IMU2,0.2,0.14,9.83,0.0,0.0,0.0,33.81,-26.75,-45.75,0.01,0.0,0.88,0.47
9412,00:00:53.696,IMU3,0.2,0.08,9.81,0.0,0.0,0.0,23.75,-15.38,-41.5,0.01,-0.0,0.87,0.49
9412,00:00:53.696,IMU4,0.16,0.1,9.8,0.0,0.0,0.0,8.25,-6.19,-25.88,0.01,-0.0,0.85,0.53
10310,00:00:53.692,IMU5,0.18,0.32,9.7,0.0,0.0,0.0,34.25,-10.0,-19.56,0.02,0.01,0.8,0.61
10310,00:00:53.692,IMU6,0.14,0.16,9.86,0.0,0.0,0.0,27.38,-6.5,-15.69,0.01,0.0,0.78,0.62
10310,00:00:53.692,IMU7,0.42,0.11,9.79,-0.0,-0.0,0.0,19.75,-8.62,-17.81,0.02,-0.01,0.83,0.55
10311,00:00:53.695,IMU5,0.18,0.32,9.7,0.0,0.0,0.0,34.25,-10.0,-19.56,0.02,0.01,0.8,0.61
10311,00:00:53.695,IMU6,0.14,0.16,9.86,0.0,0.0,0.0,27.38,-6.5,-15.69,0.01,0.0,0.78,0.62
10311,00:00:53.695,IMU7,0.42,0.11,9.79,-0.0,-0.0,0.0,19.75,-8.62,-17.81,0.02,-0.01,0.83,0.55
10312,00:00:53.700,IMU5,0.18,0.32,9.7,0.0,0.0,0.0,34.56,-9.56,-19.25,0.02,0.01,0.8,0.61
10312,00:00:53.700,IMU6,0.14,0.16,9.86,0.0,0.0,0.0,27.38,-6.5,-15.69,0.01,0.0,0.78,0.62
10312,00:00:53.700,IMU7,0.42,0.11,9.79,0.01,-0.0,0.0,19.75,-8.62,-17.81,0.02,-0.01,0.83,0.55
9413,00:00:53.701,IMU1,0.3,0.04,9.79,0.0,0.0,0.0,36.94,-9.88,-40.75,0.02,-0.01,0.79,0.61
9413,00:00:53.701,IMU2,0.2,0.14,9.83,0.0,0.0,0.0,36.06,-24.94,-46.06,0.01,0.0,0.88,0.47
9413,00:00:53.701,IMU3,0.2,0.08,9.81,0.0,0.0,0.0,23.75,-15.38,-41.5,0.01,-0.0,0.87,0.49
9413,00:00:53.701,IMU4,0.16,0.1,9.8,0.0,0.0,0.0,8.25,-6.19,-25.88,0.01,-0.0,0.85,0.53
10313,00:00:53.703,IMU5,0.18,0.32,9.7,0.0,0.0,0.0,34.56,-9.56,-19.25,0.02,0.01,0.8,0.61
10313,00:00:53.703,IMU6,0.14,0.16,9.86,0.0,0.0,0.0,27.38,-6.5,-15.69,0.01,0.0,0.78,0.62
10313,00:00:53.703,IMU7,0.42,0.11,9.79,0.01,-0.0,0.0,19.75,-8.62,-17.81,0.02,-0.01,0.83,0.55
9414,00:00:53.711,IMU1,0.3,0.04,9.79,0.0,0.0,0.0,36.94,-9.88,-40.75,0.02,-0.01,0.79,0.61
9414,00:00:53.711,IMU2,0.2,0.14,9.83,0.0,0.0,0.0,36.06,-24.94,-46.06,0.01,0.0,0.88,0.47
9414,00:00:53.711,IMU3,0.2,0.08,9.81,0.0,0.0,0.0,23.75,-15.38,-41.5,0.01,-0.0,0.87,0.49
9414,00:00:53.711,IMU4,0.16,-0.02,9.88,0.0,0.0,0.0,8.25,-6.19,-25.88,0.01,-0.0,0.85,0.53
10314,00:00:53.710,IMU5,0.18,0.32,9.7,0.0,0.0,0.0,34.56,-9.56,-19.25,0.02,0.01,0.8,0.61
10314,00:00:53.710,IMU6,0.14,0.16,9.82,0.0,0.0,0.0,27.38,-6.5,-15.69,0.01,0.0,0.78,0.62
10314,00:00:53.710,IMU7,0.42,0.15,9.83,0.01,-0.0,0.0,19.75,-8.62,-17.81,0.02,-0.01,0.83,0.55
10315,00:00:53.713,IMU5,0.18,0.32,9.7,0.0,0.0,0.0,34.56,-9.56,-19.25,0.02,0.01,0.8,0.61
10315,00:00:53.713,IMU6,0.14,0.16,9.82,0.0,0.0,0.0,27.38,-6.5,-15.69,0.01,0.0,0.78,0.62
10315,00:00:53.713,IMU7,0.42,0.15,9.83,0.0,0.0,0.0,19.75,-8.62,-17.81,0.02,-0.01,0.83,0.55
9415,00:00:53.715,IMU1,0.3,0.04,9.79,0.0,0.0,0.0,36.94,-9.88,-40.75,0.02,-0.01,0.79,0.61
9415,00:00:53.715,IMU2,0.2,0.14,9.83,0.0,0.0,0.0,36.06,-24.94,-46.06,0.01,0.0,0.88,0.47
9415,00:00:53.715,IMU3,0.2,0.08,9.81,0.0,0.0,0.0,23.75,-15.38,-41.5,0.01,-0.0,0.87,0.49
9415,00:00:53.715,IMU4,0.16,-0.02,9.88,0.0,0.0,0.0,8.25,-6.19,-25.88,0.01,-0.0,0.85,0.53
10316,00:00:53.719,IMU5,0.18,0.32,9.7,0.0,0.0,0.0,34.56,-9.56,-19.25,0.02,0.01,0.8,0.61
10316,00:00:53.719,IMU6,0.14,0.16,9.82,0.0,0.0,0.0,25.44,-5.12,-16.5,0.01,0.0,0.78,0.62
10316,00:00:53.719,IMU7,0.42,0.15,9.83,0.0,0.0,0.0,20.06,-8.62,-17.38,0.02,-0.01,0.83,0.55
10317,00:00:53.723,IMU5,0.18,0.32,9.7,0.0,0.0,0.0,34.56,-9.56,-19.25,0.02,0.01,0.8,0.61
10317,00:00:53.723,IMU6,0.14,0.16,9.82,0.0,0.0,0.0,25.44,-5.12,-16.5,0.01,0.0,0.78,0.62
10317,00:00:53.723,IMU7,0.42,0.15,9.83,0.0,0.0,0.0,20.06,-8.62,-17.38,0.02,-0.01,0.83,0.55
9416,00:00:53.722,IMU1,0.3,0.04,9.79,0.0,0.0,0.0,36.94,-9.88,-40.75,0.02,-0.01,0.79,0.61
9416,00:00:53.722,IMU2,0.2,0.14,9.83,0.0,0.0,0.0,36.06,-24.94,-46.06,0.01,0.0,0.88,0.47
9416,00:00:53.722,IMU3,0.2,0.08,9.81,0.0,0.0,0.0,23.75,-15.38,-41.5,0.01,-0.0,0.87,0.49
9416,00:00:53.722,IMU4,0.16,-0.02,9.88,0.0,0.0,0.0,9.31,-7.12,-25.44,0.01,-0.0,0.85,0.53
9417,00:00:53.725,IMU1,0.3,0.04,9.79,0.0,0.0,0.0,36.94,-9.88,-40.75,0.02,-0.01,0.79,0.61
9417,00:00:53.725,IMU2,0.2,0.14,9.79,0.0,0.0,0.0,36.06,-24.94,-46.06,0.01,0.0,0.88,0.47
9417,00:00:53.725,IMU3,0.2,0.08,9.81,0.0,0.0,0.0,23.75,-15.38,-41.5,0.01,-0.0,0.87,0.49
9417,00:00:53.725,IMU4,0.16,-0.02,9.88,0.0,0.0,0.0,9.31,-7.12,-25.44,0.01,-0.0,0.85,0.53
10318,00:00:53.729,IMU5,0.22,0.32,9.75,0.0,0.0,0.0,34.56,-9.56,-19.25,0.02,0.01,0.8,0.61
10318,00:00:53.729,IMU6,0.14,0.16,9.82,0.0,0.0,0.0,25.44,-5.12,-16.5,0.01,0.0,0.78,0.62
10318,00:00:53.729,IMU7,0.42,0.15,9.83,-0.0,0.0,0.0,20.06,-8.62,-17.38,0.02,-0.01,0.83,0.55
10319,00:00:53.732,IMU5,0.22,0.32,9.75,0.0,0.0,0.0,33.94,-10.12,-20.25,0.02,0.01,0.8,0.61
10319,00:00:53.732,IMU6,0.14,0.16,9.82,0.0,0.0,0.0,25.44,-5.12,-16.5,0.01,0.0,0.78,0.62
10319,00:00:53.732,IMU7,0.42,0.15,9.83,-0.0,0.0,0.0,20.06,-8.62,-17.38,0.02,-0.01,0.83,0.55
9418,00:00:53.731,IMU1,0.3,0.04,9.79,0.0,0.0,0.0,36.94,-9.88,-40.75,0.02,-0.01,0.79,0.61
9418,00:00:53.731,IMU2,0.2,0.14,9.79,0.0,0.0,0.0,33.75,-24.19,-45.62,0.01,0.0,0.88,0.47
9418,00:00:53.731,IMU3,0.2,0.05,9.77,0.0,0.0,0.0,23.75,-15.38,-41.5,0.01,-0.0,0.87,0.49
9418,00:00:53.731,IMU4,0.16,-0.02,9.88,0.0,0.0,0.0,9.31,-7.12,-25.44,0.01,-0.0,0.85,0.53
10320,00:00:53.736,IMU5,0.22,0.32,9.75,0.0,0.0,0.0,33.94,-10.12,-20.25,0.02,0.01,0.8,0.61
10320,00:00:53.736,IMU6,0.14,0.16,9.82,0.0,0.0,0.0,25.44,-5.12,-16.5,0.01,0.0,0.78,0.62
10320,00:00:53.736,IMU7,0.42,0.15,9.83,0.0,0.0,0.01,20.06,-8.62,-17.38,0.02,-0.01,0.83,0.55
10321,00:00:53.739,IMU5,0.22,0.32,9.75,0.0,0.0,0.0,33.94,-10.12,-20.25,0.02,0.01,0.8,0.61
10321,00:00:53.739,IMU6,0.14,0.16,9.82,0.0,0.0,0.0,25.44,-5.12,-16.5,0.01,0.0,0.78,0.62
10321,00:00:53.739,IMU7,0.42,0.15,9.83,0.0,0.0,0.01,20.06,-8.62,-17.38,0.02,-0.01,0.83,0.55
9419,00:00:53.735,IMU1,0.38,0.12,9.83,0.0,0.0,0.0,36.94,-9.88,-40.75,0.02,-0.01,0.79,0.61
9419,00:00:53.735,IMU2,0.2,0.14,9.79,-0.01,0.0,0.0,33.75,-24.19,-45.62,0.01,0.0,0.88,0.47
9419,00:00:53.735,IMU3,0.2,0.05,9.77,0.0,0.0,0.0,25.19,-16.75,-43.88,0.01,-0.0,0.87,0.49
9419,00:00:53.735,IMU4,0.16,-0.02,9.88,0.0,0.0,0.0,9.31,-7.12,-25.44,0.01,-0.0,0.85,0.53
10322,00:00:53.747,IMU5,0.11,0.36,9.82,0.0,0.0,0.0,33.94,-10.12,-20.25,0.02,0.01,0.8,0.61
10322,00:00:53.747,IMU6,0.1,0.09,9.7,0.0,0.0,0.0,25.44,-5.12,-16.5,0.01,0.0,0.78,0.62
10322,00:00:53.747,IMU7,0.42,0.15,9.87,0.0,0.0,0.01,20.06,-8.62,-17.38,0.02,-0.01,0.83,0.55
9420,00:00:53.744,IMU1,0.38,0.12,9.83,0.0,0.0,0.0,35.25,-10.06,-37.94,0.02,-0.01,0.79,0.61
9420,00:00:53.744,IMU2,0.2,0.14,9.79,-0.01,0.0,0.0,33.75,-24.19,-45.62,0.01,0.0,0.88,0.47
9420,00:00:53.744,IMU3,0.2,0.05,9.77,0.0,0.0,0.0,25.19,-16.75,-43.88,0.01,-0.0,0.87,0.49
9420,00:00:53.744,IMU4,0.08,0.06,9.76,0.0,0.0,0.0,9.31,-7.12,-25.44,0.01,-0.0,0.85,0.53
9421,00:00:53.748,IMU1,0.38,0.12,9.83,0.0,0.0,0.0,35.25,-10.06,-37.94,0.02,-0.01,0.79,0.61
9421,00:00:53.748,IMU2,0.2,0.14,9.79,0.0,0.0,0.01,33.75,-24.19,-45.62,0.01,0.0,0.88,0.47
9421,00:00:53.748,IMU3,0.2,0.05,9.77,0.0,0.0,0.0,25.19,-16.75,-43.88,0.01,-0.0,0.87,0.49
9421,00:00:53.748,IMU4,0.08,0.06,9.76,0.0,0.0,0.0,9.31,-7.12,-25.44,0.01,-0.0,0.85,0.53
10323,00:00:53.750,IMU5,0.11,0.36,9.82,0.0,0.0,0.0,33.62,-8.44,-19.75,0.02,0.01,0.8,0.61
10323,00:00:53.750,IMU6,0.1,0.09,9.7,0.0,0.0,0.0,25.44,-5.12,-16.5,0.01,0.0,0.78,0.62
10323,00:00:53.750,IMU7,0.42,0.15,9.87,0.0,0.0,0.01,21.25,-10.06,-17.56,0.02,-0.01,0.83,0.55
10324,00:00:53.755,IMU5,0.11,0.36,9.82,0.0,0.0,0.0,33.62,-8.44,-19.75,0.02,0.01,0.8,0.61
10324,00:00:53.755,IMU6,0.1,0.09,9.7,0.0,0.0,0.0,27.62,-6.06,-17.81,0.01,0.0,0.78,0.62
10324,00:00:53.755,IMU7,0.42,0.15,9.87,-0.0,-0.0,0.0,21.25,-10.06,-17.56,0.02,-0.01,0.83,0.55
10325,00:00:53.758,IMU5,0.11,0.36,9.82,0.0,0.0,0.0,33.62,-8.44,-19.75,0.02,0.01,0.8,0.61
10325,00:00:53.758,IMU6,0.1,0.09,9.7,0.0,0.0,0.0,27.62,-6.06,-17.81,0.01,0.0,0.78,0.62
10325,00:00:53.758,IMU7,0.42,0.15,9.87,-0.0,-0.0,0.0,21.25,-10.06,-17.56,0.02,-0.01,0.83,0.55
9422,00:00:53.755,IMU1,0.38,0.12,9.83,0.0,0.0,0.0,35.25,-10.06,-37.94,0.02,-0.01,0.79,0.61
9422,00:00:53.755,IMU2,0.2,0.14,9.79,0.0,0.0,0.01,33.75,-24.19,-45.62,0.01,0.0,0.88,0.47
9422,00:00:53.755,IMU3,0.2,0.05,9.77,0.0,0.0,0.0,25.19,-16.75,-43.88,0.01,-0.0,0.87,0.49
9422,00:00:53.755,IMU4,0.08,0.06,9.76,0.0,0.0,0.0,9.5,-5.81,-25.31,0.01,-0.0,0.85,0.53
9423,00:00:53.759,IMU1,0.38,0.12,9.83,0.0,0.0,0.0,35.25,-10.06,-37.94,0.02,-0.01,0.79,0.61
9423,00:00:53.759,IMU2,0.2,0.14,9.79,0.0,0.0,0.0,33.75,-24.19,-45.62,0.01,0.0,0.88,0.47
9423,00:00:53.759,IMU3,0.2,0.05,9.77,0.0,0.0,0.0,25.19,-16.75,-43.88,0.01,-0.0,0.87,0.49
9423,00:00:53.759,IMU4,0.08,0.06,9.76,0.0,0.0,0.0,9.5,-5.81,-25.31,0.01,-0.0,0.85,0.53
10326,00:00:53.765,IMU5,0.11,0.36,9.82,0.0,0.0,0.0,33.62,-8.44,-19.75,0.02,0.01,0.8,0.61
10326,00:00:53.765,IMU6,0.1,0.09,9.7,0.0,0.0,0.0,27.62,-6.06,-17.81,0.01,0.0,0.78,0.62
10326,00:00:53.765,IMU7,0.42,0.15,9.87,-0.0,-0.0,0.0,21.25,-10.06,-17.56,0.02,-0.01,0.83,0.55
9424,00:00:53.764,IMU1,0.38,0.12,9.83,0.0,0.0,0.0,35.25,-10.06,-37.94,0.02,-0.01,0.79,0.61
9424,00:00:53.764,IMU2,0.2,0.14,9.79,0.0,0.0,0.0,33.75,-24.19,-45.62,0.01,0.0,0.88,0.47
9424,00:00:53.764,IMU3,0.2,0.05,9.77,0.0,0.0,0.0,25.19,-16.75,-43.88,0.01,-0.0,0.87,0.49
9424,00:00:53.764,IMU4,0.08,0.06,9.76,0.0,0.0,0.0,9.5,-5.81,-25.31,0.01,-0.0,0.85,0.53
10327,00:00:53.769,IMU5,0.11,0.36,9.82,0.0,0.0,0.0,33.62,-8.44,-19.75,0.02,0.01,0.8,0.61
10327,00:00:53.769,IMU6,0.1,0.09,9.7,0.0,0.0,0.0,27.62,-6.06,-17.81,0.01,0.0,0.78,0.62
10327,00:00:53.769,IMU7,0.42,0.15,9.87,-0.0,-0.0,0.0,21.25,-10.06,-17.56,0.02,-0.01,0.83,0.55
9425,00:00:53.768,IMU1,0.38,0.12,9.83,0.0,0.0,0.0,35.25,-10.06,-37.94,0.02,-0.01,0.79,0.61
9425,00:00:53.768,IMU2,0.2,0.14,9.79,-0.0,0.0,0.0,33.75,-24.19,-45.62,0.01,0.0,0.88,0.47
9425,00:00:53.768,IMU3,0.2,0.05,9.77,0.0,0.0,0.0,25.19,-16.75,-43.88,0.01,-0.0,0.87,0.49
9425,00:00:53.768,IMU4,0.08,0.06,9.76,0.0,0.0,0.0,9.5,-5.81,-25.31,0.01,-0.0,0.85,0.53
10328,00:00:53.775,IMU5,0.11,0.36,9.82,0.0,0.0,0.0,33.62,-8.44,-19.75,0.02,0.01,0.8,0.61
10328,00:00:53.775,IMU6,0.1,0.09,9.7,0.0,0.0,0.0,27.62,-6.06,-17.81,0.01,0.0,0.78,0.62
10328,00:00:53.775,IMU7,0.42,0.15,9.87,-0.0,0.0,0.0,21.25,-10.06,-17.56,0.02,-0.01,0.83,0.55
9426,00:00:53.774,IMU1,0.38,0.12,9.83,0.0,0.0,0.0,35.25,-10.06,-37.94,0.02,-0.01,0.79,0.61
9426,00:00:53.774,IMU2,0.2,0.14,9.79,-0.0,0.0,0.0,33.75,-24.19,-45.62,0.01,0.0,0.88,0.47
9426,00:00:53.774,IMU3,0.2,0.12,9.81,0.0,0.0,0.0,25.19,-16.75,-43.88,0.01,-0.0,0.87,0.49
9426,00:00:53.774,IMU4,0.08,0.06,9.76,0.0,0.0,0.0,9.5,-5.81,-25.31,0.01,-0.0,0.85,0.53
10329,00:00:53.778,IMU5,0.11,0.36,9.82,0.0,0.0,0.0,33.62,-8.44,-19.75,0.02,0.01,0.8,0.61
10329,00:00:53.778,IMU6,0.1,0.09,9.7,0.0,0.0,0.0,27.62,-6.06,-17.81,0.01,0.0,0.78,0.62
10329,00:00:53.778,IMU7,0.42,0.15,9.87,-0.0,0.0,0.0,21.25,-10.06,-17.56,0.02,-0.01,0.83,0.55
9427,00:00:53.778,IMU1,0.38,0.12,9.83,0.0,0.0,0.0,35.25,-10.06,-37.94,0.02,-0.01,0.79,0.61
9427,00:00:53.778,IMU2,0.2,0.14,9.79,0.0,-0.0,-0.0,33.75,-24.19,-45.62,0.01,0.0,0.88,0.47
9427,00:00:53.778,IMU3,0.2,0.12,9.81,0.0,0.0,0.0,24.5,-16.06,-42.25,0.01,-0.0,0.87,0.49
9427,00:00:53.778,IMU4,0.08,0.06,9.76,0.0,0.0,0.0,9.5,-5.81,-25.31,0.01,-0.0,0.85,0.53
9428,00:00:53.784,IMU1,0.38,0.12,9.83,0.0,0.0,0.0,35.25,-10.06,-37.94,0.02,-0.01,0.79,0.61
9428,00:00:53.784,IMU2,0.2,0.14,9.79,0.0,-0.0,-0.0,33.75,-24.19,-45.62,0.01,0.0,0.88,0.47
9428,00:00:53.784,IMU3,0.2,0.12,9.81,0.0,0.0,0.0,24.5,-16.06,-42.25,0.01,-0.0,0.87,0.49
9428,00:00:53.784,IMU4,0.2,0.06,9.84,0.0,0.0,0.0,9.5,-5.81,-25.31,0.01,-0.0,0.85,0.53
9429,00:00:53.788,IMU1,0.38,0.12,9.83,0.0,0.0,0.0,35.25,-10.06,-37.94,0.02,-0.01,0.79,0.61
9429,00:00:53.788,IMU2,0.2,0.11,9.79,0.0,-0.0,-0.0,33.75,-24.19,-45.62,0.01,0.0,0.88,0.47
9429,00:00:53.788,IMU3,0.2,0.12,9.81,0.0,0.0,0.0,24.5,-16.06,-42.25,0.01,-0.0,0.87,0.49
9429,00:00:53.788,IMU4,0.2,0.06,9.84,0.0,0.0,0.0,10.75,-4.25,-26.81,0.01,-0.0,0.85,0.53
9430,00:00:53.794,IMU1,0.38,0.12,9.83,0.0,0.0,0.0,35.25,-10.06,-37.94,0.02,-0.01,0.79,0.61
9430,00:00:53.794,IMU2,0.2,0.11,9.79,0.0,-0.0,-0.0,35.69,-24.94,-46.06,0.01,0.0,0.88,0.47
9430,00:00:53.794,IMU3,0.2,0.12,9.81,0.0,0.0,0.0,24.5,-16.06,-42.25,0.01,-0.0,0.87,0.49
9430,00:00:53.794,IMU4,0.2,0.06,9.84,0.0,0.0,0.0,10.75,-4.25,-26.81,0.01,-0.0,0.85,0.53
9431,00:00:53.798,IMU1,0.38,0.12,9.83,0.0,0.0,0.0,35.25,-10.06,-37.94,0.02,-0.01,0.79,0.61
9431,00:00:53.798,IMU2,0.2,0.11,9.79,-0.01,0.0,0.01,35.69,-24.94,-46.06,0.01,0.0,0.88,0.47
9431,00:00:53.798,IMU3,0.2,0.12,9.81,0.0,0.0,0.0,24.5,-16.06,-42.25,0.01,-0.0,0.87,0.49
9431,00:00:53.798,IMU4,0.2,0.06,9.84,0.0,0.0,0.0,10.75,-4.25,-26.81,0.01,-0.0,0.85,0.53
10330,00:00:53.784,IMU5,0.3,0.32,9.74,0.0,0.0,0.0,33.62,-8.44,-19.75,0.02,0.01,0.8,0.61
10330,00:00:53.784,IMU6,0.1,0.09,9.7,0.0,0.0,0.0,27.62,-6.06,-17.81,0.01,0.0,0.78,0.62
10330,00:00:53.784,IMU7,0.42,0.15,9.87,0.01,0.0,0.0,21.25,-10.06,-17.56,0.02,-0.01,0.83,0.55
10331,00:00:53.787,IMU5,0.3,0.32,9.74,0.0,0.0,0.0,33.62,-10.56,-20.62,0.02,0.01,0.8,0.61
10331,00:00:53.787,IMU6,0.1,0.09,9.7,0.0,0.0,0.0,27.62,-6.06,-17.81,0.01,0.0,0.78,0.62
10331,00:00:53.787,IMU7,0.42,0.15,9.87,0.01,0.0,0.0,21.25,-10.06,-17.56,0.02,-0.01,0.83,0.55
10332,00:00:53.795,IMU5,0.3,0.32,9.74,0.0,0.0,0.0,33.62,-10.56,-20.62,0.02,0.01,0.8,0.61
10332,00:00:53.795,IMU6,0.1,0.09,9.7,0.0,0.0,0.0,27.62,-6.06,-17.81,0.01,0.0,0.78,0.62
10332,00:00:53.795,IMU7,0.42,0.15,9.87,0.0,0.0,0.0,21.25,-10.06,-17.56,0.02,-0.01,0.83,0.55
10333,00:00:53.798,IMU5,0.3,0.32,9.74,0.0,0.0,0.0,33.62,-10.56,-20.62,0.02,0.01,0.8,0.61
10333,00:00:53.798,IMU6,0.1,0.09,9.7,0.0,0.0,0.0,27.62,-6.06,-17.81,0.01,0.0,0.78,0.62
10333,00:00:53.798,IMU7,0.42,0.15,9.87,0.0,0.0,0.0,21.25,-10.06,-17.56,0.02,-0.01,0.83,0.55
10334,00:00:53.804,IMU5,0.3,0.32,9.74,0.0,0.0,0.0,33.62,-10.56,-20.62,0.02,0.01,0.8,0.61
10334,00:00:53.804,IMU6,0.14,0.16,9.86,0.0,0.0,0.0,27.62,-6.06,-17.81,0.01,0.0,0.78,0.62
10334,00:00:53.804,IMU7,0.42,0.15,9.87,-0.0,-0.01,0.0,21.25,-10.06,-17.56,0.02,-0.01,0.83,0.55
9432,00:00:53.804,IMU1,0.38,0.12,9.83,0.0,0.0,0.0,35.25,-10.06,-37.94,0.02,-0.01,0.79,0.61
9432,00:00:53.804,IMU2,0.2,0.11,9.79,-0.01,0.0,0.01,35.69,-24.94,-46.06,0.01,0.0,0.88,0.47
9432,00:00:53.804,IMU3,0.2,-0.03,9.81,0.0,0.0,0.0,24.5,-16.06,-42.25,0.01,-0.0,0.87,0.49
9432,00:00:53.804,IMU4,0.2,0.06,9.84,0.0,0.0,0.0,10.75,-4.25,-26.81,0.01,-0.0,0.85,0.53
9433,00:00:53.808,IMU1,0.34,-0.03,9.79,0.0,0.0,0.0,35.25,-10.06,-37.94,0.02,-0.01,0.79,0.61
9433,00:00:53.808,IMU2,0.2,0.11,9.79,-0.0,0.0,-0.0,35.69,-24.94,-46.06,0.01,0.0,0.88,0.47
9433,00:00:53.808,IMU3,0.2,-0.03,9.81,0.0,0.0,0.0,26.75,-16.38,-43.0,0.01,-0.0,0.87,0.49
9433,00:00:53.808,IMU4,0.2,0.06,9.84,0.0,0.0,0.0,10.75,-4.25,-26.81,0.01,-0.0,0.85,0.53
9434,00:00:53.812,IMU1,0.34,-0.03,9.79,0.0,0.0,0.0,35.44,-10.94,-38.81,0.02,-0.01,0.79,0.61
9434,00:00:53.812,IMU2,0.2,0.11,9.79,-0.0,0.0,-0.0,35.69,-24.94,-46.06,0.01,0.0,0.88,0.47
9434,00:00:53.812,IMU3,0.2,-0.03,9.81,0.0,0.0,0.0,26.75,-16.38,-43.0,0.01,-0.0,0.87,0.49
9434,00:00:53.812,IMU4,0.2,0.06,9.84,0.0,0.0,0.0,10.75,-4.25,-26.81,0.01,-0.0,0.85,0.53
10335,00:00:53.807,IMU5,0.3,0.32,9.74,0.0,0.0,0.0,33.62,-10.56,-20.62,0.02,0.01,0.8,0.61
10335,00:00:53.807,IMU6,0.14,0.16,9.86,0.0,0.0,0.0,25.5,-6.06,-16.31,0.01,0.0,0.78,0.62
10335,00:00:53.807,IMU7,0.42,0.15,9.87,-0.0,-0.01,0.0,21.25,-10.06,-17.56,0.02,-0.01,0.83,0.55
10336,00:00:53.816,IMU5,0.3,0.32,9.74,0.0,0.0,0.0,33.62,-10.56,-20.62,0.02,0.01,0.8,0.61
10336,00:00:53.816,IMU6,0.14,0.16,9.86,0.0,0.0,0.0,25.5,-6.06,-16.31,0.01,0.0,0.78,0.62
10336,00:00:53.816,IMU7,0.38,0.15,9.83,-0.0,-0.01,0.0,21.25,-10.06,-17.56,0.02,-0.01,0.83,0.55
9435,00:00:53.816,IMU1,0.34,-0.03,9.79,0.0,0.0,0.0,35.44,-10.94,-38.81,0.02,-0.01,0.79,0.61
9435,00:00:53.816,IMU2,0.2,0.11,9.79,0.0,0.0,0.0,35.69,-24.94,-46.06,0.01,0.0,0.88,0.47
9435,00:00:53.816,IMU3,0.2,-0.03,9.81,0.0,0.0,0.0,26.75,-16.38,-43.0,0.01,-0.0,0.87,0.49
9435,00:00:53.816,IMU4,0.2,0.06,9.84,0.0,0.0,0.0,10.75,-4.25,-26.81,0.01,-0.0,0.85,0.53
10337,00:00:53.819,IMU5,0.3,0.32,9.74,0.0,0.0,0.0,33.62,-10.56,-20.62,0.02,0.01,0.8,0.61
10337,00:00:53.819,IMU6,0.14,0.16,9.86,0.0,0.0,0.0,25.5,-6.06,-16.31,0.01,0.0,0.78,0.62
10337,00:00:53.819,IMU7,0.38,0.15,9.83,-0.0,-0.01,0.0,21.31,-9.44,-18.75,0.02,-0.01,0.83,0.55
9436,00:00:53.822,IMU1,0.34,-0.03,9.79,0.0,0.0,0.0,35.44,-10.94,-38.81,0.02,-0.01,0.79,0.61
9436,00:00:53.822,IMU2,0.2,0.11,9.79,0.0,0.0,0.0,35.69,-24.94,-46.06,0.01,0.0,0.88,0.47
9436,00:00:53.822,IMU3,0.2,-0.03,9.81,0.0,0.0,0.0,26.75,-16.38,-43.0,0.01,-0.0,0.87,0.49
9436,00:00:53.822,IMU4,0.2,0.06,9.84,0.0,0.0,0.0,10.75,-4.25,-26.81,0.01,-0.0,0.85,0.53
9437,00:00:53.827,IMU1,0.34,-0.03,9.79,0.0,0.0,0.0,35.44,-10.94,-38.81,0.02,-0.01,0.79,0.61
9437,00:00:53.827,IMU2,0.12,0.14,9.76,0.0,0.0,0.0,35.69,-24.94,-46.06,0.01,0.0,0.88,0.47
9437,00:00:53.827,IMU3,0.2,-0.03,9.81,0.0,0.0,0.0,26.75,-16.38,-43.0,0.01,-0.0,0.87,0.49
9437,00:00:53.827,IMU4,0.2,0.06,9.84,0.0,0.0,0.0,10.75,-4.25,-26.81,0.01,-0.0,0.85,0.53
10338,00:00:53.829,IMU5,0.3,0.32,9.74,0.0,0.0,0.0,33.62,-10.56,-20.62,0.02,0.01,0.8,0.61
10338,00:00:53.829,IMU6,0.14,0.16,9.86,0.0,0.0,0.0,25.5,-6.06,-16.31,0.01,0.0,0.78,0.62
10338,00:00:53.829,IMU7,0.38,0.15,9.83,0.0,-0.0,0.0,21.31,-9.44,-18.75,0.02,-0.01,0.83,0.55
10339,00:00:53.832,IMU5,0.3,0.32,9.74,0.0,0.0,0.0,33.62,-10.56,-20.62,0.02,0.01,0.8,0.61
10339,00:00:53.832,IMU6,0.14,0.16,9.86,0.0,0.0,0.0,25.5,-6.06,-16.31,0.01,0.0,0.78,0.62
10339,00:00:53.832,IMU7,0.38,0.15,9.83,0.0,-0.0,0.0,21.31,-9.44,-18.75,0.02,-0.01,0.83,0.55
9438,00:00:53.832,IMU1,0.34,-0.03,9.79,0.0,0.0,0.0,35.44,-10.94,-38.81,0.02,-0.01,0.79,0.61
9438,00:00:53.832,IMU2,0.12,0.14,9.76,0.0,0.0,0.0,33.38,-23.75,-45.12,0.01,0.0,0.88,0.47
9438,00:00:53.832,IMU3,0.16,0.01,9.8,0.0,0.0,0.0,26.75,-16.38,-43.0,0.01,-0.0,0.87,0.49
9438,00:00:53.832,IMU4,0.2,0.06,9.84,0.0,0.0,0.0,10.75,-4.25,-26.81,0.01,-0.0,0.85,0.53
9439,00:00:53.836,IMU1,0.34,-0.03,9.79,0.0,0.0,0.0,35.44,-10.94,-38.81,0.02,-0.01,0.79,0.61
9439,00:00:53.836,IMU2,0.12,0.14,9.76,-0.0,0.0,0.0,33.38,-23.75,-45.12,0.01,0.0,0.88,0.47
9439,00:00:53.836,IMU3,0.16,0.01,9.8,0.0,0.0,0.0,25.5,-17.44,-45.5,0.01,-0.0,0.87,0.49
9439,00:00:53.836,IMU4,0.2,0.06,9.84,0.0,0.0,0.0,10.75,-4.25,-26.81,0.01,-0.0,0.85,0.53
10340,00:00:53.839,IMU5,0.3,0.32,9.74,0.0,0.0,0.0,33.62,-10.56,-20.62,0.02,0.01,0.8,0.61
10340,00:00:53.839,IMU6,0.14,0.16,9.86,0.0,0.0,0.0,25.5,-6.06,-16.31,0.01,0.0,0.78,0.62
10340,00:00:53.839,IMU7,0.38,0.15,9.83,-0.0,0.0,0.0,21.31,-9.44,-18.75,0.02,-0.01,0.83,0.55
9440,00:00:53.841,IMU1,0.34,-0.03,9.79,0.0,0.0,0.0,35.44,-10.94,-38.81,0.02,-0.01,0.79,0.61
9440,00:00:53.841,IMU2,0.12,0.14,9.76,-0.0,0.0,0.0,33.38,-23.75,-45.12,0.01,0.0,0.88,0.47
9440,00:00:53.841,IMU3,0.16,0.01,9.8,0.0,0.0,0.0,25.5,-17.44,-45.5,0.01,-0.0,0.87,0.49
9440,00:00:53.841,IMU4,0.2,0.02,9.8,0.0,0.0,0.0,10.75,-4.25,-26.81,0.01,-0.0,0.85,0.53
10341,00:00:53.842,IMU5,0.3,0.32,9.74,0.0,0.0,0.0,33.62,-10.56,-20.62,0.02,0.01,0.8,0.61
10341,00:00:53.842,IMU6,0.14,0.16,9.86,0.0,0.0,0.0,25.5,-6.06,-16.31,0.01,0.0,0.78,0.62
10341,00:00:53.842,IMU7,0.38,0.15,9.83,-0.0,0.0,0.0,21.31,-9.44,-18.75,0.02,-0.01,0.83,0.55
9441,00:00:53.846,IMU1,0.34,-0.03,9.79,0.0,0.0,0.0,35.44,-10.94,-38.81,0.02,-0.01,0.79,0.61
9441,00:00:53.846,IMU2,0.12,0.14,9.76,-0.01,0.01,-0.0,33.38,-23.75,-45.12,0.01,0.0,0.88,0.47
9441,00:00:53.846,IMU3,0.16,0.01,9.8,0.0,0.0,0.0,25.5,-17.44,-45.5,0.01,-0.0,0.87,0.49
9441,00:00:53.846,IMU4,0.2,0.02,9.8,0.0,0.0,0.0,7.38,-6.56,-26.06,0.01,-0.0,0.85,0.53
10342,00:00:53.849,IMU5,0.3,0.32,9.74,0.0,0.0,0.0,33.62,-10.56,-20.62,0.02,0.01,0.8,0.61
10342,00:00:53.849,IMU6,0.18,0.24,9.79,0.0,0.0,0.0,25.5,-6.06,-16.31,0.01,0.0,0.78,0.62
10342,00:00:53.849,IMU7,0.42,0.11,9.79,-0.0,0.0,0.0,21.31,-9.44,-18.75,0.02,-0.01,0.83,0.55
9442,00:00:53.851,IMU1,0.34,-0.03,9.79,0.0,0.0,0.0,35.44,-10.94,-38.81,0.02,-0.01,0.79,0.61
9442,00:00:53.851,IMU2,0.12,0.14,9.76,-0.01,0.01,-0.0,33.38,-23.75,-45.12,0.01,0.0,0.88,0.47
9442,00:00:53.851,IMU3,0.16,0.01,9.8,0.0,0.0,0.0,25.5,-17.44,-45.5,0.01,-0.0,0.87,0.49
9442,00:00:53.851,IMU4,0.2,0.02,9.8,0.0,0.0,0.0,7.38,-6.56,-26.06,0.01,-0.0,0.85,0.53
9443,00:00:53.856,IMU1,0.41,0.01,9.83,0.0,0.0,0.0,35.44,-10.94,-38.81,0.02,-0.01,0.79,0.61
9443,00:00:53.856,IMU2,0.12,0.14,9.76,-0.0,0.0,-0.0,33.38,-23.75,-45.12,0.01,0.0,0.88,0.47
9443,00:00:53.856,IMU3,0.16,0.01,9.8,0.0,0.0,0.0,25.5,-17.44,-45.5,0.01,-0.0,0.87,0.49
9443,00:00:53.856,IMU4,0.2,0.02,9.8,0.0,0.0,0.0,7.38,-6.56,-26.06,0.01,-0.0,0.85,0.53
9444,00:00:53.862,IMU1,0.41,0.01,9.83,0.0,0.0,0.0,36.75,-11.62,-39.06,0.02,-0.01,0.79,0.61
9444,00:00:53.862,IMU2,0.12,0.14,9.76,-0.0,0.0,-0.0,33.38,-23.75,-45.12,0.01,0.0,0.88,0.47
9444,00:00:53.862,IMU3,0.16,0.01,9.8,0.0,0.0,0.0,25.5,-17.44,-45.5,0.01,-0.0,0.87,0.49
9444,00:00:53.862,IMU4,0.2,0.02,9.8,0.0,0.0,0.0,7.38,-6.56,-26.06,0.01,-0.0,0.85,0.53
10343,00:00:53.852,IMU5,0.3,0.32,9.74,0.0,0.0,0.0,33.62,-10.56,-20.62,0.02,0.01,0.8,0.61
10343,00:00:53.852,IMU6,0.18,0.24,9.79,0.0,0.0,0.0,25.5,-6.06,-16.31,0.01,0.0,0.78,0.62
10343,00:00:53.852,IMU7,0.42,0.11,9.79,0.0,0.0,-0.0,21.31,-9.44,-18.75,0.02,-0.01,0.83,0.55
10344,00:00:53.856,IMU5,0.18,0.32,9.78,0.0,0.0,0.0,33.62,-10.56,-20.62,0.02,0.01,0.8,0.61
10344,00:00:53.856,IMU6,0.18,0.24,9.79,0.0,0.0,0.0,25.56,-5.56,-17.06,0.01,0.0,0.78,0.62
10344,00:00:53.856,IMU7,0.42,0.11,9.79,0.0,0.0,-0.0,21.19,-8.69,-17.12,0.02,-0.01,0.83,0.55
10345,00:00:53.859,IMU5,0.18,0.32,9.78,0.0,0.0,0.0,32.62,-9.75,-20.5,0.02,0.01,0.8,0.61
10345,00:00:53.859,IMU6,0.18,0.24,9.79,0.0,0.0,0.0,25.56,-5.56,-17.06,0.01,0.0,0.78,0.62
10345,00:00:53.859,IMU7,0.42,0.11,9.79,0.0,0.0,-0.0,21.19,-8.69,-17.12,0.02,-0.01,0.83,0.55
10346,00:00:53.866,IMU5,0.18,0.32,9.78,0.0,0.0,0.0,32.62,-9.75,-20.5,0.02,0.01,0.8,0.61
10346,00:00:53.866,IMU6,0.18,0.24,9.79,0.0,0.0,0.0,25.56,-5.56,-17.06,0.01,0.0,0.78,0.62
10346,00:00:53.866,IMU7,0.42,0.11,9.79,-0.0,0.0,0.0,21.19,-8.69,-17.12,0.02,-0.01,0.83,0.55
9445,00:00:53.866,IMU1,0.41,0.01,9.83,0.0,0.0,0.0,36.75,-11.62,-39.06,0.02,-0.01,0.79,0.61
9445,00:00:53.866,IMU2,0.12,0.14,9.76,0.0,-0.0,-0.0,33.38,-23.75,-45.12,0.01,0.0,0.88,0.47
9445,00:00:53.866,IMU3,0.16,0.01,9.8,0.0,0.0,0.0,25.5,-17.44,-45.5,0.01,-0.0,0.87,0.49
9445,00:00:53.866,IMU4,0.2,0.02,9.8,0.0,0.0,0.0,7.38,-6.56,-26.06,0.01,-0.0,0.85,0.53
10347,00:00:53.869,IMU5,0.18,0.32,9.78,0.0,0.0,0.0,32.62,-9.75,-20.5,0.02,0.01,0.8,0.61
10347,00:00:53.869,IMU6,0.18,0.24,9.79,0.0,0.0,0.0,25.56,-5.56,-17.06,0.01,0.0,0.78,0.62
10347,00:00:53.869,IMU7,0.42,0.11,9.79,-0.0,0.0,0.0,21.19,-8.69,-17.12,0.02,-0.01,0.83,0.55
9446,00:00:53.872,IMU1,0.41,0.01,9.83,0.0,0.0,0.0,36.75,-11.62,-39.06,0.02,-0.01,0.79,0.61
9446,00:00:53.872,IMU2,0.12,0.14,9.76,0.0,-0.0,-0.0,33.38,-23.75,-45.12,0.01,0.0,0.88,0.47
9446,00:00:53.872,IMU3,0.16,0.05,9.77,0.0,0.0,0.0,25.5,-17.44,-45.5,0.01,-0.0,0.87,0.49
9446,00:00:53.872,IMU4,0.2,0.02,9.8,0.0,0.0,0.0,7.38,-6.56,-26.06,0.01,-0.0,0.85,0.53
10348,00:00:53.876,IMU5,0.18,0.32,9.74,0.0,0.0,0.0,32.62,-9.75,-20.5,0.02,0.01,0.8,0.61
10348,00:00:53.876,IMU6,0.18,0.24,9.79,0.0,0.0,0.0,25.56,-5.56,-17.06,0.01,0.0,0.78,0.62
10348,00:00:53.876,IMU7,0.42,0.11,9.79,-0.0,-0.01,0.0,21.19,-8.69,-17.12,0.02,-0.01,0.83,0.55
9447,00:00:53.876,IMU1,0.41,0.01,9.83,0.0,0.0,0.0,36.75,-11.62,-39.06,0.02,-0.01,0.79,0.61
9447,00:00:53.876,IMU2,0.12,0.14,9.76,0.0,-0.0,0.01,33.38,-23.75,-45.12,0.01,0.0,0.88,0.47
9447,00:00:53.876,IMU3,0.16,0.05,9.77,0.0,0.0,0.0,26.31,-18.12,-44.19,0.01,-0.0,0.87,0.49
9447,00:00:53.876,IMU4,0.2,0.02,9.8,0.0,0.0,0.0,7.38,-6.56,-26.06,0.01,-0.0,0.85,0.53
10349,00:00:53.879,IMU5,0.18,0.32,9.74,0.0,0.0,0.0,32.62,-9.75,-20.5,0.02,0.01,0.8,0.61
10349,00:00:53.879,IMU6,0.18,0.24,9.79,0.0,0.0,0.0,25.56,-5.56,-17.06,0.01,0.0,0.78,0.62
10349,00:00:53.879,IMU7,0.42,0.11,9.79,-0.0,-0.01,0.0,21.19,-8.69,-17.12,0.02,-0.01,0.83,0.55
9448,00:00:53.883,IMU1,0.41,0.01,9.83,0.0,0.0,0.0,36.75,-11.62,-39.06,0.02,-0.01,0.79,0.61
9448,00:00:53.883,IMU2,0.12,0.14,9.76,0.0,-0.0,0.01,33.38,-23.75,-45.12,0.01,0.0,0.88,0.47
9448,00:00:53.883,IMU3,0.16,0.05,9.77,0.0,0.0,0.0,26.31,-18.12,-44.19,0.01,-0.0,0.87,0.49
9448,00:00:53.883,IMU4,0.2,0.02,9.8,0.0,0.0,0.0,7.38,-6.56,-26.06,0.01,-0.0,0.85,0.53
10350,00:00:53.886,IMU5,0.18,0.32,9.74,0.0,0.0,0.0,33.19,-9.19,-19.44,0.02,0.01,0.8,0.61
10350,00:00:53.886,IMU6,0.18,0.24,9.79,0.0,0.0,0.0,25.56,-5.56,-17.06,0.01,0.0,0.78,0.62
10350,00:00:53.886,IMU7,0.42,0.11,9.79,-0.0,-0.0,0.0,21.19,-8.69,-17.12,0.02,-0.01,0.83,0.55
9449,00:00:53.886,IMU1,0.41,0.01,9.83,0.0,0.0,0.0,36.75,-11.62,-39.06,0.02,-0.01,0.79,0.61
9449,00:00:53.886,IMU2,0.16,0.11,9.79,0.0,-0.0,0.01,33.38,-23.75,-45.12,0.01,0.0,0.88,0.47
9449,00:00:53.886,IMU3,0.16,0.05,9.77,0.0,0.0,0.0,26.31,-18.12,-44.19,0.01,-0.0,0.87,0.49
9449,00:00:53.886,IMU4,0.2,0.02,9.8,0.0,0.0,0.0,7.38,-6.56,-26.06,0.01,-0.0,0.85,0.53
10351,00:00:53.889,IMU5,0.18,0.32,9.74,0.0,0.0,0.0,33.19,-9.19,-19.44,0.02,0.01,0.8,0.61
10351,00:00:53.889,IMU6,0.18,0.24,9.79,0.0,0.0,0.0,25.56,-5.56,-17.06,0.01,0.0,0.78,0.62
10351,00:00:53.889,IMU7,0.42,0.11,9.79,-0.0,-0.0,0.0,21.19,-8.69,-17.12,0.02,-0.01,0.83,0.55
10352,00:00:53.895,IMU5,0.18,0.32,9.74,0.0,0.0,0.0,33.19,-9.19,-19.44,0.02,0.01,0.8,0.61
10352,00:00:53.895,IMU6,0.14,0.16,9.75,0.0,0.0,0.0,25.56,-5.56,-17.06,0.01,0.0,0.78,0.62
10352,00:00:53.895,IMU7,0.42,0.11,9.79,-0.01,-0.0,-0.01,21.19,-8.69,-17.12,0.02,-0.01,0.83,0.55
9450,00:00:53.894,IMU1,0.41,0.01,9.83,0.0,0.0,0.0,36.75,-11.62,-39.06,0.02,-0.01,0.79,0.61
9450,00:00:53.894,IMU2,0.16,0.11,9.79,0.0,-0.0,0.01,34.19,-26.0,-45.75,0.01,0.0,0.88,0.47
9450,00:00:53.894,IMU3,0.16,0.05,9.77,0.0,0.0,0.0,26.31,-18.12,-44.19,0.01,-0.0,0.87,0.49
9450,00:00:53.894,IMU4,0.16,0.06,9.84,0.0,0.0,0.0,7.38,-6.56,-26.06,0.01,-0.0,0.85,0.53
9451,00:00:53.897,IMU1,0.41,0.01,9.83,0.0,0.0,0.0,36.75,-11.62,-39.06,0.02,-0.01,0.79,0.61
9451,00:00:53.897,IMU2,0.16,0.11,9.79,0.0,-0.0,-0.0,34.19,-26.0,-45.75,0.01,0.0,0.88,0.47
9451,00:00:53.897,IMU3,0.16,0.05,9.77,0.0,0.0,0.0,26.31,-18.12,-44.19,0.01,-0.0,0.87,0.49
9451,00:00:53.897,IMU4,0.16,0.06,9.84,0.0,0.0,0.0,10.62,-6.38,-26.5,0.01,-0.0,0.85,0.53
10353,00:00:53.899,IMU5,0.18,0.32,9.74,0.0,0.0,0.0,33.19,-9.19,-19.44,0.02,0.01,0.8,0.61
10353,00:00:53.899,IMU6,0.14,0.16,9.75,0.0,0.0,0.0,25.88,-6.19,-15.62,0.01,0.0,0.78,0.62
10353,00:00:53.899,IMU7,0.42,0.11,9.79,-0.01,-0.0,-0.01,21.19,-8.69,-17.12,0.02,-0.01,0.83,0.55
9452,00:00:53.902,IMU1,0.41,0.01,9.83,0.0,0.0,0.0,36.75,-11.62,-39.06,0.02,-0.01,0.79,0.61
9452,00:00:53.902,IMU2,0.16,0.11,9.79,0.0,-0.0,-0.0,34.19,-26.0,-45.75,0.01,0.0,0.88,0.47
9452,00:00:53.902,IMU3,0.16,0.05,9.77,0.0,0.0,0.0,26.31,-18.12,-44.19,0.01,-0.0,0.87,0.49
9452,00:00:53.902,IMU4,0.16,0.06,9.84,0.0,0.0,0.0,10.62,-6.38,-26.5,0.01,-0.0,0.85,0.53
10354,00:00:53.904,IMU5,0.15,0.29,9.82,0.0,0.0,0.0,33.19,-9.19,-19.44,0.02,0.01,0.8,0.61
10354,00:00:53.904,IMU6,0.14,0.16,9.75,0.0,0.0,0.0,25.88,-6.19,-15.62,0.01,0.0,0.78,0.62
10354,00:00:53.904,IMU7,0.42,0.11,9.79,0.0,0.0,0.0,21.19,-8.69,-17.12,0.02,-0.01,0.83,0.55
9453,00:00:53.906,IMU1,0.41,0.01,9.83,0.0,0.0,0.0,36.75,-11.62,-39.06,0.02,-0.01,0.79,0.61
9453,00:00:53.906,IMU2,0.16,0.11,9.79,0.01,-0.0,-0.01,34.19,-26.0,-45.75,0.01,0.0,0.88,0.47
9453,00:00:53.906,IMU3,0.16,0.05,9.77,0.0,0.0,0.0,26.31,-18.12,-44.19,0.01,-0.0,0.87,0.49
9453,00:00:53.906,IMU4,0.16,0.06,9.84,0.0,0.0,0.0,10.62,-6.38,-26.5,0.01,-0.0,0.85,0.53
9454,00:00:53.911,IMU1,0.41,0.01,9.83,0.0,0.0,0.0,36.75,-11.62,-39.06,0.02,-0.01,0.79,0.61
9454,00:00:53.911,IMU2,0.16,0.11,9.79,0.01,-0.0,-0.01,34.19,-26.0,-45.75,0.01,0.0,0.88,0.47
9454,00:00:53.911,IMU3,0.16,0.05,9.81,0.0,0.0,0.0,26.31,-18.12,-44.19,0.01,-0.0,0.87,0.49
9454,00:00:53.911,IMU4,0.16,0.06,9.84,0.0,0.0,0.0,10.62,-6.38,-26.5,0.01,-0.0,0.85,0.53
10355,00:00:53.907,IMU5,0.15,0.29,9.82,0.0,0.0,0.0,34.62,-9.62,-20.25,0.02,0.01,0.8,0.61
10355,00:00:53.907,IMU6,0.14,0.16,9.75,0.0,0.0,0.0,25.88,-6.19,-15.62,0.01,0.0,0.78,0.62
10355,00:00:53.907,IMU7,0.42,0.11,9.79,0.0,0.0,0.0,21.19,-8.69,-17.12,0.02,-0.01,0.83,0.55
10356,00:00:53.912,IMU5,0.15,0.29,9.82,0.0,0.0,0.0,34.62,-9.62,-20.25,0.02,0.01,0.8,0.61
10356,00:00:53.912,IMU6,0.14,0.16,9.75,0.0,0.0,0.0,25.88,-6.19,-15.62,0.01,0.0,0.78,0.62
10356,00:00:53.912,IMU7,0.34,0.19,9.71,0.0,0.0,0.0,21.19,-8.69,-17.12,0.02,-0.01,0.83,0.55
9455,00:00:53.915,IMU1,0.34,0.01,9.75,0.0,0.0,0.0,36.75,-11.62,-39.06,0.02,-0.01,0.79,0.61
9455,00:00:53.915,IMU2,0.16,0.11,9.79,0.0,-0.0,0.0,34.19,-26.0,-45.75,0.01,0.0,0.88,0.47
9455,00:00:53.915,IMU3,0.16,0.05,9.81,0.0,0.0,0.0,24.06,-17.5,-43.06,0.01,-0.0,0.87,0.49
9455,00:00:53.915,IMU4,0.16,0.06,9.84,0.0,0.0,0.0,10.62,-6.38,-26.5,0.01,-0.0,0.85,0.53
10357,00:00:53.915,IMU5,0.15,0.29,9.82,0.0,0.0,0.0,34.62,-9.62,-20.25,0.02,0.01,0.8,0.61
10357,00:00:53.915,IMU6,0.14,0.16,9.75,0.0,0.0,0.0,25.88,-6.19,-15.62,0.01,0.0,0.78,0.62
10357,00:00:53.915,IMU7,0.34,0.19,9.71,0.0,0.0,0.0,20.62,-9.38,-18.69,0.02,-0.01,0.83,0.55
9456,00:00:53.921,IMU1,0.34,0.01,9.75,0.0,0.0,0.0,35.44,-9.81,-38.75,0.02,-0.01,0.79,0.61
9456,00:00:53.921,IMU2,0.16,0.11,9.79,0.0,-0.0,0.0,34.19,-26.0,-45.75,0.01,0.0,0.88,0.47
9456,00:00:53.921,IMU3,0.16,0.05,9.81,0.0,0.0,0.0,24.06,-17.5,-43.06,0.01,-0.0,0.87,0.49
9456,00:00:53.921,IMU4,0.16,0.1,9.88,0.0,0.0,0.0,10.62,-6.38,-26.5,0.01,-0.0,0.85,0.53
9457,00:00:53.926,IMU1,0.34,0.01,9.75,0.0,0.0,0.0,35.44,-9.81,-38.75,0.02,-0.01,0.79,0.61
9457,00:00:53.926,IMU2,0.16,0.11,9.79,0.0,0.0,-0.0,34.19,-26.0,-45.75,0.01,0.0,0.88,0.47
9457,00:00:53.926,IMU3,0.16,0.05,9.81,0.0,0.0,0.0,24.06,-17.5,-43.06,0.01,-0.0,0.87,0.49
9457,00:00:53.926,IMU4,0.16,0.1,9.88,0.0,0.0,0.0,8.38,-6.12,-24.0,0.01,-0.0,0.85,0.53
10358,00:00:53.920,IMU5,0.15,0.32,9.74,0.0,0.0,0.0,34.62,-9.62,-20.25,0.02,0.01,0.8,0.61
10358,00:00:53.920,IMU6,0.14,0.16,9.75,0.0,0.0,0.0,25.88,-6.19,-15.62,0.01,0.0,0.78,0.62
10358,00:00:53.920,IMU7,0.34,0.19,9.71,-0.0,0.0,0.0,20.62,-9.38,-18.69,0.02,-0.01,0.83,0.55
10359,00:00:53.924,IMU5,0.15,0.32,9.74,0.0,0.0,0.0,33.88,-10.0,-19.19,0.02,0.01,0.8,0.61
10359,00:00:53.924,IMU6,0.14,0.16,9.75,0.0,0.0,0.0,25.88,-6.19,-15.62,0.01,0.0,0.78,0.62
10359,00:00:53.924,IMU7,0.34,0.19,9.71,-0.0,0.0,0.0,20.62,-9.38,-18.69,0.02,-0.01,0.83,0.55
10360,00:00:53.930,IMU5,0.15,0.32,9.74,0.0,0.0,0.0,33.88,-10.0,-19.19,0.02,0.01,0.8,0.61
10360,00:00:53.930,IMU6,0.1,0.09,9.78,0.0,0.0,0.0,25.88,-6.19,-15.62,0.01,0.0,0.78,0.62
10360,00:00:53.930,IMU7,0.34,0.19,9.71,0.01,-0.0,0.0,20.62,-9.38,-18.69,0.02,-0.01,0.83,0.55
10361,00:00:53.933,IMU5,0.15,0.32,9.74,0.0,0.0,0.0,33.88,-10.0,-19.19,0.02,0.01,0.8,0.61
10361,00:00:53.933,IMU6,0.1,0.09,9.78,0.0,0.0,0.0,25.44,-6.38,-15.88,0.01,0.0,0.78,0.62
10361,00:00:53.933,IMU7,0.34,0.19,9.71,0.01,-0.0,0.0,20.62,-9.38,-18.69,0.02,-0.01,0.83,0.55
9458,00:00:53.932,IMU1,0.34,0.01,9.75,0.0,0.0,0.0,35.44,-9.81,-38.75,0.02,-0.01,0.79,0.61
9458,00:00:53.932,IMU2,0.16,0.11,9.79,0.0,0.0,-0.0,34.19,-26.0,-45.75,0.01,0.0,0.88,0.47
9458,00:00:53.932,IMU3,0.16,0.05,9.81,0.0,0.0,0.0,24.06,-17.5,-43.06,0.01,-0.0,0.87,0.49
9458,00:00:53.932,IMU4,0.16,0.1,9.88,0.0,0.0,0.0,8.38,-6.12,-24.0,0.01,-0.0,0.85,0.53
10362,00:00:53.938,IMU5,0.15,0.32,9.74,0.0,0.0,0.0,33.88,-10.0,-19.19,0.02,0.01,0.8,0.61
10362,00:00:53.938,IMU6,0.1,0.09,9.78,0.0,0.0,0.0,25.44,-6.38,-15.88,0.01,0.0,0.78,0.62
10362,00:00:53.938,IMU7,0.34,0.19,9.71,0.0,0.0,0.01,20.62,-9.38,-18.69,0.02,-0.01,0.83,0.55
10363,00:00:53.942,IMU5,0.15,0.32,9.74,0.0,0.0,0.0,33.88,-10.0,-19.19,0.02,0.01,0.8,0.61
10363,00:00:53.942,IMU6,0.1,0.09,9.78,0.0,0.0,0.0,25.44,-6.38,-15.88,0.01,0.0,0.78,0.62
10363,00:00:53.942,IMU7,0.34,0.19,9.71,0.0,0.0,0.01,20.62,-9.38,-18.69,0.02,-0.01,0.83,0.55
10364,00:00:53.947,IMU5,0.15,0.29,9.79,0.0,0.0,0.0,33.88,-10.0,-19.19,0.02,0.01,0.8,0.61
10364,00:00:53.947,IMU6,0.1,0.09,9.78,0.0,0.0,0.0,25.44,-6.38,-15.88,0.01,0.0,0.78,0.62
10364,00:00:53.947,IMU7,0.34,0.19,9.71,0.0,0.0,0.0,20.62,-9.38,-18.69,0.02,-0.01,0.83,0.55
9459,00:00:53.935,IMU1,0.34,0.01,9.75,0.0,0.0,0.0,35.44,-9.81,-38.75,0.02,-0.01,0.79,0.61
9459,00:00:53.935,IMU2,0.16,0.11,9.79,0.0,0.0,-0.01,34.19,-26.0,-45.75,0.01,0.0,0.88,0.47
9459,00:00:53.935,IMU3,0.16,0.05,9.81,0.0,0.0,0.0,24.06,-17.5,-43.06,0.01,-0.0,0.87,0.49
9459,00:00:53.935,IMU4,0.16,0.1,9.88,0.0,0.0,0.0,8.38,-6.12,-24.0,0.01,-0.0,0.85,0.53
9460,00:00:53.941,IMU1,0.34,0.01,9.75,0.0,0.0,0.0,35.44,-9.81,-38.75,0.02,-0.01,0.79,0.61
9460,00:00:53.941,IMU2,0.16,0.11,9.79,0.0,0.0,-0.01,34.19,-26.0,-45.75,0.01,0.0,0.88,0.47
9460,00:00:53.941,IMU3,0.16,0.08,9.8,0.0,0.0,0.0,24.06,-17.5,-43.06,0.01,-0.0,0.87,0.49
9460,00:00:53.941,IMU4,0.16,0.1,9.88,0.0,0.0,0.0,8.38,-6.12,-24.0,0.01,-0.0,0.85,0.53
9461,00:00:53.945,IMU1,0.34,0.01,9.75,0.0,0.0,0.0,35.44,-9.81,-38.75,0.02,-0.01,0.79,0.61
9461,00:00:53.945,IMU2,0.16,0.11,9.79,0.0,0.0,-0.0,34.19,-26.0,-45.75,0.01,0.0,0.88,0.47
9461,00:00:53.945,IMU3,0.16,0.08,9.8,0.0,0.0,0.0,24.06,-18.56,-42.56,0.01,-0.0,0.87,0.49
9461,00:00:53.945,IMU4,0.16,0.1,9.88,0.0,0.0,0.0,8.38,-6.12,-24.0,0.01,-0.0,0.85,0.53
9462,00:00:53.949,IMU1,0.34,0.01,9.75,0.0,0.0,0.0,35.44,-9.81,-38.75,0.02,-0.01,0.79,0.61
9462,00:00:53.949,IMU2,0.16,0.11,9.79,0.0,0.0,-0.0,34.19,-26.0,-45.75,0.01,0.0,0.88,0.47
9462,00:00:53.949,IMU3,0.16,0.08,9.8,0.0,0.0,0.0,24.06,-18.56,-42.56,0.01,-0.0,0.87,0.49
9462,00:00:53.949,IMU4,0.16,0.1,9.88,0.0,0.0,0.0,8.38,-6.12,-24.0,0.01,-0.0,0.85,0.53
10365,00:00:53.951,IMU5,0.15,0.29,9.79,0.0,0.0,0.0,33.5,-10.5,-19.56,0.02,0.01,0.8,0.61
10365,00:00:53.951,IMU6,0.1,0.09,9.78,0.0,0.0,0.0,25.44,-6.38,-15.88,0.01,0.0,0.78,0.62
10365,00:00:53.951,IMU7,0.34,0.19,9.71,0.0,0.0,0.0,20.62,-9.38,-18.69,0.02,-0.01,0.83,0.55
9463,00:00:53.955,IMU1,0.34,0.01,9.75,0.0,0.0,0.0,35.44,-9.81,-38.75,0.02,-0.01,0.79,0.61
9463,00:00:53.955,IMU2,0.2,0.14,9.79,0.0,0.0,-0.0,34.19,-26.0,-45.75,0.01,0.0,0.88,0.47
9463,00:00:53.955,IMU3,0.16,0.08,9.8,0.0,0.0,0.0,24.06,-18.56,-42.56,0.01,-0.0,0.87,0.49
9463,00:00:53.955,IMU4,0.16,0.1,9.88,0.0,0.0,0.0,8.38,-6.12,-24.0,0.01,-0.0,0.85,0.53
10366,00:00:53.957,IMU5,0.15,0.29,9.79,0.0,0.0,0.0,33.5,-10.5,-19.56,0.02,0.01,0.8,0.61
10366,00:00:53.957,IMU6,0.1,0.09,9.78,0.0,0.0,0.0,25.44,-6.38,-15.88,0.01,0.0,0.78,0.62
10366,00:00:53.957,IMU7,0.38,0.07,9.75,0.0,0.0,0.0,20.62,-9.38,-18.69,0.02,-0.01,0.83,0.55
10367,00:00:53.960,IMU5,0.15,0.29,9.79,0.0,0.0,0.0,33.5,-10.5,-19.56,0.02,0.01,0.8,0.61
10367,00:00:53.960,IMU6,0.1,0.09,9.78,0.0,0.0,0.0,25.44,-6.38,-15.88,0.01,0.0,0.78,0.62
10367,00:00:53.960,IMU7,0.38,0.07,9.75,0.0,-0.0,-0.0,20.62,-9.38,-18.69,0.02,-0.01,0.83,0.55
9464,00:00:53.963,IMU1,0.34,0.01,9.75,0.0,0.0,0.0,35.44,-9.81,-38.75,0.02,-0.01,0.79,0.61
9464,00:00:53.963,IMU2,0.2,0.14,9.79,0.0,0.0,-0.0,34.94,-26.69,-45.38,0.01,0.0,0.88,0.47
9464,00:00:53.963,IMU3,0.16,0.08,9.8,0.0,0.0,0.0,24.06,-18.56,-42.56,0.01,-0.0,0.87,0.49
9464,00:00:53.963,IMU4,0.16,0.1,9.8,0.0,0.0,0.0,8.38,-6.12,-24.0,0.01,-0.0,0.85,0.53
9465,00:00:53.967,IMU1,0.34,0.01,9.75,0.0,0.0,0.0,35.44,-9.81,-38.75,0.02,-0.01,0.79,0.61
9465,00:00:53.967,IMU2,0.2,0.14,9.79,0.0,-0.0,-0.0,34.94,-26.69,-45.38,0.01,0.0,0.88,0.47
9465,00:00:53.967,IMU3,0.16,0.08,9.8,0.0,0.0,0.0,24.06,-18.56,-42.56,0.01,-0.0,0.87,0.49
9465,00:00:53.967,IMU4,0.16,0.1,9.8,0.0,0.0,0.0,9.62,-6.0,-26.06,0.01,-0.0,0.85,0.53
10368,00:00:53.968,IMU5,0.15,0.29,9.79,0.0,0.0,0.0,33.5,-10.5,-19.56,0.02,0.01,0.8,0.61
10368,00:00:53.968,IMU6,0.1,0.09,9.78,0.0,0.0,0.0,25.44,-6.38,-15.88,0.01,0.0,0.78,0.62
10368,00:00:53.968,IMU7,0.38,0.07,9.75,0.0,-0.0,-0.0,20.94,-9.38,-17.94,0.02,-0.01,0.83,0.55
10369,00:00:53.971,IMU5,0.15,0.29,9.79,0.0,0.0,0.0,33.5,-10.5,-19.56,0.02,0.01,0.8,0.61
10369,00:00:53.971,IMU6,0.1,0.09,9.78,0.0,0.0,0.0,25.44,-5.44,-16.44,0.01,0.0,0.78,0.62
10369,00:00:53.971,IMU7,0.38,0.07,9.75,0.0,-0.0,-0.0,20.94,-9.38,-17.94,0.02,-0.01,0.83,0.55
10370,00:00:53.976,IMU5,0.15,0.29,9.79,0.0,0.0,0.0,33.5,-10.5,-19.56,0.02,0.01,0.8,0.61
10370,00:00:53.976,IMU6,0.1,0.09,9.78,0.0,0.0,0.0,25.44,-5.44,-16.44,0.01,0.0,0.78,0.62
10370,00:00:53.976,IMU7,0.38,0.07,9.75,0.0,0.0,0.0,20.94,-9.38,-17.94,0.02,-0.01,0.83,0.55
9466,00:00:53.974,IMU1,0.34,0.01,9.75,0.0,0.0,0.0,35.44,-9.81,-38.75,0.02,-0.01,0.79,0.61
9466,00:00:53.974,IMU2,0.2,0.14,9.79,0.0,-0.0,-0.0,34.94,-26.69,-45.38,0.01,0.0,0.88,0.47
9466,00:00:53.974,IMU3,0.16,0.12,9.8,0.0,0.0,0.0,24.06,-18.56,-42.56,0.01,-0.0,0.87,0.49
9466,00:00:53.974,IMU4,0.16,0.1,9.8,0.0,0.0,0.0,9.62,-6.0,-26.06,0.01,-0.0,0.85,0.53
10371,00:00:53.979,IMU5,0.15,0.29,9.79,0.0,0.0,0.0,33.5,-10.5,-19.56,0.02,0.01,0.8,0.61
10371,00:00:53.979,IMU6,0.1,0.09,9.78,0.0,0.0,0.0,25.44,-5.44,-16.44,0.01,0.0,0.78,0.62
10371,00:00:53.979,IMU7,0.38,0.07,9.75,0.0,0.0,0.0,20.94,-9.38,-17.94,0.02,-0.01,0.83,0.55
9467,00:00:53.978,IMU1,0.34,0.01,9.75,0.0,0.0,0.0,35.44,-9.81,-38.75,0.02,-0.01,0.79,0.61
9467,00:00:53.978,IMU2,0.2,0.14,9.79,-0.0,0.0,0.0,34.94,-26.69,-45.38,0.01,0.0,0.88,0.47
9467,00:00:53.978,IMU3,0.16,0.12,9.8,0.0,0.0,0.0,24.06,-18.56,-42.56,0.01,-0.0,0.87,0.49
9467,00:00:53.978,IMU4,0.16,0.1,9.8,0.0,0.0,0.0,9.62,-6.0,-26.06,0.01,-0.0,0.85,0.53
9468,00:00:53.983,IMU1,0.34,0.01,9.75,0.0,0.0,0.0,35.44,-9.81,-38.75,0.02,-0.01,0.79,0.61
9468,00:00:53.983,IMU2,0.2,0.14,9.79,-0.0,0.0,0.0,34.94,-26.69,-45.38,0.01,0.0,0.88,0.47
9468,00:00:53.983,IMU3,0.16,0.12,9.8,0.0,0.0,0.0,25.25,-16.06,-42.25,0.01,-0.0,0.87,0.49
9468,00:00:53.983,IMU4,0.16,0.1,9.8,0.0,0.0,0.0,9.62,-6.0,-26.06,0.01,-0.0,0.85,0.53
10372,00:00:53.986,IMU5,0.18,0.32,9.74,0.0,0.0,0.0,33.5,-10.5,-19.56,0.02,0.01,0.8,0.61
10372,00:00:53.986,IMU6,0.1,0.09,9.78,0.0,0.0,0.0,25.44,-5.44,-16.44,0.01,0.0,0.78,0.62
10372,00:00:53.986,IMU7,0.46,0.15,9.91,0.0,0.0,0.0,20.94,-9.38,-17.94,0.02,-0.01,0.83,0.55
9469,00:00:53.987,IMU1,0.38,0.12,9.75,0.0,0.0,0.0,35.44,-9.81,-38.75,0.02,-0.01,0.79,0.61
9469,00:00:53.987,IMU2,0.2,0.11,9.83,-0.0,0.0,0.0,34.94,-26.69,-45.38,0.01,0.0,0.88,0.47
9469,00:00:53.987,IMU3,0.16,0.12,9.8,0.0,0.0,0.0,25.25,-16.06,-42.25,0.01,-0.0,0.87,0.49
9469,00:00:53.987,IMU4,0.16,0.1,9.8,0.0,0.0,0.0,9.62,-6.0,-26.06,0.01,-0.0,0.85,0.53
10373,00:00:53.989,IMU5,0.18,0.32,9.74,0.0,0.0,0.0,32.81,-9.19,-19.38,0.02,0.01,0.8,0.61
10373,00:00:53.989,IMU6,0.1,0.09,9.78,0.0,0.0,0.0,25.44,-5.44,-16.44,0.01,0.0,0.78,0.62
10373,00:00:53.989,IMU7,0.46,0.15,9.91,-0.0,-0.0,0.01,20.94,-9.38,-17.94,0.02,-0.01,0.83,0.55
10374,00:00:53.995,IMU5,0.18,0.32,9.74,0.0,0.0,0.0,32.81,-9.19,-19.38,0.02,0.01,0.8,0.61
10374,00:00:53.995,IMU6,0.1,0.09,9.78,0.0,0.0,0.0,25.44,-5.44,-16.44,0.01,0.0,0.78,0.62
10374,00:00:53.995,IMU7,0.46,0.15,9.91,-0.0,-0.0,0.01,20.94,-8.0,-18.62,0.02,-0.01,0.83,0.55
9470,00:00:53.994,IMU1,0.38,0.12,9.75,0.0,0.0,0.0,35.38,-10.69,-38.38,0.02,-0.01,0.79,0.61
9470,00:00:53.994,IMU2,0.2,0.11,9.83,-0.0,0.0,0.0,34.56,-24.19,-45.56,0.01,0.0,0.88,0.47
9470,00:00:53.994,IMU3,0.16,0.12,9.8,0.0,0.0,0.0,25.25,-16.06,-42.25,0.01,-0.0,0.87,0.49
9470,00:00:53.994,IMU4,0.16,0.1,9.8,0.0,0.0,0.0,9.62,-6.0,-26.06,0.01,-0.0,0.85,0.53
10375,00:00:53.998,IMU5,0.18,0.32,9.74,0.0,0.0,0.0,32.81,-9.19,-19.38,0.02,0.01,0.8,0.61
10375,00:00:53.998,IMU6,0.1,0.09,9.78,0.0,0.0,0.0,25.44,-5.44,-16.44,0.01,0.0,0.78,0.62
10375,00:00:53.998,IMU7,0.46,0.15,9.91,-0.0,-0.0,0.01,20.94,-8.0,-18.62,0.02,-0.01,0.83,0.55
9471,00:00:53.997,IMU1,0.38,0.12,9.75,0.0,0.0,0.0,35.38,-10.69,-38.38,0.02,-0.01,0.79,0.61
9471,00:00:53.997,IMU2,0.2,0.11,9.83,0.0,0.0,0.0,34.56,-24.19,-45.56,0.01,0.0,0.88,0.47
9471,00:00:53.997,IMU3,0.16,0.12,9.8,0.0,0.0,0.0,25.25,-16.06,-42.25,0.01,-0.0,0.87,0.49
9471,00:00:53.997,IMU4,0.16,0.1,9.8,0.0,0.0,0.0,9.62,-6.0,-26.06,0.01,-0.0,0.85,0.53
10376,00:00:54.004,IMU5,0.18,0.32,9.74,0.0,0.0,0.0,32.81,-9.19,-19.38,0.02,0.01,0.8,0.61
10376,00:00:54.004,IMU6,0.1,0.09,9.78,0.0,0.0,0.0,25.44,-5.44,-16.44,0.01,0.0,0.78,0.62
10376,00:00:54.004,IMU7,0.46,0.15,9.91,0.0,-0.0,0.01,20.94,-8.0,-18.62,0.02,-0.01,0.83,0.55
9472,00:00:54.003,IMU1,0.38,0.12,9.75,0.0,0.0,0.0,35.38,-10.69,-38.38,0.02,-0.01,0.79,0.61
9472,00:00:54.003,IMU2,0.2,0.11,9.83,0.0,0.0,0.0,34.56,-24.19,-45.56,0.01,0.0,0.88,0.47
9472,00:00:54.003,IMU3,0.16,0.12,9.8,0.0,0.0,0.0,25.25,-16.06,-42.25,0.01,-0.0,0.87,0.49
9472,00:00:54.003,IMU4,0.16,0.1,9.8,0.0,0.0,0.0,9.62,-6.0,-26.06,0.01,-0.0,0.85,0.53
10377,00:00:54.007,IMU5,0.18,0.32,9.74,0.0,0.0,0.0,32.81,-9.19,-19.38,0.02,0.01,0.8,0.61
10377,00:00:54.007,IMU6,0.1,0.09,9.78,0.0,0.0,0.0,25.44,-5.44,-16.44,0.01,0.0,0.78,0.62
10377,00:00:54.007,IMU7,0.46,0.15,9.91,0.0,-0.0,0.01,20.94,-8.0,-18.62,0.02,-0.01,0.83,0.55
9473,00:00:54.007,IMU1,0.38,0.12,9.75,0.0,0.0,0.0,35.38,-10.69,-38.38,0.02,-0.01,0.79,0.61
9473,00:00:54.007,IMU2,0.2,0.11,9.83,-0.0,0.0,0.01,34.56,-24.19,-45.56,0.01,0.0,0.88,0.47
9473,00:00:54.007,IMU3,0.16,0.12,9.8,0.0,0.0,0.0,25.25,-16.06,-42.25,0.01,-0.0,0.87,0.49
9473,00:00:54.007,IMU4,0.16,0.1,9.8,0.0,0.0,0.0,9.62,-6.0,-26.06,0.01,-0.0,0.85,0.53
10378,00:00:54.012,IMU5,0.18,0.32,9.74,0.0,0.0,0.0,32.81,-9.19,-19.38,0.02,0.01,0.8,0.61
10378,00:00:54.012,IMU6,0.14,0.12,9.79,0.0,0.0,0.0,25.44,-5.44,-16.44,0.01,0.0,0.78,0.62
10378,00:00:54.012,IMU7,0.46,0.15,9.91,-0.0,0.0,-0.0,20.94,-8.0,-18.62,0.02,-0.01,0.83,0.55
9474,00:00:54.013,IMU1,0.38,0.12,9.75,0.0,0.0,0.0,35.38,-10.69,-38.38,0.02,-0.01,0.79,0.61
9474,00:00:54.013,IMU2,0.2,0.11,9.83,-0.0,0.0,0.01,34.56,-24.19,-45.56,0.01,0.0,0.88,0.47
9474,00:00:54.013,IMU3,0.16,0.05,9.84,0.0,0.0,0.0,25.25,-16.06,-42.25,0.01,-0.0,0.87,0.49
9474,00:00:54.013,IMU4,0.16,0.1,9.8,0.0,0.0,0.0,9.62,-6.0,-26.06,0.01,-0.0,0.85,0.53
10379,00:00:54.015,IMU5,0.18,0.32,9.74,0.0,0.0,0.0,32.81,-9.19,-19.38,0.02,0.01,0.8,0.61
10379,00:00:54.015,IMU6,0.14,0.12,9.79,0.0,0.0,0.0,26.38,-5.19,-16.25,0.01,0.0,0.78,0.62
10379,00:00:54.015,IMU7,0.46,0.15,9.91,-0.0,0.0,-0.0,20.94,-8.0,-18.62,0.02,-0.01,0.83,0.55
9475,00:00:54.017,IMU1,0.38,0.12,9.75,0.0,0.0,0.0,35.38,-10.69,-38.38,0.02,-0.01,0.79,0.61
9475,00:00:54.017,IMU2,0.2,0.11,9.83,0.0,0.0,0.0,34.56,-24.19,-45.56,0.01,0.0,0.88,0.47
9475,00:00:54.017,IMU3,0.16,0.05,9.84,0.0,0.0,0.0,24.06,-17.5,-43.5,0.01,-0.0,0.87,0.49
9475,00:00:54.017,IMU4,0.16,0.1,9.8,0.0,0.0,0.0,9.62,-6.0,-26.06,0.01,-0.0,0.85,0.53
10380,00:00:54.022,IMU5,0.18,0.29,9.75,0.0,0.0,0.0,32.81,-9.19,-19.38,0.02,0.01,0.8,0.61
10380,00:00:54.022,IMU6,0.14,0.12,9.79,0.0,0.0,0.0,26.38,-5.19,-16.25,0.01,0.0,0.78,0.62
10380,00:00:54.022,IMU7,0.42,0.07,9.83,-0.0,0.0,-0.0,20.94,-8.0,-18.62,0.02,-0.01,0.83,0.55
9476,00:00:54.023,IMU1,0.38,0.12,9.75,0.0,0.0,0.0,35.38,-10.69,-38.38,0.02,-0.01,0.79,0.61
9476,00:00:54.023,IMU2,0.2,0.11,9.83,0.0,0.0,0.0,34.56,-24.19,-45.56,0.01,0.0,0.88,0.47
9476,00:00:54.023,IMU3,0.16,0.05,9.84,0.0,0.0,0.0,24.06,-17.5,-43.5,0.01,-0.0,0.87,0.49
9476,00:00:54.023,IMU4,0.16,0.1,9.8,0.0,0.0,0.0,9.62,-6.0,-26.06,0.01,-0.0,0.85,0.53
10381,00:00:54.025,IMU5,0.18,0.29,9.75,0.0,0.0,0.0,32.81,-9.19,-19.38,0.02,0.01,0.8,0.61
10381,00:00:54.025,IMU6,0.14,0.12,9.79,0.0,0.0,0.0,26.38,-5.19,-16.25,0.01,0.0,0.78,0.62
10381,00:00:54.025,IMU7,0.42,0.07,9.83,-0.0,0.0,0.0,20.94,-8.0,-18.62,0.02,-0.01,0.83,0.55
9477,00:00:54.027,IMU1,0.38,0.12,9.75,0.0,0.0,0.0,35.38,-10.69,-38.38,0.02,-0.01,0.79,0.61
9477,00:00:54.027,IMU2,0.2,0.11,9.83,-0.0,0.0,0.0,34.56,-24.19,-45.56,0.01,0.0,0.88,0.47
9477,00:00:54.027,IMU3,0.16,0.05,9.84,0.0,0.0,0.0,24.06,-17.5,-43.5,0.01,-0.0,0.87,0.49
9477,00:00:54.027,IMU4,0.16,0.1,9.8,0.0,0.0,0.0,9.62,-6.0,-26.06,0.01,-0.0,0.85,0.53
10382,00:00:54.030,IMU5,0.18,0.29,9.75,0.0,0.0,0.0,34.0,-9.69,-20.25,0.02,0.01,0.8,0.61
10382,00:00:54.030,IMU6,0.14,0.12,9.79,0.0,0.0,0.0,26.38,-5.19,-16.25,0.01,0.0,0.78,0.62
10382,00:00:54.030,IMU7,0.42,0.07,9.83,-0.0,0.0,0.0,20.5,-8.31,-17.88,0.02,-0.01,0.83,0.55
10383,00:00:54.033,IMU5,0.18,0.29,9.75,0.0,0.0,0.0,34.0,-9.69,-20.25,0.02,0.01,0.8,0.61
10383,00:00:54.033,IMU6,0.14,0.12,9.79,0.0,0.0,0.0,26.38,-5.19,-16.25,0.01,0.0,0.78,0.62
10383,00:00:54.033,IMU7,0.42,0.07,9.83,-0.0,0.0,0.0,20.5,-8.31,-17.88,0.02,-0.01,0.83,0.55
9478,00:00:54.032,IMU1,0.38,0.12,9.75,0.0,0.0,0.0,35.38,-10.69,-38.38,0.02,-0.01,0.79,0.61
9478,00:00:54.032,IMU2,0.2,0.11,9.83,-0.0,0.0,0.0,34.56,-24.19,-45.56,0.01,0.0,0.88,0.47
9478,00:00:54.032,IMU3,0.16,0.05,9.84,0.0,0.0,0.0,24.06,-17.5,-43.5,0.01,-0.0,0.87,0.49
9478,00:00:54.032,IMU4,0.16,0.02,9.84,0.0,0.0,0.0,9.62,-6.0,-26.06,0.01,-0.0,0.85,0.53
9479,00:00:54.037,IMU1,0.38,0.12,9.75,0.0,0.0,0.0,35.38,-10.69,-38.38,0.02,-0.01,0.79,0.61
9479,00:00:54.037,IMU2,0.16,0.11,9.79,-0.0,0.0,0.0,34.56,-24.19,-45.56,0.01,0.0,0.88,0.47
9479,00:00:54.037,IMU3,0.16,0.05,9.84,0.0,0.0,0.0,24.06,-17.5,-43.5,0.01,-0.0,0.87,0.49
9479,00:00:54.037,IMU4,0.16,0.02,9.84,0.0,0.0,0.0,9.62,-6.0,-26.06,0.01,-0.0,0.85,0.53
10384,00:00:54.041,IMU5,0.18,0.29,9.75,0.0,0.0,0.0,34.0,-9.69,-20.25,0.02,0.01,0.8,0.61
10384,00:00:54.041,IMU6,0.14,0.12,9.79,0.0,0.0,0.0,26.38,-5.19,-16.25,0.01,0.0,0.78,0.62
10384,00:00:54.041,IMU7,0.42,0.07,9.83,-0.0,0.0,0.0,20.5,-8.31,-17.88,0.02,-0.01,0.83,0.55
10385,00:00:54.044,IMU5,0.18,0.29,9.75,0.0,0.0,0.0,34.0,-9.69,-20.25,0.02,0.01,0.8,0.61
10385,00:00:54.044,IMU6,0.14,0.12,9.79,0.0,0.0,0.0,26.38,-5.19,-16.25,0.01,0.0,0.78,0.62
10385,00:00:54.044,IMU7,0.42,0.07,9.83,-0.0,0.0,0.0,20.5,-8.31,-17.88,0.02,-0.01,0.83,0.55
10386,00:00:54.052,IMU5,0.18,0.29,9.75,0.0,0.0,0.0,34.0,-9.69,-20.25,0.02,0.01,0.8,0.61
10386,00:00:54.052,IMU6,0.14,0.12,9.86,0.0,0.0,0.0,26.38,-5.19,-16.25,0.01,0.0,0.78,0.62
10386,00:00:54.052,IMU7,0.42,0.07,9.83,0.0,-0.0,-0.0,20.5,-8.31,-17.88,0.02,-0.01,0.83,0.55
10387,00:00:54.055,IMU5,0.18,0.29,9.75,0.0,0.0,0.0,34.0,-9.69,-20.25,0.02,0.01,0.8,0.61
10387,00:00:54.055,IMU6,0.14,0.12,9.86,0.0,0.0,0.0,26.38,-5.19,-16.25,0.01,0.0,0.78,0.62
10387,00:00:54.055,IMU7,0.42,0.07,9.83,0.0,-0.0,-0.0,20.5,-8.31,-17.88,0.02,-0.01,0.83,0.55
10388,00:00:54.061,IMU5,0.18,0.29,9.75,0.0,0.0,0.0,34.0,-9.69,-20.25,0.02,0.01,0.8,0.61
10388,00:00:54.061,IMU6,0.14,0.12,9.86,0.0,0.0,0.0,26.5,-6.25,-16.69,0.01,0.0,0.78,0.62
10388,00:00:54.061,IMU7,0.42,0.07,9.83,0.0,0.0,-0.0,20.5,-8.31,-17.88,0.02,-0.01,0.83,0.55
10389,00:00:54.064,IMU5,0.18,0.29,9.75,0.0,0.0,0.0,34.0,-9.69,-20.25,0.02,0.01,0.8,0.61
10389,00:00:54.064,IMU6,0.14,0.12,9.86,0.0,0.0,0.0,26.5,-6.25,-16.69,0.01,0.0,0.78,0.62
10389,00:00:54.064,IMU7,0.42,0.07,9.83,0.0,0.0,-0.0,20.5,-8.31,-17.88,0.02,-0.01,0.83,0.55
9480,00:00:54.042,IMU1,0.38,0.12,9.75,0.0,0.0,0.0,35.38,-10.69,-38.38,0.02,-0.01,0.79,0.61
9480,00:00:54.042,IMU2,0.16,0.11,9.79,-0.0,0.0,-0.01,34.56,-24.19,-45.56,0.01,0.0,0.88,0.47
9480,00:00:54.042,IMU3,0.16,0.05,9.84,0.0,0.0,0.0,24.06,-17.5,-43.5,0.01,-0.0,0.87,0.49
9480,00:00:54.042,IMU4,0.16,0.02,9.84,0.0,0.0,0.0,9.69,-4.88,-25.12,0.01,-0.0,0.85,0.53
9481,00:00:54.046,IMU1,0.41,0.04,9.79,0.0,0.0,0.0,35.38,-10.69,-38.38,0.02,-0.01,0.79,0.61
9481,00:00:54.046,IMU2,0.16,0.11,9.79,-0.0,0.0,-0.01,33.75,-24.56,-46.0,0.01,0.0,0.88,0.47
9481,00:00:54.046,IMU3,0.16,0.05,9.84,0.0,0.0,0.0,24.06,-17.5,-43.5,0.01,-0.0,0.87,0.49
9481,00:00:54.046,IMU4,0.16,0.02,9.84,0.0,0.0,0.0,9.69,-4.88,-25.12,0.01,-0.0,0.85,0.53
9482,00:00:54.053,IMU1,0.41,0.04,9.79,0.0,0.0,0.0,36.94,-11.88,-38.19,0.02,-0.01,0.79,0.61
9482,00:00:54.053,IMU2,0.16,0.11,9.79,-0.0,0.0,-0.01,33.75,-24.56,-46.0,0.01,0.0,0.88,0.47
9482,00:00:54.053,IMU3,0.16,0.01,9.77,0.0,0.0,0.0,24.06,-17.5,-43.5,0.01,-0.0,0.87,0.49
9482,00:00:54.053,IMU4,0.16,0.02,9.84,0.0,0.0,0.0,9.69,-4.88,-25.12,0.01,-0.0,0.85,0.53
9483,00:00:54.056,IMU1,0.41,0.04,9.79,0.0,0.0,0.0,36.94,-11.88,-38.19,0.02,-0.01,0.79,0.61
9483,00:00:54.056,IMU2,0.16,0.11,9.79,0.0,0.0,0.0,33.75,-24.56,-46.0,0.01,0.0,0.88,0.47
9483,00:00:54.056,IMU3,0.16,0.01,9.77,0.0,0.0,0.0,27.06,-17.06,-44.69,0.01,-0.0,0.87,0.49
9483,00:00:54.056,IMU4,0.16,0.02,9.84,0.0,0.0,0.0,9.69,-4.88,-25.12,0.01,-0.0,0.85,0.53
9484,00:00:54.061,IMU1,0.41,0.04,9.79,0.0,0.0,0.0,36.94,-11.88,-38.19,0.02,-0.01,0.79,0.61
9484,00:00:54.061,IMU2,0.16,0.11,9.79,0.0,0.0,0.0,33.75,-24.56,-46.0,0.01,0.0,0.88,0.47
9484,00:00:54.061,IMU3,0.16,0.01,9.77,0.0,0.0,0.0,27.06,-17.06,-44.69,0.01,-0.0,0.87,0.49
9484,00:00:54.061,IMU4,0.16,0.02,9.84,0.0,0.0,0.0,9.69,-4.88,-25.12,0.01,-0.0,0.85,0.53
9485,00:00:54.065,IMU1,0.41,0.04,9.79,0.0,0.0,0.0,36.94,-11.88,-38.19,0.02,-0.01,0.79,0.61
9485,00:00:54.065,IMU2,0.16,0.11,9.79,0.0,0.0,-0.0,33.75,-24.56,-46.0,0.01,0.0,0.88,0.47
9485,00:00:54.065,IMU3,0.16,0.01,9.77,0.0,0.0,0.0,27.06,-17.06,-44.69,0.01,-0.0,0.87,0.49
9485,00:00:54.065,IMU4,0.16,0.02,9.84,0.0,0.0,0.0,9.69,-4.88,-25.12,0.01,-0.0,0.85,0.53
10390,00:00:54.072,IMU5,0.18,0.29,9.75,0.0,0.0,0.0,34.0,-9.69,-20.25,0.02,0.01,0.8,0.61
10390,00:00:54.072,IMU6,0.14,0.12,9.86,0.0,0.0,0.0,26.5,-6.25,-16.69,0.01,0.0,0.78,0.62
10390,00:00:54.072,IMU7,0.42,0.07,9.83,0.0,-0.01,0.0,20.5,-8.31,-17.88,0.02,-0.01,0.83,0.55
9486,00:00:54.071,IMU1,0.41,0.04,9.79,0.0,0.0,0.0,36.94,-11.88,-38.19,0.02,-0.01,0.79,0.61
9486,00:00:54.071,IMU2,0.16,0.11,9.79,0.0,0.0,-0.0,33.75,-24.56,-46.0,0.01,0.0,0.88,0.47
9486,00:00:54.071,IMU3,0.16,0.01,9.77,0.0,0.0,0.0,27.06,-17.06,-44.69,0.01,-0.0,0.87,0.49
9486,00:00:54.071,IMU4,0.2,0.02,9.8,0.0,0.0,0.0,9.69,-4.88,-25.12,0.01,-0.0,0.85,0.53
9487,00:00:54.075,IMU1,0.41,0.04,9.79,0.0,0.0,0.0,36.94,-11.88,-38.19,0.02,-0.01,0.79,0.61
9487,00:00:54.075,IMU2,0.16,0.11,9.79,0.01,-0.0,0.0,33.75,-24.56,-46.0,0.01,0.0,0.88,0.47
9487,00:00:54.075,IMU3,0.16,0.01,9.77,0.0,0.0,0.0,27.06,-17.06,-44.69,0.01,-0.0,0.87,0.49
9487,00:00:54.075,IMU4,0.2,0.02,9.8,0.0,0.0,0.0,7.81,-3.75,-26.19,0.01,-0.0,0.85,0.53
10391,00:00:54.075,IMU5,0.18,0.29,9.75,0.0,0.0,0.0,34.0,-9.69,-20.25,0.02,0.01,0.8,0.61
10391,00:00:54.075,IMU6,0.14,0.12,9.86,0.0,0.0,0.0,26.5,-6.25,-16.69,0.01,0.0,0.78,0.62
10391,00:00:54.075,IMU7,0.42,0.07,9.83,0.0,-0.01,0.0,20.5,-8.31,-17.88,0.02,-0.01,0.83,0.55
10392,00:00:54.081,IMU5,0.18,0.29,9.75,0.0,0.0,0.0,34.0,-9.69,-20.25,0.02,0.01,0.8,0.61
10392,00:00:54.081,IMU6,0.14,0.12,9.86,0.0,0.0,0.0,26.5,-6.25,-16.69,0.01,0.0,0.78,0.62
10392,00:00:54.081,IMU7,0.42,0.07,9.83,0.01,0.0,0.0,20.5,-8.31,-17.88,0.02,-0.01,0.83,0.55
10393,00:00:54.084,IMU5,0.18,0.29,9.75,0.0,0.0,0.0,34.0,-9.69,-20.25,0.02,0.01,0.8,0.61
10393,00:00:54.084,IMU6,0.14,0.12,9.86,0.0,0.0,0.0,26.5,-6.25,-16.69,0.01,0.0,0.78,0.62
10393,00:00:54.084,IMU7,0.42,0.07,9.83,0.01,0.0,0.0,20.5,-8.31,-17.88,0.02,-0.01,0.83,0.55
10394,00:00:54.089,IMU5,0.18,0.32,9.82,0.0,0.0,0.0,34.0,-9.69,-20.25,0.02,0.01,0.8,0.61
10394,00:00:54.089,IMU6,0.14,0.12,9.86,0.0,0.0,0.0,26.5,-6.25,-16.69,0.01,0.0,0.78,0.62
10394,00:00:54.089,IMU7,0.42,0.07,9.83,-0.0,0.0,0.0,20.5,-8.31,-17.88,0.02,-0.01,0.83,0.55
10395,00:00:54.092,IMU5,0.18,0.32,9.82,0.0,0.0,0.0,33.94,-11.38,-20.75,0.02,0.01,0.8,0.61
10395,00:00:54.092,IMU6,0.14,0.12,9.86,0.0,0.0,0.0,26.5,-6.25,-16.69,0.01,0.0,0.78,0.62
10395,00:00:54.092,IMU7,0.42,0.07,9.83,-0.0,0.0,0.0,20.5,-8.31,-17.88,0.02,-0.01,0.83,0.55
10396,00:00:54.096,IMU5,0.18,0.32,9.82,0.0,0.0,0.0,33.94,-11.38,-20.75,0.02,0.01,0.8,0.61
10396,00:00:54.096,IMU6,0.14,0.12,9.86,0.0,0.0,0.0,26.5,-6.25,-16.69,0.01,0.0,0.78,0.62
10396,00:00:54.096,IMU7,0.42,0.15,9.83,-0.0,0.0,0.0,20.5,-8.31,-17.88,0.02,-0.01,0.83,0.55
9488,00:00:54.081,IMU1,0.41,0.04,9.79,0.0,0.0,0.0,36.94,-11.88,-38.19,0.02,-0.01,0.79,0.61
9488,00:00:54.081,IMU2,0.16,0.11,9.79,0.01,-0.0,0.0,33.75,-24.56,-46.0,0.01,0.0,0.88,0.47
9488,00:00:54.081,IMU3,0.16,0.01,9.77,0.0,0.0,0.0,27.06,-17.06,-44.69,0.01,-0.0,0.87,0.49
9488,00:00:54.081,IMU4,0.2,0.02,9.8,0.0,0.0,0.0,7.81,-3.75,-26.19,0.01,-0.0,0.85,0.53
9489,00:00:54.087,IMU1,0.41,0.12,9.83,0.0,0.0,0.0,36.94,-11.88,-38.19,0.02,-0.01,0.79,0.61
9489,00:00:54.087,IMU2,0.2,0.11,9.79,0.01,-0.0,0.0,33.75,-24.56,-46.0,0.01,0.0,0.88,0.47
9489,00:00:54.087,IMU3,0.16,0.01,9.77,0.0,0.0,0.0,27.06,-17.06,-44.69,0.01,-0.0,0.87,0.49
9489,00:00:54.087,IMU4,0.2,0.02,9.8,0.0,0.0,0.0,7.81,-3.75,-26.19,0.01,-0.0,0.85,0.53
9490,00:00:54.093,IMU1,0.41,0.12,9.83,0.0,0.0,0.0,35.25,-10.94,-37.5,0.02,-0.01,0.79,0.61
9490,00:00:54.093,IMU2,0.2,0.11,9.79,0.0,-0.01,-0.0,33.75,-24.56,-46.0,0.01,0.0,0.88,0.47
9490,00:00:54.093,IMU3,0.2,0.12,9.77,0.0,0.0,0.0,27.06,-17.06,-44.69,0.01,-0.0,0.87,0.49
9490,00:00:54.093,IMU4,0.2,0.02,9.8,0.0,0.0,0.0,7.81,-3.75,-26.19,0.01,-0.0,0.85,0.53
10397,00:00:54.099,IMU5,0.18,0.32,9.82,0.0,0.0,0.0,33.94,-11.38,-20.75,0.02,0.01,0.8,0.61
10397,00:00:54.099,IMU6,0.14,0.12,9.86,0.0,0.0,0.0,26.5,-6.25,-16.69,0.01,0.0,0.78,0.62
10397,00:00:54.099,IMU7,0.42,0.15,9.83,-0.0,0.0,0.0,22.19,-9.5,-19.25,0.02,-0.01,0.83,0.55
9491,00:00:54.098,IMU1,0.41,0.12,9.83,0.0,0.0,0.0,35.25,-10.94,-37.5,0.02,-0.01,0.79,0.61
9491,00:00:54.098,IMU2,0.2,0.11,9.79,0.0,-0.01,-0.0,36.06,-23.94,-46.75,0.01,0.0,0.88,0.47
9491,00:00:54.098,IMU3,0.2,0.12,9.77,0.0,0.0,0.0,23.69,-17.19,-42.62,0.01,-0.0,0.87,0.49
9491,00:00:54.098,IMU4,0.2,0.02,9.8,0.0,0.0,0.0,7.81,-3.75,-26.19,0.01,-0.0,0.85,0.53
9492,00:00:54.104,IMU1,0.41,0.12,9.83,0.0,0.0,0.0,35.25,-10.94,-37.5,0.02,-0.01,0.79,0.61
9492,00:00:54.104,IMU2,0.2,0.11,9.79,0.0,-0.01,-0.0,36.06,-23.94,-46.75,0.01,0.0,0.88,0.47
9492,00:00:54.104,IMU3,0.2,0.12,9.77,0.0,0.0,0.0,23.69,-17.19,-42.62,0.01,-0.0,0.87,0.49
9492,00:00:54.104,IMU4,0.2,0.02,9.8,0.0,0.0,0.0,7.81,-3.75,-26.19,0.01,-0.0,0.85,0.53
9493,00:00:54.109,IMU1,0.41,0.12,9.83,0.0,0.0,0.0,35.25,-10.94,-37.5,0.02,-0.01,0.79,0.61
9493,00:00:54.109,IMU2,0.2,0.11,9.79,0.0,-0.0,0.0,36.06,-23.94,-46.75,0.01,0.0,0.88,0.47
9493,00:00:54.109,IMU3,0.2,0.12,9.77,0.0,0.0,0.0,23.69,-17.19,-42.62,0.01,-0.0,0.87,0.49
9493,00:00:54.109,IMU4,0.2,0.02,9.8,0.0,0.0,0.0,7.81,-3.75,-26.19,0.01,-0.0,0.85,0.53
9494,00:00:54.116,IMU1,0.41,0.12,9.83,0.0,0.0,0.0,35.25,-10.94,-37.5,0.02,-0.01,0.79,0.61
9494,00:00:54.116,IMU2,0.2,0.11,9.79,0.0,-0.0,0.0,36.06,-23.94,-46.75,0.01,0.0,0.88,0.47
9494,00:00:54.116,IMU3,0.2,0.12,9.77,0.0,0.0,0.0,23.69,-17.19,-42.62,0.01,-0.0,0.87,0.49
9494,00:00:54.116,IMU4,0.2,0.02,9.8,0.0,0.0,0.0,7.81,-3.75,-26.19,0.01,-0.0,0.85,0.53
10398,00:00:54.106,IMU5,0.18,0.32,9.74,0.0,0.0,0.0,33.94,-11.38,-20.75,0.02,0.01,0.8,0.61
10398,00:00:54.106,IMU6,0.14,0.05,9.82,0.0,0.0,0.0,26.5,-6.25,-16.69,0.01,0.0,0.78,0.62
10398,00:00:54.106,IMU7,0.42,0.15,9.83,0.0,0.0,0.0,22.19,-9.5,-19.25,0.02,-0.01,0.83,0.55
10399,00:00:54.109,IMU5,0.18,0.32,9.74,0.0,0.0,0.0,33.88,-10.0,-19.19,0.02,0.01,0.8,0.61
10399,00:00:54.109,IMU6,0.14,0.05,9.82,0.0,0.0,0.0,25.0,-6.62,-16.12,0.01,0.0,0.78,0.62
10399,00:00:54.109,IMU7,0.42,0.15,9.83,0.0,0.0,0.0,22.19,-9.5,-19.25,0.02,-0.01,0.83,0.55
10400,00:00:54.114,IMU5,0.18,0.32,9.74,0.0,0.0,0.0,33.88,-10.0,-19.19,0.02,0.01,0.8,0.61
10400,00:00:54.114,IMU6,0.14,0.05,9.82,0.0,0.0,0.0,25.0,-6.62,-16.12,0.01,0.0,0.78,0.62
10400,00:00:54.114,IMU7,0.42,0.15,9.83,-0.01,0.0,-0.0,22.19,-9.5,-19.25,0.02,-0.01,0.83,0.55
10401,00:00:54.117,IMU5,0.18,0.32,9.74,0.0,0.0,0.0,33.88,-10.0,-19.19,0.02,0.01,0.8,0.61
10401,00:00:54.117,IMU6,0.14,0.05,9.82,0.0,0.0,0.0,25.0,-6.62,-16.12,0.01,0.0,0.78,0.62
10401,00:00:54.117,IMU7,0.42,0.15,9.83,-0.01,0.0,-0.0,22.19,-9.5,-19.25,0.02,-0.01,0.83,0.55
10402,00:00:54.124,IMU5,0.18,0.32,9.74,0.0,0.0,0.0,33.88,-10.0,-19.19,0.02,0.01,0.8,0.61
10402,00:00:54.124,IMU6,0.14,0.05,9.82,0.0,0.0,0.0,25.0,-6.62,-16.12,0.01,0.0,0.78,0.62
10402,00:00:54.124,IMU7,0.38,0.11,9.68,-0.01,0.0,-0.0,22.19,-9.5,-19.25,0.02,-0.01,0.83,0.55
10403,00:00:54.127,IMU5,0.18,0.32,9.74,0.0,0.0,0.0,33.88,-10.0,-19.19,0.02,0.01,0.8,0.61
10403,00:00:54.127,IMU6,0.14,0.05,9.82,0.0,0.0,0.0,25.0,-6.62,-16.12,0.01,0.0,0.78,0.62
10403,00:00:54.127,IMU7,0.38,0.11,9.68,0.0,0.0,0.0,22.19,-9.5,-19.25,0.02,-0.01,0.83,0.55
9495,00:00:54.123,IMU1,0.38,0.01,9.79,0.0,0.0,0.0,35.25,-10.94,-37.5,0.02,-0.01,0.79,0.61
9495,00:00:54.123,IMU2,0.2,0.11,9.79,0.0,0.0,0.01,36.06,-23.94,-46.75,0.01,0.0,0.88,0.47
9495,00:00:54.123,IMU3,0.2,0.12,9.77,0.0,0.0,0.0,23.69,-17.19,-42.62,0.01,-0.0,0.87,0.49
9495,00:00:54.123,IMU4,0.2,0.02,9.8,0.0,0.0,0.0,7.81,-3.75,-26.19,0.01,-0.0,0.85,0.53
10404,00:00:54.133,IMU5,0.22,0.25,9.74,0.0,0.0,0.0,33.88,-10.0,-19.19,0.02,0.01,0.8,0.61
10404,00:00:54.133,IMU6,0.14,0.05,9.82,0.0,0.0,0.0,25.0,-6.62,-16.12,0.01,0.0,0.78,0.62
10404,00:00:54.133,IMU7,0.38,0.11,9.68,0.0,0.0,0.0,20.19,-10.06,-17.94,0.02,-0.01,0.83,0.55
10405,00:00:54.136,IMU5,0.22,0.25,9.74,0.0,0.0,0.0,34.56,-10.38,-19.31,0.02,0.01,0.8,0.61
10405,00:00:54.136,IMU6,0.14,0.05,9.82,0.0,0.0,0.0,25.0,-6.62,-16.12,0.01,0.0,0.78,0.62
10405,00:00:54.136,IMU7,0.38,0.11,9.68,0.0,0.0,0.0,20.19,-10.06,-17.94,0.02,-0.01,0.83,0.55
9496,00:00:54.130,IMU1,0.38,0.01,9.79,0.0,0.0,0.0,35.44,-10.06,-38.81,0.02,-0.01,0.79,0.61
9496,00:00:54.130,IMU2,0.2,0.11,9.79,0.0,0.0,0.01,36.06,-23.94,-46.75,0.01,0.0,0.88,0.47
9496,00:00:54.130,IMU3,0.2,0.12,9.77,0.0,0.0,0.0,23.69,-17.19,-42.62,0.01,-0.0,0.87,0.49
9496,00:00:54.130,IMU4,0.2,0.02,9.8,0.0,0.0,0.0,7.81,-3.75,-26.19,0.01,-0.0,0.85,0.53
9497,00:00:54.135,IMU1,0.38,0.01,9.79,0.0,0.0,0.0,35.44,-10.06,-38.81,0.02,-0.01,0.79,0.61
9497,00:00:54.135,IMU2,0.2,0.11,9.79,0.0,0.0,0.0,36.06,-23.94,-46.75,0.01,0.0,0.88,0.47
9497,00:00:54.135,IMU3,0.2,0.12,9.77,0.0,0.0,0.0,23.69,-17.19,-42.62,0.01,-0.0,0.87,0.49
9497,00:00:54.135,IMU4,0.2,0.02,9.8,0.0,0.0,0.0,7.81,-3.75,-26.19,0.01,-0.0,0.85,0.53
10406,00:00:54.144,IMU5,0.22,0.25,9.74,0.0,0.0,0.0,34.56,-10.38,-19.31,0.02,0.01,0.8,0.61
10406,00:00:54.144,IMU6,0.14,0.05,9.82,0.0,0.0,0.0,25.0,-6.62,-16.12,0.01,0.0,0.78,0.62
10406,00:00:54.144,IMU7,0.38,0.11,9.68,0.0,-0.0,0.0,20.19,-10.06,-17.94,0.02,-0.01,0.83,0.55
10407,00:00:54.147,IMU5,0.22,0.25,9.74,0.0,0.0,0.0,34.56,-10.38,-19.31,0.02,0.01,0.8,0.61
10407,00:00:54.147,IMU6,0.14,0.05,9.82,0.0,0.0,0.0,25.0,-6.62,-16.12,0.01,0.0,0.78,0.62
10407,00:00:54.147,IMU7,0.38,0.11,9.68,0.0,-0.0,0.0,20.19,-10.06,-17.94,0.02,-0.01,0.83,0.55
10408,00:00:54.153,IMU5,0.22,0.25,9.74,0.0,0.0,0.0,34.56,-10.38,-19.31,0.02,0.01,0.8,0.61
10408,00:00:54.153,IMU6,0.14,0.09,9.86,0.0,0.0,0.0,25.0,-6.62,-16.12,0.01,0.0,0.78,0.62
10408,00:00:54.153,IMU7,0.38,0.11,9.68,-0.0,0.0,0.01,20.19,-10.06,-17.94,0.02,-0.01,0.83,0.55
10409,00:00:54.156,IMU5,0.22,0.25,9.74,0.0,0.0,0.0,34.56,-10.38,-19.31,0.02,0.01,0.8,0.61
10409,00:00:54.156,IMU6,0.14,0.09,9.86,0.0,0.0,0.0,26.5,-6.25,-16.69,0.01,0.0,0.78,0.62
10409,00:00:54.156,IMU7,0.38,0.11,9.68,-0.0,0.0,0.01,20.19,-10.06,-17.94,0.02,-0.01,0.83,0.55
10410,00:00:54.163,IMU5,0.18,0.25,9.79,0.0,0.0,0.0,34.56,-10.38,-19.31,0.02,0.01,0.8,0.61
10410,00:00:54.163,IMU6,0.14,0.09,9.86,0.0,0.0,0.0,26.5,-6.25,-16.69,0.01,0.0,0.78,0.62
10410,00:00:54.163,IMU7,0.38,0.11,9.68,0.01,0.0,0.0,20.19,-10.06,-17.94,0.02,-0.01,0.83,0.55
10411,00:00:54.166,IMU5,0.18,0.25,9.79,0.0,0.0,0.0,34.56,-10.38,-19.31,0.02,0.01,0.8,0.61
10411,00:00:54.166,IMU6,0.14,0.09,9.86,0.0,0.0,0.0,26.5,-6.25,-16.69,0.01,0.0,0.78,0.62
10411,00:00:54.166,IMU7,0.38,0.11,9.68,0.01,0.0,0.0,20.19,-10.06,-17.94,0.02,-0.01,0.83,0.55
10412,00:00:54.170,IMU5,0.18,0.25,9.79,0.0,0.0,0.0,32.81,-10.5,-19.88,0.02,0.01,0.8,0.61
10412,00:00:54.170,IMU6,0.14,0.09,9.86,0.0,0.0,0.0,26.5,-6.25,-16.69,0.01,0.0,0.78,0.62
10412,00:00:54.170,IMU7,0.38,0.11,9.68,0.01,-0.01,0.0,20.19,-10.06,-17.94,0.02,-0.01,0.83,0.55
10413,00:00:54.173,IMU5,0.18,0.25,9.79,0.0,0.0,0.0,32.81,-10.5,-19.88,0.02,0.01,0.8,0.61
10413,00:00:54.173,IMU6,0.14,0.09,9.86,0.0,0.0,0.0,26.5,-6.25,-16.69,0.01,0.0,0.78,0.62
10413,00:00:54.173,IMU7,0.38,0.11,9.68,0.01,-0.01,0.0,20.19,-10.06,-17.94,0.02,-0.01,0.83,0.55
10414,00:00:54.179,IMU5,0.18,0.25,9.79,0.0,0.0,0.0,32.81,-10.5,-19.88,0.02,0.01,0.8,0.61
10414,00:00:54.179,IMU6,0.14,0.09,9.86,0.0,0.0,0.0,26.5,-6.25,-16.69,0.01,0.0,0.78,0.62
10414,00:00:54.179,IMU7,0.38,0.11,9.87,0.01,-0.01,0.0,20.19,-10.06,-17.94,0.02,-0.01,0.83,0.55
10415,00:00:54.182,IMU5,0.18,0.25,9.79,0.0,0.0,0.0,32.81,-10.5,-19.88,0.02,0.01,0.8,0.61
10415,00:00:54.182,IMU6,0.14,0.09,9.86,0.0,0.0,0.0,26.5,-6.25,-16.69,0.01,0.0,0.78,0.62
10415,00:00:54.182,IMU7,0.38,0.11,9.87,0.01,-0.01,0.0,21.31,-9.75,-18.0,0.02,-0.01,0.83,0.55
10416,00:00:54.190,IMU5,0.18,0.25,9.79,0.0,0.0,0.0,32.81,-10.5,-19.88,0.02,0.01,0.8,0.61
10416,00:00:54.190,IMU6,0.14,0.09,9.86,0.0,0.0,0.0,26.5,-6.25,-16.69,0.01,0.0,0.78,0.62
10416,00:00:54.190,IMU7,0.38,0.11,9.87,0.0,-0.0,0.01,21.31,-9.75,-18.0,0.02,-0.01,0.83,0.55
10417,00:00:54.193,IMU5,0.18,0.25,9.79,0.0,0.0,0.0,32.81,-10.5,-19.88,0.02,0.01,0.8,0.61
10417,00:00:54.193,IMU6,0.14,0.09,9.86,0.0,0.0,0.0,26.5,-6.25,-16.69,0.01,0.0,0.78,0.62
10417,00:00:54.193,IMU7,0.38,0.11,9.87,0.0,-0.0,0.01,21.31,-9.75,-18.0,0.02,-0.01,0.83,0.55
10418,00:00:54.198,IMU5,0.18,0.25,9.79,0.0,0.0,0.0,32.81,-10.5,-19.88,0.02,0.01,0.8,0.61
10418,00:00:54.198,IMU6,0.14,0.12,9.79,0.0,0.0,0.0,26.5,-6.25,-16.69,0.01,0.0,0.78,0.62
10418,00:00:54.198,IMU7,0.38,0.11,9.87,0.0,-0.01,0.0,21.31,-9.75,-18.0,0.02,-0.01,0.83,0.55
10419,00:00:54.201,IMU5,0.18,0.25,9.79,0.0,0.0,0.0,32.81,-10.5,-19.88,0.02,0.01,0.8,0.61
10419,00:00:54.201,IMU6,0.14,0.12,9.79,0.0,0.0,0.0,26.0,-6.38,-16.25,0.01,0.0,0.78,0.62
10419,00:00:54.201,IMU7,0.38,0.11,9.87,0.0,-0.01,0.0,21.31,-9.75,-18.0,0.02,-0.01,0.83,0.55
10420,00:00:54.206,IMU5,0.18,0.29,9.79,0.0,0.0,0.0,32.81,-10.5,-19.88,0.02,0.01,0.8,0.61
10420,00:00:54.206,IMU6,0.14,0.12,9.79,0.0,0.0,0.0,26.0,-6.38,-16.25,0.01,0.0,0.78,0.62
10420,00:00:54.206,IMU7,0.38,0.11,9.87,0.0,0.0,0.0,21.31,-9.75,-18.0,0.02,-0.01,0.83,0.55
10421,00:00:54.209,IMU5,0.18,0.29,9.79,0.0,0.0,0.0,33.19,-10.5,-19.5,0.02,0.01,0.8,0.61
10421,00:00:54.209,IMU6,0.14,0.12,9.79,0.0,0.0,0.0,26.0,-6.38,-16.25,0.01,0.0,0.78,0.62
10421,00:00:54.209,IMU7,0.38,0.11,9.87,0.0,0.0,0.0,21.31,-9.75,-18.0,0.02,-0.01,0.83,0.55
9498,00:00:54.140,IMU1,0.38,0.01,9.79,0.0,0.0,0.0,35.44,-10.06,-38.81,0.02,-0.01,0.79,0.61
9498,00:00:54.140,IMU2,0.2,0.11,9.79,0.0,0.0,0.0,36.06,-23.94,-46.75,0.01,0.0,0.88,0.47
9498,00:00:54.140,IMU3,0.2,0.12,9.77,0.0,0.0,0.0,23.69,-17.19,-42.62,0.01,-0.0,0.87,0.49
9498,00:00:54.140,IMU4,0.2,0.1,9.84,0.0,0.0,0.0,7.81,-3.75,-26.19,0.01,-0.0,0.85,0.53
9499,00:00:54.145,IMU1,0.38,-0.03,9.75,0.0,0.0,0.0,35.44,-10.06,-38.81,0.02,-0.01,0.79,0.61
9499,00:00:54.145,IMU2,0.2,0.11,9.79,0.0,0.0,0.0,36.06,-23.94,-46.75,0.01,0.0,0.88,0.47
9499,00:00:54.145,IMU3,0.2,0.12,9.77,0.0,0.0,0.0,23.69,-17.19,-42.62,0.01,-0.0,0.87,0.49
9499,00:00:54.145,IMU4,0.2,0.1,9.84,0.0,0.0,0.0,11.12,-4.12,-26.12,0.01,-0.0,0.85,0.53
9500,00:00:54.151,IMU1,0.38,-0.03,9.75,0.0,0.0,0.0,35.31,-10.69,-37.88,0.02,-0.01,0.79,0.61
9500,00:00:54.151,IMU2,0.2,0.11,9.79,0.0,0.0,0.0,36.06,-23.94,-46.75,0.01,0.0,0.88,0.47
9500,00:00:54.151,IMU3,0.2,0.12,9.77,0.0,0.0,0.0,23.69,-17.19,-42.62,0.01,-0.0,0.87,0.49
9500,00:00:54.151,IMU4,0.2,0.1,9.84,0.0,0.0,0.0,11.12,-4.12,-26.12,0.01,-0.0,0.85,0.53
9501,00:00:54.155,IMU1,0.38,-0.03,9.75,0.0,0.0,0.0,35.31,-10.69,-37.88,0.02,-0.01,0.79,0.61
9501,00:00:54.155,IMU2,0.2,0.11,9.79,0.0,0.0,0.0,36.06,-23.94,-46.75,0.01,0.0,0.88,0.47
9501,00:00:54.155,IMU3,0.2,0.12,9.77,0.0,0.0,0.0,23.69,-17.19,-42.62,0.01,-0.0,0.87,0.49
9501,00:00:54.155,IMU4,0.2,0.1,9.84,0.0,0.0,0.0,11.12,-4.12,-26.12,0.01,-0.0,0.85,0.53
9502,00:00:54.160,IMU1,0.38,-0.03,9.75,0.0,0.0,0.0,35.31,-10.69,-37.88,0.02,-0.01,0.79,0.61
9502,00:00:54.160,IMU2,0.2,0.11,9.79,0.0,0.0,0.0,36.06,-23.94,-46.75,0.01,0.0,0.88,0.47
9502,00:00:54.160,IMU3,0.2,0.12,9.77,0.0,0.0,0.0,23.69,-17.19,-42.62,0.01,-0.0,0.87,0.49
9502,00:00:54.160,IMU4,0.2,0.1,9.84,0.0,0.0,0.0,11.12,-4.12,-26.12,0.01,-0.0,0.85,0.53
10422,00:00:54.214,IMU5,0.11,0.29,9.75,0.0,0.0,0.0,33.19,-10.5,-19.5,0.02,0.01,0.8,0.61
10422,00:00:54.214,IMU6,0.14,0.12,9.79,0.0,0.0,0.0,26.0,-6.38,-16.25,0.01,0.0,0.78,0.62
10422,00:00:54.214,IMU7,0.38,0.11,9.87,-0.01,0.0,0.0,21.31,-9.75,-18.0,0.02,-0.01,0.83,0.55
10423,00:00:54.217,IMU5,0.11,0.29,9.75,0.0,0.0,0.0,33.56,-8.81,-19.44,0.02,0.01,0.8,0.61
10423,00:00:54.217,IMU6,0.14,0.12,9.79,0.0,0.0,0.0,26.0,-6.38,-16.25,0.01,0.0,0.78,0.62
10423,00:00:54.217,IMU7,0.38,0.11,9.87,-0.01,0.0,0.0,21.31,-9.75,-18.0,0.02,-0.01,0.83,0.55
9503,00:00:54.164,IMU1,0.38,-0.03,9.75,0.0,0.0,0.0,35.31,-10.69,-37.88,0.02,-0.01,0.79,0.61
9503,00:00:54.164,IMU2,0.16,0.11,9.79,0.0,0.0,0.0,36.06,-23.94,-46.75,0.01,0.0,0.88,0.47
9503,00:00:54.164,IMU3,0.2,0.12,9.77,0.0,0.0,0.0,24.44,-16.75,-43.5,0.01,-0.0,0.87,0.49
9503,00:00:54.164,IMU4,0.2,0.1,9.84,0.0,0.0,0.0,11.12,-4.12,-26.12,0.01,-0.0,0.85,0.53
9504,00:00:54.170,IMU1,0.38,-0.03,9.75,0.0,0.0,0.0,35.31,-10.69,-37.88,0.02,-0.01,0.79,0.61
9504,00:00:54.170,IMU2,0.16,0.11,9.79,0.0,0.0,0.0,34.94,-26.81,-46.56,0.01,0.0,0.88,0.47
9504,00:00:54.170,IMU3,0.2,0.12,9.77,0.0,0.0,0.0,24.44,-16.75,-43.5,0.01,-0.0,0.87,0.49
9504,00:00:54.170,IMU4,0.2,0.1,9.84,0.0,0.0,0.0,11.12,-4.12,-26.12,0.01,-0.0,0.85,0.53
9505,00:00:54.177,IMU1,0.38,0.08,9.75,0.0,0.0,0.0,35.31,-10.69,-37.88,0.02,-0.01,0.79,0.61
9505,00:00:54.177,IMU2,0.16,0.11,9.79,0.0,0.0,0.0,34.94,-26.81,-46.56,0.01,0.0,0.88,0.47
9505,00:00:54.177,IMU3,0.2,0.12,9.77,0.0,0.0,0.0,24.44,-16.75,-43.5,0.01,-0.0,0.87,0.49
9505,00:00:54.177,IMU4,0.2,0.1,9.84,0.0,0.0,0.0,11.12,-4.12,-26.12,0.01,-0.0,0.85,0.53
9506,00:00:54.186,IMU1,0.38,0.08,9.75,0.0,0.0,0.0,35.31,-10.69,-37.88,0.02,-0.01,0.79,0.61
9506,00:00:54.186,IMU2,0.16,0.11,9.79,0.0,0.0,0.0,34.94,-26.81,-46.56,0.01,0.0,0.88,0.47
9506,00:00:54.186,IMU3,0.2,0.12,9.77,0.0,0.0,0.0,24.44,-16.75,-43.5,0.01,-0.0,0.87,0.49
9506,00:00:54.186,IMU4,0.2,0.1,9.84,0.0,0.0,0.0,11.12,-4.12,-26.12,0.01,-0.0,0.85,0.53
9507,00:00:54.189,IMU1,0.38,0.08,9.75,0.0,0.0,0.0,34.94,-9.06,-36.06,0.02,-0.01,0.79,0.61
9507,00:00:54.189,IMU2,0.16,0.11,9.79,0.0,0.0,0.0,34.94,-26.81,-46.56,0.01,0.0,0.88,0.47
9507,00:00:54.189,IMU3,0.2,0.12,9.77,0.0,0.0,0.0,24.44,-16.75,-43.5,0.01,-0.0,0.87,0.49
9507,00:00:54.189,IMU4,0.2,0.1,9.84,0.0,0.0,0.0,11.12,-4.12,-26.12,0.01,-0.0,0.85,0.53
9508,00:00:54.195,IMU1,0.38,0.08,9.75,0.0,0.0,0.0,34.94,-9.06,-36.06,0.02,-0.01,0.79,0.61
9508,00:00:54.195,IMU2,0.16,0.11,9.79,0.0,0.0,0.0,34.94,-26.81,-46.56,0.01,0.0,0.88,0.47
9508,00:00:54.195,IMU3,0.12,0.12,9.77,0.0,0.0,0.0,24.44,-16.75,-43.5,0.01,-0.0,0.87,0.49
9508,00:00:54.195,IMU4,0.12,0.06,9.8,0.0,0.0,0.0,11.12,-4.12,-26.12,0.01,-0.0,0.85,0.53
9509,00:00:54.200,IMU1,0.38,0.08,9.75,0.0,0.0,0.0,34.94,-9.06,-36.06,0.02,-0.01,0.79,0.61
9509,00:00:54.200,IMU2,0.16,0.11,9.79,0.0,0.0,0.0,34.94,-26.81,-46.56,0.01,0.0,0.88,0.47
9509,00:00:54.200,IMU3,0.12,0.12,9.77,0.0,0.0,0.0,25.25,-15.38,-42.25,0.01,-0.0,0.87,0.49
9509,00:00:54.200,IMU4,0.12,0.06,9.8,0.0,0.0,0.0,11.12,-4.12,-26.12,0.01,-0.0,0.85,0.53
9510,00:00:54.205,IMU1,0.38,0.08,9.75,0.0,0.0,0.0,34.94,-9.06,-36.06,0.02,-0.01,0.79,0.61
9510,00:00:54.205,IMU2,0.16,0.11,9.79,0.0,0.0,0.0,34.94,-26.81,-46.56,0.01,0.0,0.88,0.47
9510,00:00:54.205,IMU3,0.12,0.12,9.77,0.0,0.0,0.0,25.25,-15.38,-42.25,0.01,-0.0,0.87,0.49
9510,00:00:54.205,IMU4,0.12,0.06,9.8,0.0,0.0,0.0,8.88,-5.62,-24.56,0.01,-0.0,0.85,0.53
9511,00:00:54.209,IMU1,0.38,0.08,9.75,0.0,0.0,0.0,34.94,-9.06,-36.06,0.02,-0.01,0.79,0.61
9511,00:00:54.209,IMU2,0.2,0.14,9.79,0.0,0.0,0.0,34.94,-26.81,-46.56,0.01,0.0,0.88,0.47
9511,00:00:54.209,IMU3,0.12,0.12,9.77,0.0,0.0,0.0,25.25,-15.38,-42.25,0.01,-0.0,0.87,0.49
9511,00:00:54.209,IMU4,0.12,0.06,9.8,0.0,0.0,0.0,8.88,-5.62,-24.56,0.01,-0.0,0.85,0.53
9512,00:00:54.219,IMU1,0.38,0.08,9.75,0.0,0.0,0.0,34.94,-9.06,-36.06,0.02,-0.01,0.79,0.61
9512,00:00:54.219,IMU2,0.2,0.14,9.79,0.0,0.0,0.0,33.44,-23.69,-44.31,0.01,0.0,0.88,0.47
9512,00:00:54.219,IMU3,0.12,0.12,9.77,0.0,0.0,0.0,25.25,-15.38,-42.25,0.01,-0.0,0.87,0.49
9512,00:00:54.219,IMU4,0.12,0.06,9.8,0.0,0.0,0.0,8.88,-5.62,-24.56,0.01,-0.0,0.85,0.53
10424,00:00:54.224,IMU5,0.11,0.29,9.75,0.0,0.0,0.0,33.56,-8.81,-19.44,0.02,0.01,0.8,0.61
10424,00:00:54.224,IMU6,0.14,0.12,9.79,0.0,0.0,0.0,26.0,-6.38,-16.25,0.01,0.0,0.78,0.62
10424,00:00:54.224,IMU7,0.38,0.15,9.75,-0.01,0.0,0.0,21.31,-9.75,-18.0,0.02,-0.01,0.83,0.55
9513,00:00:54.222,IMU1,0.38,0.01,9.79,0.0,0.0,0.0,34.94,-9.06,-36.06,0.02,-0.01,0.79,0.61
9513,00:00:54.222,IMU2,0.2,0.14,9.79,0.0,0.0,0.0,33.44,-23.69,-44.31,0.01,0.0,0.88,0.47
9513,00:00:54.222,IMU3,0.12,0.12,9.77,0.0,0.0,0.0,25.25,-15.38,-42.25,0.01,-0.0,0.87,0.49
9513,00:00:54.222,IMU4,0.12,0.06,9.8,0.0,0.0,0.0,8.88,-5.62,-24.56,0.01,-0.0,0.85,0.53
9514,00:00:54.228,IMU1,0.38,0.01,9.79,0.0,0.0,0.0,35.56,-9.12,-37.44,0.02,-0.01,0.79,0.61
9514,00:00:54.228,IMU2,0.2,0.14,9.79,0.0,0.0,0.0,33.44,-23.69,-44.31,0.01,0.0,0.88,0.47
9514,00:00:54.228,IMU3,0.12,0.12,9.77,0.0,0.0,0.0,25.25,-15.38,-42.25,0.01,-0.0,0.87,0.49
9514,00:00:54.228,IMU4,0.12,0.06,9.8,0.0,0.0,0.0,8.88,-5.62,-24.56,0.01,-0.0,0.85,0.53
10425,00:00:54.227,IMU5,0.11,0.29,9.75,0.0,0.0,0.0,33.56,-8.81,-19.44,0.02,0.01,0.8,0.61
10425,00:00:54.227,IMU6,0.14,0.12,9.79,0.0,0.0,0.0,26.0,-6.38,-16.25,0.01,0.0,0.78,0.62
10425,00:00:54.227,IMU7,0.38,0.15,9.75,-0.01,0.0,0.0,21.44,-9.12,-19.94,0.02,-0.01,0.83,0.55
10426,00:00:54.233,IMU5,0.11,0.29,9.75,0.0,0.0,0.0,33.56,-8.81,-19.44,0.02,0.01,0.8,0.61
10426,00:00:54.233,IMU6,0.14,0.09,9.79,0.0,0.0,0.0,26.0,-6.38,-16.25,0.01,0.0,0.78,0.62
10426,00:00:54.233,IMU7,0.38,0.15,9.75,0.0,0.0,0.01,21.44,-9.12,-19.94,0.02,-0.01,0.83,0.55
9515,00:00:54.232,IMU1,0.38,0.01,9.79,0.0,0.0,0.0,35.56,-9.12,-37.44,0.02,-0.01,0.79,0.61
9515,00:00:54.232,IMU2,0.2,0.14,9.79,0.0,0.0,0.0,33.44,-23.69,-44.31,0.01,0.0,0.88,0.47
9515,00:00:54.232,IMU3,0.12,0.12,9.77,0.0,0.0,0.0,25.25,-15.38,-42.25,0.01,-0.0,0.87,0.49
9515,00:00:54.232,IMU4,0.12,0.06,9.8,0.0,0.0,0.0,8.88,-5.62,-24.56,0.01,-0.0,0.85,0.53
9516,00:00:54.238,IMU1,0.38,0.01,9.79,0.0,0.0,0.0,35.56,-9.12,-37.44,0.02,-0.01,0.79,0.61
9516,00:00:54.238,IMU2,0.2,0.14,9.79,0.0,0.0,0.0,33.44,-23.69,-44.31,0.01,0.0,0.88,0.47
9516,00:00:54.238,IMU3,0.16,0.01,9.8,0.0,0.0,0.0,25.25,-15.38,-42.25,0.01,-0.0,0.87,0.49
9516,00:00:54.238,IMU4,0.2,0.06,9.84,0.0,0.0,0.0,8.88,-5.62,-24.56,0.01,-0.0,0.85,0.53
9517,00:00:54.242,IMU1,0.38,0.01,9.79,0.0,0.0,0.0,35.56,-9.12,-37.44,0.02,-0.01,0.79,0.61
9517,00:00:54.242,IMU2,0.2,0.14,9.79,0.0,0.0,0.0,33.44,-23.69,-44.31,0.01,0.0,0.88,0.47
9517,00:00:54.242,IMU3,0.16,0.01,9.8,0.0,0.0,0.0,24.06,-16.81,-42.25,0.01,-0.0,0.87,0.49
9517,00:00:54.242,IMU4,0.2,0.06,9.84,0.0,0.0,0.0,9.62,-4.56,-25.12,0.01,-0.0,0.85,0.53
9518,00:00:54.246,IMU1,0.38,0.01,9.79,0.0,0.0,0.0,35.56,-9.12,-37.44,0.02,-0.01,0.79,0.61
9518,00:00:54.246,IMU2,0.2,0.14,9.79,0.0,0.0,0.0,33.44,-23.69,-44.31,0.01,0.0,0.88,0.47
9518,00:00:54.246,IMU3,0.16,0.01,9.8,0.0,0.0,0.0,24.06,-16.81,-42.25,0.01,-0.0,0.87,0.49
9518,00:00:54.246,IMU4,0.2,0.06,9.84,0.0,0.0,0.0,9.62,-4.56,-25.12,0.01,-0.0,0.85,0.53
9519,00:00:54.252,IMU1,0.38,0.01,9.79,0.0,0.0,0.0,35.56,-9.12,-37.44,0.02,-0.01,0.79,0.61
9519,00:00:54.252,IMU2,0.2,0.14,9.79,0.0,0.0,0.0,33.44,-23.69,-44.31,0.01,0.0,0.88,0.47
9519,00:00:54.252,IMU3,0.16,0.01,9.8,0.0,0.0,0.0,24.06,-16.81,-42.25,0.01,-0.0,0.87,0.49
9519,00:00:54.252,IMU4,0.2,0.06,9.84,0.0,0.0,0.0,9.62,-4.56,-25.12,0.01,-0.0,0.85,0.53
10427,00:00:54.236,IMU5,0.11,0.29,9.75,0.0,0.0,0.0,33.56,-8.81,-19.44,0.02,0.01,0.8,0.61
10427,00:00:54.236,IMU6,0.14,0.09,9.79,0.0,0.0,0.0,26.0,-6.56,-16.62,0.01,0.0,0.78,0.62
10427,00:00:54.236,IMU7,0.38,0.15,9.75,0.0,0.0,0.01,21.44,-9.12,-19.94,0.02,-0.01,0.83,0.55
10428,00:00:54.242,IMU5,0.11,0.29,9.75,0.0,0.0,0.0,33.56,-8.81,-19.44,0.02,0.01,0.8,0.61
10428,00:00:54.242,IMU6,0.14,0.09,9.79,0.0,0.0,0.0,26.0,-6.56,-16.62,0.01,0.0,0.78,0.62
10428,00:00:54.242,IMU7,0.38,0.15,9.75,0.0,-0.0,0.0,21.44,-9.12,-19.94,0.02,-0.01,0.83,0.55
10429,00:00:54.245,IMU5,0.11,0.29,9.75,0.0,0.0,0.0,33.56,-8.81,-19.44,0.02,0.01,0.8,0.61
10429,00:00:54.245,IMU6,0.14,0.09,9.79,0.0,0.0,0.0,26.0,-6.56,-16.62,0.01,0.0,0.78,0.62
10429,00:00:54.245,IMU7,0.38,0.15,9.75,0.0,-0.0,0.0,21.44,-9.12,-19.94,0.02,-0.01,0.83,0.55
10430,00:00:54.251,IMU5,0.26,0.29,9.78,0.0,0.0,0.0,33.56,-8.81,-19.44,0.02,0.01,0.8,0.61
10430,00:00:54.251,IMU6,0.14,0.09,9.79,0.0,0.0,0.0,26.0,-6.56,-16.62,0.01,0.0,0.78,0.62
10430,00:00:54.251,IMU7,0.38,0.15,9.75,0.0,0.0,-0.0,21.44,-9.12,-19.94,0.02,-0.01,0.83,0.55
10431,00:00:54.254,IMU5,0.26,0.29,9.78,0.0,0.0,0.0,33.56,-9.62,-19.5,0.02,0.01,0.8,0.61
10431,00:00:54.254,IMU6,0.14,0.09,9.79,0.0,0.0,0.0,26.0,-6.56,-16.62,0.01,0.0,0.78,0.62
10431,00:00:54.254,IMU7,0.38,0.15,9.75,0.0,0.0,-0.0,21.44,-9.12,-19.94,0.02,-0.01,0.83,0.55
10432,00:00:54.259,IMU5,0.26,0.29,9.78,0.0,0.0,0.0,33.56,-9.62,-19.5,0.02,0.01,0.8,0.61
10432,00:00:54.259,IMU6,0.18,0.12,9.82,0.0,0.0,0.0,26.0,-6.56,-16.62,0.01,0.0,0.78,0.62
10432,00:00:54.259,IMU7,0.38,0.15,9.75,-0.01,0.0,-0.0,21.44,-9.12,-19.94,0.02,-0.01,0.83,0.55
10433,00:00:54.262,IMU5,0.26,0.29,9.78,0.0,0.0,0.0,33.56,-9.62,-19.5,0.02,0.01,0.8,0.61
10433,00:00:54.262,IMU6,0.18,0.12,9.82,0.0,0.0,0.0,24.12,-5.62,-16.62,0.01,0.0,0.78,0.62
10433,00:00:54.262,IMU7,0.38,0.15,9.75,-0.01,0.0,-0.0,21.44,-9.12,-19.94,0.02,-0.01,0.83,0.55
9520,00:00:54.258,IMU1,0.38,0.01,9.79,0.0,0.0,0.0,35.56,-9.12,-37.44,0.02,-0.01,0.79,0.61
9520,00:00:54.258,IMU2,0.2,0.14,9.79,0.0,0.0,0.0,33.44,-23.69,-44.31,0.01,0.0,0.88,0.47
9520,00:00:54.258,IMU3,0.16,0.01,9.8,0.0,0.0,0.0,24.06,-16.81,-42.25,0.01,-0.0,0.87,0.49
9520,00:00:54.258,IMU4,0.2,0.06,9.84,0.0,0.0,0.0,9.62,-4.56,-25.12,0.01,-0.0,0.85,0.53
9521,00:00:54.262,IMU1,0.38,0.01,9.79,0.0,0.0,0.0,35.56,-9.12,-37.44,0.02,-0.01,0.79,0.61
9521,00:00:54.262,IMU2,0.2,0.11,9.79,0.0,0.0,0.0,33.44,-23.69,-44.31,0.01,0.0,0.88,0.47
9521,00:00:54.262,IMU3,0.16,0.01,9.8,0.0,0.0,0.0,24.06,-16.81,-42.25,0.01,-0.0,0.87,0.49
9521,00:00:54.262,IMU4,0.2,0.06,9.84,0.0,0.0,0.0,9.62,-4.56,-25.12,0.01,-0.0,0.85,0.53
9522,00:00:54.268,IMU1,0.38,0.01,9.79,0.0,0.0,0.0,35.56,-9.12,-37.44,0.02,-0.01,0.79,0.61
9522,00:00:54.268,IMU2,0.2,0.11,9.79,0.0,0.0,0.0,33.75,-24.56,-46.0,0.01,0.0,0.88,0.47
9522,00:00:54.268,IMU3,0.16,0.01,9.8,0.0,0.0,0.0,24.06,-16.81,-42.25,0.01,-0.0,0.87,0.49
9522,00:00:54.268,IMU4,0.2,0.06,9.84,0.0,0.0,0.0,9.62,-4.56,-25.12,0.01,-0.0,0.85,0.53
9523,00:00:54.272,IMU1,0.34,0.01,9.71,0.0,0.0,0.0,35.56,-9.12,-37.44,0.02,-0.01,0.79,0.61
9523,00:00:54.272,IMU2,0.2,0.11,9.79,0.0,0.0,0.0,33.75,-24.56,-46.0,0.01,0.0,0.88,0.47
9523,00:00:54.272,IMU3,0.16,0.01,9.8,0.0,0.0,0.0,24.06,-16.81,-42.25,0.01,-0.0,0.87,0.49
9523,00:00:54.272,IMU4,0.2,0.06,9.84,0.0,0.0,0.0,9.62,-4.56,-25.12,0.01,-0.0,0.85,0.53
9524,00:00:54.278,IMU1,0.34,0.01,9.71,0.0,0.0,0.0,36.25,-10.44,-38.94,0.02,-0.01,0.79,0.61
9524,00:00:54.278,IMU2,0.2,0.11,9.79,0.0,0.0,0.0,33.75,-24.56,-46.0,0.01,0.0,0.88,0.47
9524,00:00:54.278,IMU3,0.16,0.01,9.8,0.0,0.0,0.0,24.06,-16.81,-42.25,0.01,-0.0,0.87,0.49
9524,00:00:54.278,IMU4,0.2,0.06,9.84,0.0,0.0,0.0,9.62,-4.56,-25.12,0.01,-0.0,0.85,0.53
9525,00:00:54.282,IMU1,0.34,0.01,9.71,0.0,0.0,0.0,36.25,-10.44,-38.94,0.02,-0.01,0.79,0.61
9525,00:00:54.282,IMU2,0.2,0.11,9.79,0.0,0.0,0.0,33.75,-24.56,-46.0,0.01,0.0,0.88,0.47
9525,00:00:54.282,IMU3,0.16,0.01,9.8,0.0,0.0,0.0,24.06,-16.81,-42.25,0.01,-0.0,0.87,0.49
9525,00:00:54.282,IMU4,0.2,0.06,9.84,0.0,0.0,0.0,9.62,-4.56,-25.12,0.01,-0.0,0.85,0.53
9526,00:00:54.288,IMU1,0.34,0.01,9.71,0.0,0.0,0.0,36.25,-10.44,-38.94,0.02,-0.01,0.79,0.61
9526,00:00:54.288,IMU2,0.2,0.11,9.79,0.0,0.0,0.0,33.75,-24.56,-46.0,0.01,0.0,0.88,0.47
9526,00:00:54.288,IMU3,0.16,0.01,9.8,0.0,0.0,0.0,24.06,-16.81,-42.25,0.01,-0.0,0.87,0.49
9526,00:00:54.288,IMU4,0.16,0.06,9.8,0.0,0.0,0.0,9.62,-4.56,-25.12,0.01,-0.0,0.85,0.53
9527,00:00:54.291,IMU1,0.34,0.01,9.71,0.0,0.0,0.0,36.25,-10.44,-38.94,0.02,-0.01,0.79,0.61
9527,00:00:54.291,IMU2,0.2,0.11,9.79,0.0,0.0,0.0,33.75,-24.56,-46.0,0.01,0.0,0.88,0.47
9527,00:00:54.291,IMU3,0.16,0.01,9.8,0.0,0.0,0.0,24.06,-16.81,-42.25,0.01,-0.0,0.87,0.49
9527,00:00:54.291,IMU4,0.16,0.06,9.8,0.0,0.0,0.0,8.75,-6.5,-25.88,0.01,-0.0,0.85,0.53
9528,00:00:54.296,IMU1,0.34,0.01,9.71,0.0,0.0,0.0,36.25,-10.44,-38.94,0.02,-0.01,0.79,0.61
9528,00:00:54.296,IMU2,0.2,0.11,9.79,0.0,0.0,0.0,33.75,-24.56,-46.0,0.01,0.0,0.88,0.47
9528,00:00:54.296,IMU3,0.2,0.01,9.81,0.0,0.0,0.0,24.06,-16.81,-42.25,0.01,-0.0,0.87,0.49
9528,00:00:54.296,IMU4,0.16,0.06,9.8,0.0,0.0,0.0,8.75,-6.5,-25.88,0.01,-0.0,0.85,0.53
9529,00:00:54.301,IMU1,0.34,0.01,9.71,0.0,0.0,0.0,36.25,-10.44,-38.94,0.02,-0.01,0.79,0.61
9529,00:00:54.301,IMU2,0.2,0.11,9.79,0.0,0.0,0.0,33.75,-24.56,-46.0,0.01,0.0,0.88,0.47
9529,00:00:54.301,IMU3,0.2,0.01,9.81,0.0,0.0,0.0,25.56,-16.38,-44.75,0.01,-0.0,0.87,0.49
9529,00:00:54.301,IMU4,0.16,0.06,9.8,0.0,0.0,0.0,8.75,-6.5,-25.88,0.01,-0.0,0.85,0.53
9530,00:00:54.307,IMU1,0.34,0.01,9.71,0.0,0.0,0.0,36.25,-10.44,-38.94,0.02,-0.01,0.79,0.61
9530,00:00:54.307,IMU2,0.2,0.11,9.79,0.0,0.0,0.0,33.75,-24.56,-46.0,0.01,0.0,0.88,0.47
9530,00:00:54.307,IMU3,0.2,0.01,9.81,0.0,0.0,0.0,25.56,-16.38,-44.75,0.01,-0.0,0.87,0.49
9530,00:00:54.307,IMU4,0.16,0.06,9.8,0.0,0.0,0.0,8.75,-6.5,-25.88,0.01,-0.0,0.85,0.53
9531,00:00:54.311,IMU1,0.38,0.01,9.83,0.0,0.0,0.0,36.25,-10.44,-38.94,0.02,-0.01,0.79,0.61
9531,00:00:54.311,IMU2,0.2,0.11,9.79,0.0,0.0,0.0,33.75,-24.56,-46.0,0.01,0.0,0.88,0.47
9531,00:00:54.311,IMU3,0.2,0.01,9.81,0.0,0.0,0.0,25.56,-16.38,-44.75,0.01,-0.0,0.87,0.49
9531,00:00:54.311,IMU4,0.16,0.06,9.8,0.0,0.0,0.0,8.75,-6.5,-25.88,0.01,-0.0,0.85,0.53
9532,00:00:54.319,IMU1,0.38,0.01,9.83,0.0,0.0,0.0,36.94,-10.19,-40.75,0.02,-0.01,0.79,0.61
9532,00:00:54.319,IMU2,0.2,0.11,9.79,0.0,0.0,0.0,33.75,-24.56,-46.0,0.01,0.0,0.88,0.47
9532,00:00:54.319,IMU3,0.2,0.01,9.81,0.0,0.0,0.0,25.56,-16.38,-44.75,0.01,-0.0,0.87,0.49
9532,00:00:54.319,IMU4,0.16,0.02,9.84,0.0,0.0,0.0,8.75,-6.5,-25.88,0.01,-0.0,0.85,0.53
9533,00:00:54.322,IMU1,0.38,0.01,9.83,0.0,0.0,0.0,36.94,-10.19,-40.75,0.02,-0.01,0.79,0.61
9533,00:00:54.322,IMU2,0.2,0.11,9.83,0.0,0.0,0.0,33.75,-24.56,-46.0,0.01,0.0,0.88,0.47
9533,00:00:54.322,IMU3,0.2,0.01,9.81,0.0,0.0,0.0,25.56,-16.38,-44.75,0.01,-0.0,0.87,0.49
9533,00:00:54.322,IMU4,0.16,0.02,9.84,0.0,0.0,0.0,8.75,-6.5,-25.88,0.01,-0.0,0.85,0.53
9534,00:00:54.329,IMU1,0.38,0.01,9.83,0.0,0.0,0.0,36.94,-10.19,-40.75,0.02,-0.01,0.79,0.61
9534,00:00:54.329,IMU2,0.2,0.11,9.83,0.0,0.0,0.0,33.75,-24.56,-46.0,0.01,0.0,0.88,0.47
9534,00:00:54.329,IMU3,0.16,0.08,9.77,0.0,0.0,0.0,25.56,-16.38,-44.75,0.01,-0.0,0.87,0.49
9534,00:00:54.329,IMU4,0.16,0.02,9.84,0.0,0.0,0.0,10.62,-4.38,-25.69,0.01,-0.0,0.85,0.53
9535,00:00:54.332,IMU1,0.38,0.01,9.83,0.0,0.0,0.0,36.94,-10.19,-40.75,0.02,-0.01,0.79,0.61
9535,00:00:54.332,IMU2,0.2,0.11,9.83,0.0,0.0,0.0,34.56,-26.06,-46.12,0.01,0.0,0.88,0.47
9535,00:00:54.332,IMU3,0.16,0.08,9.77,0.0,0.0,0.0,25.94,-17.44,-44.25,0.01,-0.0,0.87,0.49
9535,00:00:54.332,IMU4,0.16,0.02,9.84,0.0,0.0,0.0,10.62,-4.38,-25.69,0.01,-0.0,0.85,0.53
10434,00:00:54.269,IMU5,0.26,0.29,9.78,0.0,0.0,0.0,33.56,-9.62,-19.5,0.02,0.01,0.8,0.61
10434,00:00:54.269,IMU6,0.18,0.12,9.82,0.0,0.0,0.0,24.12,-5.62,-16.62,0.01,0.0,0.78,0.62
10434,00:00:54.269,IMU7,0.38,0.19,9.79,-0.01,0.0,-0.0,21.44,-9.12,-19.94,0.02,-0.01,0.83,0.55
10435,00:00:54.273,IMU5,0.26,0.29,9.78,0.0,0.0,0.0,33.56,-9.62,-19.5,0.02,0.01,0.8,0.61
10435,00:00:54.273,IMU6,0.18,0.12,9.82,0.0,0.0,0.0,24.12,-5.62,-16.62,0.01,0.0,0.78,0.62
10435,00:00:54.273,IMU7,0.38,0.19,9.79,0.0,0.0,0.0,21.44,-9.12,-19.94,0.02,-0.01,0.83,0.55
10436,00:00:54.278,IMU5,0.26,0.29,9.78,0.0,0.0,0.0,33.56,-9.62,-19.5,0.02,0.01,0.8,0.61
10436,00:00:54.278,IMU6,0.18,0.12,9.82,0.0,0.0,0.0,24.12,-5.62,-16.62,0.01,0.0,0.78,0.62
10436,00:00:54.278,IMU7,0.38,0.19,9.79,0.0,0.0,0.0,20.5,-8.31,-18.25,0.02,-0.01,0.83,0.55
10437,00:00:54.281,IMU5,0.26,0.29,9.78,0.0,0.0,0.0,33.56,-9.62,-19.5,0.02,0.01,0.8,0.61
10437,00:00:54.281,IMU6,0.18,0.12,9.82,0.0,0.0,0.0,24.12,-5.62,-16.62,0.01,0.0,0.78,0.62
10437,00:00:54.281,IMU7,0.38,0.19,9.79,0.0,0.0,0.0,20.5,-8.31,-18.25,0.02,-0.01,0.83,0.55
10438,00:00:54.289,IMU5,0.15,0.29,9.79,0.0,0.0,0.0,33.56,-9.62,-19.5,0.02,0.01,0.8,0.61
10438,00:00:54.289,IMU6,0.18,0.12,9.82,0.0,0.0,0.0,24.12,-5.62,-16.62,0.01,0.0,0.78,0.62
10438,00:00:54.289,IMU7,0.38,0.19,9.79,0.0,-0.0,0.0,20.5,-8.31,-18.25,0.02,-0.01,0.83,0.55
10439,00:00:54.292,IMU5,0.15,0.29,9.79,0.0,0.0,0.0,33.56,-9.62,-19.5,0.02,0.01,0.8,0.61
10439,00:00:54.292,IMU6,0.18,0.12,9.82,0.0,0.0,0.0,24.12,-5.62,-16.62,0.01,0.0,0.78,0.62
10439,00:00:54.292,IMU7,0.38,0.19,9.79,0.0,-0.0,0.0,20.5,-8.31,-18.25,0.02,-0.01,0.83,0.55
10440,00:00:54.300,IMU5,0.15,0.29,9.79,0.0,0.0,0.0,34.62,-10.5,-20.0,0.02,0.01,0.8,0.61
10440,00:00:54.300,IMU6,0.18,0.12,9.82,0.0,0.0,0.0,24.12,-5.62,-16.62,0.01,0.0,0.78,0.62
10440,00:00:54.300,IMU7,0.38,0.19,9.79,0.0,0.0,-0.0,20.5,-8.31,-18.25,0.02,-0.01,0.83,0.55
10441,00:00:54.302,IMU5,0.15,0.29,9.79,0.0,0.0,0.0,34.62,-10.5,-20.0,0.02,0.01,0.8,0.61
10441,00:00:54.302,IMU6,0.18,0.12,9.82,0.0,0.0,0.0,24.12,-5.62,-16.62,0.01,0.0,0.78,0.62
10441,00:00:54.302,IMU7,0.38,0.19,9.79,0.0,0.0,-0.0,20.5,-8.31,-18.25,0.02,-0.01,0.83,0.55
10442,00:00:54.315,IMU5,0.15,0.29,9.79,0.0,0.0,0.0,34.62,-10.5,-20.0,0.02,0.01,0.8,0.61
10442,00:00:54.315,IMU6,0.18,0.12,9.82,0.0,0.0,0.0,25.0,-6.06,-15.94,0.01,0.0,0.78,0.62
10442,00:00:54.315,IMU7,0.38,0.19,9.79,-0.0,0.01,-0.0,20.5,-8.31,-18.25,0.02,-0.01,0.83,0.55
10443,00:00:54.320,IMU5,0.15,0.29,9.79,0.0,0.0,0.0,34.62,-10.5,-20.0,0.02,0.01,0.8,0.61
10443,00:00:54.320,IMU6,0.18,0.12,9.82,0.0,0.0,0.0,25.0,-6.06,-15.94,0.01,0.0,0.78,0.62
10443,00:00:54.320,IMU7,0.38,0.19,9.79,-0.0,0.01,-0.0,20.5,-8.31,-18.25,0.02,-0.01,0.83,0.55
10444,00:00:54.331,IMU5,0.15,0.29,9.79,0.0,0.0,0.0,34.62,-10.5,-20.0,0.02,0.01,0.8,0.61
10444,00:00:54.331,IMU6,0.18,0.12,9.82,0.0,0.0,0.0,25.0,-6.06,-15.94,0.01,0.0,0.78,0.62
10444,00:00:54.331,IMU7,0.38,0.19,9.79,-0.0,0.0,0.0,20.5,-8.31,-18.25,0.02,-0.01,0.83,0.55
10445,00:00:54.334,IMU5,0.15,0.29,9.79,0.0,0.0,0.0,34.62,-10.5,-20.0,0.02,0.01,0.8,0.61
10445,00:00:54.334,IMU6,0.18,0.12,9.82,0.0,0.0,0.0,25.0,-6.06,-15.94,0.01,0.0,0.78,0.62
10445,00:00:54.334,IMU7,0.38,0.19,9.79,-0.0,0.0,0.0,20.5,-8.31,-18.25,0.02,-0.01,0.83,0.55
10446,00:00:54.342,IMU5,0.15,0.29,9.79,0.0,0.0,0.0,34.62,-10.5,-20.0,0.02,0.01,0.8,0.61
10446,00:00:54.342,IMU6,0.18,0.12,9.82,0.0,0.0,0.0,25.0,-6.06,-15.94,0.01,0.0,0.78,0.62
10446,00:00:54.342,IMU7,0.38,0.19,9.79,-0.0,0.0,0.0,20.5,-8.31,-18.25,0.02,-0.01,0.83,0.55
10447,00:00:54.345,IMU5,0.15,0.29,9.79,0.0,0.0,0.0,34.62,-10.5,-20.0,0.02,0.01,0.8,0.61
10447,00:00:54.345,IMU6,0.18,0.12,9.82,0.0,0.0,0.0,25.0,-6.06,-15.94,0.01,0.0,0.78,0.62
10447,00:00:54.345,IMU7,0.38,0.19,9.79,-0.0,0.0,0.0,20.5,-8.31,-18.25,0.02,-0.01,0.83,0.55
10448,00:00:54.351,IMU5,0.15,0.25,9.75,0.0,0.0,0.0,34.62,-10.5,-20.0,0.02,0.01,0.8,0.61
10448,00:00:54.351,IMU6,0.1,0.2,9.86,0.0,0.0,0.0,25.0,-6.06,-15.94,0.01,0.0,0.78,0.62
10448,00:00:54.351,IMU7,0.38,0.19,9.79,-0.0,0.0,0.0,20.5,-8.31,-18.25,0.02,-0.01,0.83,0.55
10449,00:00:54.354,IMU5,0.15,0.25,9.75,0.0,0.0,0.0,33.94,-10.06,-19.94,0.02,0.01,0.8,0.61
10449,00:00:54.354,IMU6,0.1,0.2,9.86,0.0,0.0,0.0,26.38,-7.12,-15.5,0.01,0.0,0.78,0.62
10449,00:00:54.354,IMU7,0.38,0.19,9.79,-0.0,0.0,0.0,20.5,-8.31,-18.25,0.02,-0.01,0.83,0.55
10450,00:00:54.360,IMU5,0.15,0.25,9.75,0.0,0.0,0.0,33.94,-10.06,-19.94,0.02,0.01,0.8,0.61
10450,00:00:54.360,IMU6,0.1,0.2,9.86,0.0,0.0,0.0,26.38,-7.12,-15.5,0.01,0.0,0.78,0.62
10450,00:00:54.360,IMU7,0.42,0.15,9.71,-0.0,0.0,0.0,20.5,-8.31,-18.25,0.02,-0.01,0.83,0.55
10451,00:00:54.363,IMU5,0.15,0.25,9.75,0.0,0.0,0.0,33.94,-10.06,-19.94,0.02,0.01,0.8,0.61
10451,00:00:54.363,IMU6,0.1,0.2,9.86,0.0,0.0,0.0,26.38,-7.12,-15.5,0.01,0.0,0.78,0.62
10451,00:00:54.363,IMU7,0.42,0.15,9.71,-0.0,0.0,0.0,20.62,-8.38,-19.06,0.02,-0.01,0.83,0.55
10452,00:00:54.368,IMU5,0.15,0.25,9.75,0.0,0.0,0.0,33.94,-10.06,-19.94,0.02,0.01,0.8,0.61
10452,00:00:54.368,IMU6,0.1,0.2,9.86,0.0,0.0,0.0,26.38,-7.12,-15.5,0.01,0.0,0.78,0.62
10452,00:00:54.368,IMU7,0.42,0.15,9.71,0.0,-0.0,-0.0,20.62,-8.38,-19.06,0.02,-0.01,0.83,0.55
10453,00:00:54.371,IMU5,0.15,0.25,9.75,0.0,0.0,0.0,33.94,-10.06,-19.94,0.02,0.01,0.8,0.61
10453,00:00:54.371,IMU6,0.1,0.2,9.86,0.0,0.0,0.0,26.38,-7.12,-15.5,0.01,0.0,0.78,0.62
10453,00:00:54.371,IMU7,0.42,0.15,9.71,0.0,-0.0,-0.0,20.62,-8.38,-19.06,0.02,-0.01,0.83,0.55
9536,00:00:54.338,IMU1,0.38,0.01,9.83,0.0,0.0,0.0,36.94,-10.19,-40.75,0.02,-0.01,0.79,0.61
9536,00:00:54.338,IMU2,0.2,0.11,9.83,0.0,0.0,0.0,34.56,-26.06,-46.12,0.01,0.0,0.88,0.47
9536,00:00:54.338,IMU3,0.16,0.08,9.77,0.0,0.0,0.0,25.94,-17.44,-44.25,0.01,-0.0,0.87,0.49
9536,00:00:54.338,IMU4,0.16,0.02,9.84,0.0,0.0,0.0,10.62,-4.38,-25.69,0.01,-0.0,0.85,0.53
9537,00:00:54.342,IMU1,0.38,0.01,9.83,0.0,0.0,0.0,36.94,-10.19,-40.75,0.02,-0.01,0.79,0.61
9537,00:00:54.342,IMU2,0.2,0.11,9.83,0.0,0.0,0.0,34.56,-26.06,-46.12,0.01,0.0,0.88,0.47
9537,00:00:54.342,IMU3,0.16,0.08,9.77,0.0,0.0,0.0,25.94,-17.44,-44.25,0.01,-0.0,0.87,0.49
9537,00:00:54.342,IMU4,0.16,0.02,9.84,0.0,0.0,0.0,10.62,-4.38,-25.69,0.01,-0.0,0.85,0.53
9538,00:00:54.348,IMU1,0.38,0.01,9.83,0.0,0.0,0.0,36.94,-10.19,-40.75,0.02,-0.01,0.79,0.61
9538,00:00:54.348,IMU2,0.2,0.11,9.83,0.0,0.0,0.0,34.56,-26.06,-46.12,0.01,0.0,0.88,0.47
9538,00:00:54.348,IMU3,0.16,0.08,9.77,0.0,0.0,0.0,25.94,-17.44,-44.25,0.01,-0.0,0.87,0.49
9538,00:00:54.348,IMU4,0.16,0.02,9.84,0.0,0.0,0.0,10.62,-4.38,-25.69,0.01,-0.0,0.85,0.53
9539,00:00:54.352,IMU1,0.38,0.01,9.83,0.0,0.0,0.0,36.94,-10.19,-40.75,0.02,-0.01,0.79,0.61
9539,00:00:54.352,IMU2,0.2,0.11,9.83,0.0,0.0,0.0,34.56,-26.06,-46.12,0.01,0.0,0.88,0.47
9539,00:00:54.352,IMU3,0.16,0.08,9.77,0.0,0.0,0.0,25.94,-17.44,-44.25,0.01,-0.0,0.87,0.49
9539,00:00:54.352,IMU4,0.16,0.02,9.84,0.0,0.0,0.0,10.62,-4.38,-25.69,0.01,-0.0,0.85,0.53
9540,00:00:54.359,IMU1,0.38,0.01,9.83,0.0,0.0,0.0,36.94,-10.19,-40.75,0.02,-0.01,0.79,0.61
9540,00:00:54.359,IMU2,0.2,0.11,9.83,0.0,0.0,0.0,34.56,-26.06,-46.12,0.01,0.0,0.88,0.47
9540,00:00:54.359,IMU3,0.16,0.08,9.77,0.0,0.0,0.0,25.94,-17.44,-44.25,0.01,-0.0,0.87,0.49
9540,00:00:54.359,IMU4,0.16,0.02,9.84,0.0,0.0,0.0,10.62,-4.38,-25.69,0.01,-0.0,0.85,0.53
9541,00:00:54.363,IMU1,0.34,0.04,9.79,0.0,0.0,0.0,36.94,-10.19,-40.75,0.02,-0.01,0.79,0.61
9541,00:00:54.363,IMU2,0.16,0.11,9.83,0.0,0.0,0.0,34.56,-26.06,-46.12,0.01,0.0,0.88,0.47
9541,00:00:54.363,IMU3,0.16,0.08,9.77,0.0,0.0,0.0,24.06,-17.19,-42.25,0.01,-0.0,0.87,0.49
9541,00:00:54.363,IMU4,0.16,0.02,9.84,0.0,0.0,0.0,10.62,-4.38,-25.69,0.01,-0.0,0.85,0.53
9542,00:00:54.369,IMU1,0.34,0.04,9.79,0.0,0.0,0.0,37.56,-10.19,-40.0,0.02,-0.01,0.79,0.61
9542,00:00:54.369,IMU2,0.16,0.11,9.83,0.0,0.0,0.0,34.56,-26.06,-46.12,0.01,0.0,0.88,0.47
9542,00:00:54.369,IMU3,0.16,0.08,9.77,0.0,0.0,0.0,24.06,-17.19,-42.25,0.01,-0.0,0.87,0.49
9542,00:00:54.369,IMU4,0.16,0.02,9.84,0.0,0.0,0.0,10.62,-4.38,-25.69,0.01,-0.0,0.85,0.53
9543,00:00:54.373,IMU1,0.34,0.04,9.79,0.0,0.0,0.0,37.56,-10.19,-40.0,0.02,-0.01,0.79,0.61
9543,00:00:54.373,IMU2,0.16,0.11,9.83,0.0,0.0,0.0,36.81,-25.12,-48.06,0.01,0.0,0.88,0.47
9543,00:00:54.373,IMU3,0.16,0.08,9.77,0.0,0.0,0.0,24.06,-17.19,-42.25,0.01,-0.0,0.87,0.49
9543,00:00:54.373,IMU4,0.16,0.02,9.84,0.0,0.0,0.0,10.62,-4.38,-25.69,0.01,-0.0,0.85,0.53
10454,00:00:54.378,IMU5,0.15,0.25,9.75,0.0,0.0,0.0,33.94,-10.06,-19.94,0.02,0.01,0.8,0.61
10454,00:00:54.378,IMU6,0.14,0.16,9.79,0.0,0.0,0.0,26.38,-7.12,-15.5,0.01,0.0,0.78,0.62
10454,00:00:54.378,IMU7,0.42,0.15,9.71,-0.0,0.0,-0.0,20.62,-8.38,-19.06,0.02,-0.01,0.83,0.55
10455,00:00:54.381,IMU5,0.15,0.25,9.75,0.0,0.0,0.0,33.94,-10.06,-19.94,0.02,0.01,0.8,0.61
10455,00:00:54.381,IMU6,0.14,0.16,9.79,0.0,0.0,0.0,26.38,-7.12,-15.5,0.01,0.0,0.78,0.62
10455,00:00:54.381,IMU7,0.42,0.15,9.71,-0.0,0.0,-0.0,20.62,-8.38,-19.06,0.02,-0.01,0.83,0.55
9544,00:00:54.378,IMU1,0.34,0.04,9.79,0.0,0.0,0.0,37.56,-10.19,-40.0,0.02,-0.01,0.79,0.61
9544,00:00:54.378,IMU2,0.16,0.11,9.83,0.0,0.0,0.0,36.81,-25.12,-48.06,0.01,0.0,0.88,0.47
9544,00:00:54.378,IMU3,0.16,0.08,9.77,0.0,0.0,0.0,24.06,-17.19,-42.25,0.01,-0.0,0.87,0.49
9544,00:00:54.378,IMU4,0.2,0.1,9.8,0.0,0.0,0.0,10.62,-4.38,-25.69,0.01,-0.0,0.85,0.53
9545,00:00:54.385,IMU1,0.34,0.04,9.79,0.0,0.0,0.0,37.56,-10.19,-40.0,0.02,-0.01,0.79,0.61
9545,00:00:54.385,IMU2,0.16,0.11,9.83,0.0,0.0,0.0,36.81,-25.12,-48.06,0.01,0.0,0.88,0.47
9545,00:00:54.385,IMU3,0.16,0.08,9.77,0.0,0.0,0.0,24.06,-17.19,-42.25,0.01,-0.0,0.87,0.49
9545,00:00:54.385,IMU4,0.2,0.1,9.8,0.0,0.0,0.0,11.06,-5.25,-27.44,0.01,-0.0,0.85,0.53
9546,00:00:54.391,IMU1,0.34,0.04,9.79,0.0,0.0,0.0,37.56,-10.19,-40.0,0.02,-0.01,0.79,0.61
9546,00:00:54.391,IMU2,0.16,0.11,9.83,0.0,0.0,0.0,36.81,-25.12,-48.06,0.01,0.0,0.88,0.47
9546,00:00:54.391,IMU3,0.16,0.08,9.77,0.0,0.0,0.0,24.06,-17.19,-42.25,0.01,-0.0,0.87,0.49
9546,00:00:54.391,IMU4,0.2,0.1,9.8,0.0,0.0,0.0,11.06,-5.25,-27.44,0.01,-0.0,0.85,0.53
9547,00:00:54.395,IMU1,0.34,0.04,9.79,0.0,0.0,0.0,37.56,-10.19,-40.0,0.02,-0.01,0.79,0.61
9547,00:00:54.395,IMU2,0.16,0.11,9.83,0.0,0.0,0.0,36.81,-25.12,-48.06,0.01,0.0,0.88,0.47
9547,00:00:54.395,IMU3,0.16,0.08,9.77,0.0,0.0,0.0,24.06,-17.19,-42.25,0.01,-0.0,0.87,0.49
9547,00:00:54.395,IMU4,0.2,0.1,9.8,0.0,0.0,0.0,11.06,-5.25,-27.44,0.01,-0.0,0.85,0.53
9548,00:00:54.400,IMU1,0.34,0.04,9.79,0.0,0.0,0.0,37.56,-10.19,-40.0,0.02,-0.01,0.79,0.61
9548,00:00:54.400,IMU2,0.16,0.11,9.83,0.0,0.0,0.0,36.81,-25.12,-48.06,0.01,0.0,0.88,0.47
9548,00:00:54.400,IMU3,0.2,0.12,9.84,0.0,0.0,0.0,24.06,-17.19,-42.25,0.01,-0.0,0.87,0.49
9548,00:00:54.400,IMU4,0.2,0.1,9.8,0.0,0.0,0.0,11.06,-5.25,-27.44,0.01,-0.0,0.85,0.53
10456,00:00:54.388,IMU5,0.22,0.32,9.75,0.0,0.0,0.0,33.94,-10.06,-19.94,0.02,0.01,0.8,0.61
10456,00:00:54.388,IMU6,0.14,0.16,9.79,0.0,0.0,0.0,26.5,-5.69,-16.81,0.01,0.0,0.78,0.62
10456,00:00:54.388,IMU7,0.42,0.15,9.71,0.0,0.0,0.0,20.62,-8.38,-19.06,0.02,-0.01,0.83,0.55
10457,00:00:54.391,IMU5,0.22,0.32,9.75,0.0,0.0,0.0,33.94,-10.06,-19.94,0.02,0.01,0.8,0.61
10457,00:00:54.391,IMU6,0.14,0.16,9.79,0.0,0.0,0.0,26.5,-5.69,-16.81,0.01,0.0,0.78,0.62
10457,00:00:54.391,IMU7,0.42,0.15,9.71,0.0,0.0,0.0,20.62,-8.38,-19.06,0.02,-0.01,0.83,0.55
10458,00:00:54.397,IMU5,0.22,0.32,9.75,0.0,0.0,0.0,33.12,-9.62,-19.12,0.02,0.01,0.8,0.61
10458,00:00:54.397,IMU6,0.14,0.16,9.79,0.0,0.0,0.0,26.5,-5.69,-16.81,0.01,0.0,0.78,0.62
10458,00:00:54.397,IMU7,0.42,0.15,9.71,0.0,0.0,0.0,20.62,-8.38,-19.06,0.02,-0.01,0.83,0.55
10459,00:00:54.400,IMU5,0.22,0.32,9.75,0.0,0.0,0.0,33.12,-9.62,-19.12,0.02,0.01,0.8,0.61
10459,00:00:54.400,IMU6,0.14,0.16,9.79,0.0,0.0,0.0,26.5,-5.69,-16.81,0.01,0.0,0.78,0.62
10459,00:00:54.400,IMU7,0.42,0.15,9.71,0.0,0.0,0.0,20.62,-8.38,-19.06,0.02,-0.01,0.83,0.55
9549,00:00:54.404,IMU1,0.34,0.04,9.79,0.0,0.0,0.0,37.56,-10.19,-40.0,0.02,-0.01,0.79,0.61
9549,00:00:54.404,IMU2,0.16,0.11,9.83,0.0,0.0,0.0,36.81,-25.12,-48.06,0.01,0.0,0.88,0.47
9549,00:00:54.404,IMU3,0.2,0.12,9.84,0.0,0.0,0.0,25.94,-19.25,-43.75,0.01,-0.0,0.87,0.49
9549,00:00:54.404,IMU4,0.2,0.1,9.8,0.0,0.0,0.0,11.06,-5.25,-27.44,0.01,-0.0,0.85,0.53
9550,00:00:54.410,IMU1,0.34,0.04,9.79,0.0,0.0,0.0,37.56,-10.19,-40.0,0.02,-0.01,0.79,0.61
9550,00:00:54.410,IMU2,0.16,0.11,9.83,0.0,0.0,0.0,36.81,-25.12,-48.06,0.01,0.0,0.88,0.47
9550,00:00:54.410,IMU3,0.2,0.12,9.84,0.0,0.0,0.0,25.94,-19.25,-43.75,0.01,-0.0,0.87,0.49
9550,00:00:54.410,IMU4,0.2,0.1,9.8,0.0,0.0,0.0,11.06,-5.25,-27.44,0.01,-0.0,0.85,0.53
10460,00:00:54.408,IMU5,0.22,0.32,9.75,0.0,0.0,0.0,33.12,-9.62,-19.12,0.02,0.01,0.8,0.61
10460,00:00:54.408,IMU6,0.14,0.16,9.79,0.0,0.0,0.0,26.5,-5.69,-16.81,0.01,0.0,0.78,0.62
10460,00:00:54.408,IMU7,0.42,0.11,9.79,0.0,0.0,0.0,20.62,-8.38,-19.06,0.02,-0.01,0.83,0.55
9551,00:00:54.415,IMU1,0.38,0.01,9.75,0.0,0.0,0.0,37.56,-10.19,-40.0,0.02,-0.01,0.79,0.61
9551,00:00:54.415,IMU2,0.16,0.11,9.83,0.0,0.0,0.0,36.81,-25.12,-48.06,0.01,0.0,0.88,0.47
9551,00:00:54.415,IMU3,0.2,0.12,9.84,0.0,0.0,0.0,25.94,-19.25,-43.75,0.01,-0.0,0.87,0.49
9551,00:00:54.415,IMU4,0.2,0.1,9.8,0.0,0.0,0.0,11.06,-5.25,-27.44,0.01,-0.0,0.85,0.53
10461,00:00:54.411,IMU5,0.22,0.32,9.75,0.0,0.0,0.0,33.12,-9.62,-19.12,0.02,0.01,0.8,0.61
10461,00:00:54.411,IMU6,0.14,0.16,9.79,0.0,0.0,0.0,26.5,-5.69,-16.81,0.01,0.0,0.78,0.62
10461,00:00:54.411,IMU7,0.42,0.11,9.79,0.0,0.0,0.0,20.62,-8.38,-19.06,0.02,-0.01,0.83,0.55
10462,00:00:54.416,IMU5,0.22,0.32,9.75,0.0,0.0,0.0,33.12,-9.62,-19.12,0.02,0.01,0.8,0.61
10462,00:00:54.416,IMU6,0.14,0.16,9.79,0.0,0.0,0.0,26.5,-5.69,-16.81,0.01,0.0,0.78,0.62
10462,00:00:54.416,IMU7,0.42,0.11,9.79,0.0,0.0,0.0,21.31,-9.44,-18.75,0.02,-0.01,0.83,0.55
10463,00:00:54.419,IMU5,0.22,0.32,9.75,0.0,0.0,0.0,33.12,-9.62,-19.12,0.02,0.01,0.8,0.61
10463,00:00:54.419,IMU6,0.14,0.16,9.79,0.0,0.0,0.0,26.5,-5.69,-16.81,0.01,0.0,0.78,0.62
10463,00:00:54.419,IMU7,0.42,0.11,9.79,0.0,0.0,0.0,21.31,-9.44,-18.75,0.02,-0.01,0.83,0.55
9552,00:00:54.421,IMU1,0.38,0.01,9.75,0.0,0.0,0.0,37.56,-10.19,-40.0,0.02,-0.01,0.79,0.61
9552,00:00:54.421,IMU2,0.16,0.11,9.83,0.0,0.0,0.0,36.81,-25.12,-48.06,0.01,0.0,0.88,0.47
9552,00:00:54.421,IMU3,0.2,0.12,9.84,0.0,0.0,0.0,25.94,-19.25,-43.75,0.01,-0.0,0.87,0.49
9552,00:00:54.421,IMU4,0.16,0.06,9.8,0.0,0.0,0.0,11.06,-5.25,-27.44,0.01,-0.0,0.85,0.53
10464,00:00:54.427,IMU5,0.22,0.32,9.79,0.0,0.0,0.0,33.12,-9.62,-19.12,0.02,0.01,0.8,0.61
10464,00:00:54.427,IMU6,0.14,0.16,9.79,0.0,0.0,0.0,26.5,-5.69,-16.81,0.01,0.0,0.78,0.62
10464,00:00:54.427,IMU7,0.42,0.11,9.79,0.0,0.0,0.0,21.31,-9.44,-18.75,0.02,-0.01,0.83,0.55
9553,00:00:54.424,IMU1,0.38,0.01,9.75,0.0,0.0,0.0,37.88,-10.5,-39.19,0.02,-0.01,0.79,0.61
9553,00:00:54.424,IMU2,0.16,0.11,9.83,0.0,0.0,0.0,36.81,-25.12,-48.06,0.01,0.0,0.88,0.47
9553,00:00:54.424,IMU3,0.2,0.12,9.84,0.0,0.0,0.0,25.94,-19.25,-43.75,0.01,-0.0,0.87,0.49
9553,00:00:54.424,IMU4,0.16,0.06,9.8,0.0,0.0,0.0,10.38,-6.44,-27.5,0.01,-0.0,0.85,0.53
9554,00:00:54.430,IMU1,0.38,0.01,9.75,0.0,0.0,0.0,37.88,-10.5,-39.19,0.02,-0.01,0.79,0.61
9554,00:00:54.430,IMU2,0.16,0.11,9.83,0.0,0.0,0.0,36.81,-25.12,-48.06,0.01,0.0,0.88,0.47
9554,00:00:54.430,IMU3,0.2,0.12,9.84,0.0,0.0,0.0,25.94,-19.25,-43.75,0.01,-0.0,0.87,0.49
9554,00:00:54.430,IMU4,0.16,0.06,9.8,0.0,0.0,0.0,10.38,-6.44,-27.5,0.01,-0.0,0.85,0.53
9555,00:00:54.439,IMU1,0.38,0.01,9.75,0.0,0.0,0.0,37.88,-10.5,-39.19,0.02,-0.01,0.79,0.61
9555,00:00:54.439,IMU2,0.2,0.11,9.83,0.0,0.0,0.0,36.81,-25.12,-48.06,0.01,0.0,0.88,0.47
9555,00:00:54.439,IMU3,0.2,0.12,9.84,0.0,0.0,0.0,25.94,-19.25,-43.75,0.01,-0.0,0.87,0.49
9555,00:00:54.439,IMU4,0.16,0.06,9.8,0.0,0.0,0.0,10.38,-6.44,-27.5,0.01,-0.0,0.85,0.53
10465,00:00:54.430,IMU5,0.22,0.32,9.79,0.0,0.0,0.0,34.31,-8.81,-19.5,0.02,0.01,0.8,0.61
10465,00:00:54.430,IMU6,0.14,0.16,9.79,0.0,0.0,0.0,26.5,-5.69,-16.81,0.01,0.0,0.78,0.62
10465,00:00:54.430,IMU7,0.42,0.11,9.79,0.0,0.0,0.0,21.31,-9.44,-18.75,0.02,-0.01,0.83,0.55
10466,00:00:54.435,IMU5,0.22,0.32,9.79,0.0,0.0,0.0,34.31,-8.81,-19.5,0.02,0.01,0.8,0.61
10466,00:00:54.435,IMU6,0.14,0.09,9.75,0.0,0.0,0.0,26.5,-5.69,-16.81,0.01,0.0,0.78,0.62
10466,00:00:54.435,IMU7,0.42,0.11,9.79,0.0,0.0,0.0,21.31,-9.44,-18.75,0.02,-0.01,0.83,0.55
10467,00:00:54.438,IMU5,0.22,0.32,9.79,0.0,0.0,0.0,34.31,-8.81,-19.5,0.02,0.01,0.8,0.61
10467,00:00:54.438,IMU6,0.14,0.09,9.75,0.0,0.0,0.0,26.44,-5.12,-16.56,0.01,0.0,0.78,0.62
10467,00:00:54.438,IMU7,0.42,0.11,9.79,0.0,0.0,0.0,21.31,-9.44,-18.75,0.02,-0.01,0.83,0.55
10468,00:00:54.443,IMU5,0.22,0.32,9.79,0.0,0.0,0.0,34.31,-8.81,-19.5,0.02,0.01,0.8,0.61
10468,00:00:54.443,IMU6,0.14,0.09,9.75,0.0,0.0,0.0,26.44,-5.12,-16.56,0.01,0.0,0.78,0.62
10468,00:00:54.443,IMU7,0.42,0.11,9.79,0.0,0.0,0.0,21.31,-9.44,-18.75,0.02,-0.01,0.83,0.55
9556,00:00:54.448,IMU1,0.38,0.01,9.75,0.0,0.0,0.0,37.88,-10.5,-39.19,0.02,-0.01,0.79,0.61
9556,00:00:54.448,IMU2,0.2,0.11,9.83,0.0,0.0,0.0,33.81,-23.31,-44.31,0.01,0.0,0.88,0.47
9556,00:00:54.448,IMU3,0.2,0.12,9.84,0.0,0.0,0.0,25.94,-19.25,-43.75,0.01,-0.0,0.87,0.49
9556,00:00:54.448,IMU4,0.16,0.06,9.8,0.0,0.0,0.0,10.38,-6.44,-27.5,0.01,-0.0,0.85,0.53
9557,00:00:54.451,IMU1,0.38,0.01,9.75,0.0,0.0,0.0,37.88,-10.5,-39.19,0.02,-0.01,0.79,0.61
9557,00:00:54.451,IMU2,0.2,0.11,9.83,0.0,0.0,0.0,33.81,-23.31,-44.31,0.01,0.0,0.88,0.47
9557,00:00:54.451,IMU3,0.2,0.12,9.84,0.0,0.0,0.0,25.94,-19.25,-43.75,0.01,-0.0,0.87,0.49
9557,00:00:54.451,IMU4,0.16,0.06,9.8,0.0,0.0,0.0,10.38,-6.44,-27.5,0.01,-0.0,0.85,0.53
9558,00:00:54.455,IMU1,0.38,0.01,9.75,0.0,0.0,0.0,37.88,-10.5,-39.19,0.02,-0.01,0.79,0.61
9558,00:00:54.455,IMU2,0.2,0.11,9.83,0.0,0.0,0.0,33.81,-23.31,-44.31,0.01,0.0,0.88,0.47
9558,00:00:54.455,IMU3,0.16,0.05,9.77,0.0,0.0,0.0,25.94,-19.25,-43.75,0.01,-0.0,0.87,0.49
9558,00:00:54.455,IMU4,0.16,0.06,9.8,0.0,0.0,0.0,10.38,-6.44,-27.5,0.01,-0.0,0.85,0.53
9559,00:00:54.459,IMU1,0.38,0.08,9.83,0.0,0.0,0.0,37.88,-10.5,-39.19,0.02,-0.01,0.79,0.61
9559,00:00:54.459,IMU2,0.2,0.11,9.83,0.0,0.0,0.0,33.81,-23.31,-44.31,0.01,0.0,0.88,0.47
9559,00:00:54.459,IMU3,0.16,0.05,9.77,0.0,0.0,0.0,24.44,-17.12,-43.88,0.01,-0.0,0.87,0.49
9559,00:00:54.459,IMU4,0.16,0.06,9.8,0.0,0.0,0.0,10.38,-6.44,-27.5,0.01,-0.0,0.85,0.53
9560,00:00:54.466,IMU1,0.38,0.08,9.83,0.0,0.0,0.0,37.44,-11.0,-39.12,0.02,-0.01,0.79,0.61
9560,00:00:54.466,IMU2,0.2,0.11,9.83,0.0,0.0,0.0,33.81,-23.31,-44.31,0.01,0.0,0.88,0.47
9560,00:00:54.466,IMU3,0.16,0.05,9.77,0.0,0.0,0.0,24.44,-17.12,-43.88,0.01,-0.0,0.87,0.49
9560,00:00:54.466,IMU4,0.16,0.1,9.8,0.0,0.0,0.0,10.38,-6.44,-27.5,0.01,-0.0,0.85,0.53
10469,00:00:54.446,IMU5,0.22,0.32,9.79,0.0,0.0,0.0,34.31,-8.81,-19.5,0.02,0.01,0.8,0.61
10469,00:00:54.446,IMU6,0.14,0.09,9.75,0.0,0.0,0.0,26.44,-5.12,-16.56,0.01,0.0,0.78,0.62
10469,00:00:54.446,IMU7,0.42,0.11,9.79,0.0,0.0,0.0,21.31,-9.44,-18.75,0.02,-0.01,0.83,0.55
10470,00:00:54.452,IMU5,0.18,0.32,9.82,0.0,0.0,0.0,34.31,-8.81,-19.5,0.02,0.01,0.8,0.61
10470,00:00:54.452,IMU6,0.14,0.09,9.75,0.0,0.0,0.0,26.44,-5.12,-16.56,0.01,0.0,0.78,0.62
10470,00:00:54.452,IMU7,0.42,0.11,9.79,0.0,0.0,0.0,21.31,-9.44,-18.75,0.02,-0.01,0.83,0.55
10471,00:00:54.455,IMU5,0.18,0.32,9.82,0.0,0.0,0.0,33.19,-10.5,-19.88,0.02,0.01,0.8,0.61
10471,00:00:54.455,IMU6,0.14,0.09,9.75,0.0,0.0,0.0,26.44,-5.12,-16.56,0.01,0.0,0.78,0.62
10471,00:00:54.455,IMU7,0.42,0.11,9.79,0.0,0.0,0.0,21.31,-9.44,-18.75,0.02,-0.01,0.83,0.55
10472,00:00:54.461,IMU5,0.18,0.32,9.82,0.0,0.0,0.0,33.19,-10.5,-19.88,0.02,0.01,0.8,0.61
10472,00:00:54.461,IMU6,0.14,0.09,9.75,0.0,0.0,0.0,26.44,-5.12,-16.56,0.01,0.0,0.78,0.62
10472,00:00:54.461,IMU7,0.42,0.11,9.83,0.0,0.0,0.0,21.31,-9.44,-18.75,0.02,-0.01,0.83,0.55
10473,00:00:54.464,IMU5,0.18,0.32,9.82,0.0,0.0,0.0,33.19,-10.5,-19.88,0.02,0.01,0.8,0.61
10473,00:00:54.464,IMU6,0.14,0.09,9.75,0.0,0.0,0.0,26.44,-5.12,-16.56,0.01,0.0,0.78,0.62
10473,00:00:54.464,IMU7,0.42,0.11,9.83,0.0,0.0,0.0,21.31,-9.44,-18.75,0.02,-0.01,0.83,0.55
10474,00:00:54.469,IMU5,0.18,0.32,9.82,0.0,0.0,0.0,33.19,-10.5,-19.88,0.02,0.01,0.8,0.61
10474,00:00:54.469,IMU6,0.14,0.16,9.82,0.0,0.0,0.0,26.44,-5.12,-16.56,0.01,0.0,0.78,0.62
10474,00:00:54.469,IMU7,0.42,0.11,9.83,0.0,0.0,0.0,21.31,-9.44,-18.75,0.02,-0.01,0.83,0.55
10475,00:00:54.472,IMU5,0.18,0.32,9.82,0.0,0.0,0.0,33.19,-10.5,-19.88,0.02,0.01,0.8,0.61
10475,00:00:54.472,IMU6,0.14,0.16,9.82,0.0,0.0,0.0,26.5,-6.25,-16.69,0.01,0.0,0.78,0.62
10475,00:00:54.472,IMU7,0.42,0.11,9.83,0.0,0.0,0.0,21.31,-9.44,-18.75,0.02,-0.01,0.83,0.55
10476,00:00:54.478,IMU5,0.18,0.29,9.79,0.0,0.0,0.0,33.19,-10.5,-19.88,0.02,0.01,0.8,0.61
10476,00:00:54.478,IMU6,0.14,0.16,9.82,0.0,0.0,0.0,26.5,-6.25,-16.69,0.01,0.0,0.78,0.62
10476,00:00:54.478,IMU7,0.42,0.11,9.83,0.0,0.0,0.0,21.31,-9.44,-18.75,0.02,-0.01,0.83,0.55
10477,00:00:54.481,IMU5,0.18,0.29,9.79,0.0,0.0,0.0,34.0,-8.44,-19.81,0.02,0.01,0.8,0.61
10477,00:00:54.481,IMU6,0.14,0.16,9.82,0.0,0.0,0.0,26.5,-6.25,-16.69,0.01,0.0,0.78,0.62
10477,00:00:54.481,IMU7,0.42,0.11,9.83,0.0,0.0,0.0,21.31,-9.44,-18.75,0.02,-0.01,0.83,0.55
9561,00:00:54.470,IMU1,0.38,0.08,9.83,0.0,0.0,0.0,37.44,-11.0,-39.12,0.02,-0.01,0.79,0.61
9561,00:00:54.470,IMU2,0.2,0.11,9.83,0.0,0.0,0.0,33.81,-23.31,-44.31,0.01,0.0,0.88,0.47
9561,00:00:54.470,IMU3,0.16,0.05,9.77,0.0,0.0,0.0,24.44,-17.12,-43.88,0.01,-0.0,0.87,0.49
9561,00:00:54.470,IMU4,0.16,0.1,9.8,0.0,0.0,0.0,12.0,-5.69,-27.06,0.01,-0.0,0.85,0.53
9562,00:00:54.480,IMU1,0.38,0.08,9.83,0.0,0.0,0.0,37.44,-11.0,-39.12,0.02,-0.01,0.79,0.61
9562,00:00:54.480,IMU2,0.2,0.11,9.83,0.0,0.0,0.0,33.81,-23.31,-44.31,0.01,0.0,0.88,0.47
9562,00:00:54.480,IMU3,0.16,0.05,9.77,0.0,0.0,0.0,24.44,-17.12,-43.88,0.01,-0.0,0.87,0.49
9562,00:00:54.480,IMU4,0.16,0.1,9.8,0.0,0.0,0.0,12.0,-5.69,-27.06,0.01,-0.0,0.85,0.53
9563,00:00:54.483,IMU1,0.38,0.08,9.83,0.0,0.0,0.0,37.44,-11.0,-39.12,0.02,-0.01,0.79,0.61
9563,00:00:54.483,IMU2,0.2,0.11,9.83,0.0,0.0,0.0,33.81,-23.31,-44.31,0.01,0.0,0.88,0.47
9563,00:00:54.483,IMU3,0.16,0.05,9.77,0.0,0.0,0.0,24.44,-17.12,-43.88,0.01,-0.0,0.87,0.49
9563,00:00:54.483,IMU4,0.16,0.1,9.8,0.0,0.0,0.0,12.0,-5.69,-27.06,0.01,-0.0,0.85,0.53
9564,00:00:54.491,IMU1,0.38,0.08,9.83,0.0,0.0,0.0,37.44,-11.0,-39.12,0.02,-0.01,0.79,0.61
9564,00:00:54.491,IMU2,0.2,0.11,9.83,0.0,0.0,0.0,33.81,-23.31,-44.31,0.01,0.0,0.88,0.47
9564,00:00:54.491,IMU3,0.16,0.05,9.77,0.0,0.0,0.0,24.44,-17.12,-43.88,0.01,-0.0,0.87,0.49
9564,00:00:54.491,IMU4,0.2,0.14,9.8,0.0,0.0,0.0,12.0,-5.69,-27.06,0.01,-0.0,0.85,0.53
9565,00:00:54.494,IMU1,0.38,0.08,9.83,0.0,0.0,0.0,37.44,-11.0,-39.12,0.02,-0.01,0.79,0.61
9565,00:00:54.494,IMU2,0.2,0.11,9.83,0.0,0.0,0.0,33.81,-23.31,-44.31,0.01,0.0,0.88,0.47
9565,00:00:54.494,IMU3,0.16,0.05,9.77,0.0,0.0,0.0,24.44,-17.12,-43.88,0.01,-0.0,0.87,0.49
9565,00:00:54.494,IMU4,0.2,0.14,9.8,0.0,0.0,0.0,12.0,-5.69,-27.06,0.01,-0.0,0.85,0.53
9566,00:00:54.500,IMU1,0.38,0.08,9.83,0.0,0.0,0.0,37.44,-11.0,-39.12,0.02,-0.01,0.79,0.61
9566,00:00:54.500,IMU2,0.2,0.11,9.83,0.0,0.0,0.0,33.81,-23.31,-44.31,0.01,0.0,0.88,0.47
9566,00:00:54.500,IMU3,0.16,0.12,9.77,0.0,0.0,0.0,24.44,-17.12,-43.88,0.01,-0.0,0.87,0.49
9566,00:00:54.500,IMU4,0.2,0.14,9.8,0.0,0.0,0.0,10.75,-4.56,-26.44,0.01,-0.0,0.85,0.53
9567,00:00:54.504,IMU1,0.38,-0.03,9.83,0.0,0.0,0.0,37.44,-11.0,-39.12,0.02,-0.01,0.79,0.61
9567,00:00:54.504,IMU2,0.2,0.11,9.83,0.0,0.0,0.0,33.81,-23.31,-44.31,0.01,0.0,0.88,0.47
9567,00:00:54.504,IMU3,0.16,0.12,9.77,0.0,0.0,0.0,25.56,-18.88,-43.81,0.01,-0.0,0.87,0.49
9567,00:00:54.504,IMU4,0.2,0.14,9.8,0.0,0.0,0.0,10.75,-4.56,-26.44,0.01,-0.0,0.85,0.53
9568,00:00:54.511,IMU1,0.38,-0.03,9.83,0.0,0.0,0.0,37.44,-11.0,-39.12,0.02,-0.01,0.79,0.61
9568,00:00:54.511,IMU2,0.2,0.11,9.83,0.0,0.0,0.0,33.81,-23.31,-44.31,0.01,0.0,0.88,0.47
9568,00:00:54.511,IMU3,0.16,0.12,9.77,0.0,0.0,0.0,25.56,-18.88,-43.81,0.01,-0.0,0.87,0.49
9568,00:00:54.511,IMU4,0.2,0.14,9.8,0.0,0.0,0.0,10.75,-4.56,-26.44,0.01,-0.0,0.85,0.53
9569,00:00:54.515,IMU1,0.38,-0.03,9.83,0.0,0.0,0.0,36.62,-9.56,-41.12,0.02,-0.01,0.79,0.61
9569,00:00:54.515,IMU2,0.16,0.11,9.83,0.0,0.0,0.0,33.81,-23.31,-44.31,0.01,0.0,0.88,0.47
9569,00:00:54.515,IMU3,0.16,0.12,9.77,0.0,0.0,0.0,25.56,-18.88,-43.81,0.01,-0.0,0.87,0.49
9569,00:00:54.515,IMU4,0.2,0.14,9.8,0.0,0.0,0.0,10.75,-4.56,-26.44,0.01,-0.0,0.85,0.53
10478,00:00:54.486,IMU5,0.18,0.29,9.79,0.0,0.0,0.0,34.0,-8.44,-19.81,0.02,0.01,0.8,0.61
10478,00:00:54.486,IMU6,0.14,0.16,9.82,0.0,0.0,0.0,26.5,-6.25,-16.69,0.01,0.0,0.78,0.62
10478,00:00:54.486,IMU7,0.42,0.11,9.83,0.0,0.0,0.0,21.31,-9.44,-18.75,0.02,-0.01,0.83,0.55
10479,00:00:54.489,IMU5,0.18,0.29,9.79,0.0,0.0,0.0,34.0,-8.44,-19.81,0.02,0.01,0.8,0.61
10479,00:00:54.489,IMU6,0.14,0.16,9.82,0.0,0.0,0.0,26.5,-6.25,-16.69,0.01,0.0,0.78,0.62
10479,00:00:54.489,IMU7,0.42,0.11,9.83,0.0,0.0,0.0,21.31,-9.44,-18.75,0.02,-0.01,0.83,0.55
10480,00:00:54.495,IMU5,0.18,0.32,9.78,0.0,0.0,0.0,34.0,-8.44,-19.81,0.02,0.01,0.8,0.61
10480,00:00:54.495,IMU6,0.14,0.12,9.79,0.0,0.0,0.0,26.5,-6.25,-16.69,0.01,0.0,0.78,0.62
10480,00:00:54.495,IMU7,0.42,0.19,9.79,0.0,0.0,0.0,21.31,-9.44,-18.75,0.02,-0.01,0.83,0.55
10481,00:00:54.497,IMU5,0.18,0.32,9.78,0.0,0.0,0.0,33.25,-8.94,-20.12,0.02,0.01,0.8,0.61
10481,00:00:54.497,IMU6,0.14,0.12,9.79,0.0,0.0,0.0,26.0,-5.94,-16.75,0.01,0.0,0.78,0.62
10481,00:00:54.497,IMU7,0.42,0.19,9.79,0.0,0.0,0.0,20.06,-7.62,-17.81,0.02,-0.01,0.83,0.55
10482,00:00:54.502,IMU5,0.18,0.32,9.78,0.0,0.0,0.0,33.25,-8.94,-20.12,0.02,0.01,0.8,0.61
10482,00:00:54.502,IMU6,0.14,0.12,9.79,0.0,0.0,0.0,26.0,-5.94,-16.75,0.01,0.0,0.78,0.62
10482,00:00:54.502,IMU7,0.42,0.19,9.79,0.0,0.0,0.0,20.06,-7.62,-17.81,0.02,-0.01,0.83,0.55
10483,00:00:54.505,IMU5,0.18,0.32,9.78,0.0,0.0,0.0,33.25,-8.94,-20.12,0.02,0.01,0.8,0.61
10483,00:00:54.505,IMU6,0.14,0.12,9.79,0.0,0.0,0.0,26.0,-5.94,-16.75,0.01,0.0,0.78,0.62
10483,00:00:54.505,IMU7,0.42,0.19,9.79,0.0,0.0,0.0,20.06,-7.62,-17.81,0.02,-0.01,0.83,0.55
10484,00:00:54.510,IMU5,0.18,0.32,9.78,0.0,0.0,0.0,33.25,-8.94,-20.12,0.02,0.01,0.8,0.61
10484,00:00:54.510,IMU6,0.14,0.12,9.79,0.0,0.0,0.0,26.0,-5.94,-16.75,0.01,0.0,0.78,0.62
10484,00:00:54.510,IMU7,0.42,0.19,9.79,0.0,0.0,0.0,20.06,-7.62,-17.81,0.02,-0.01,0.83,0.55
10485,00:00:54.513,IMU5,0.18,0.32,9.78,0.0,0.0,0.0,33.25,-8.94,-20.12,0.02,0.01,0.8,0.61
10485,00:00:54.513,IMU6,0.14,0.12,9.79,0.0,0.0,0.0,26.0,-5.94,-16.75,0.01,0.0,0.78,0.62
10485,00:00:54.513,IMU7,0.42,0.19,9.79,0.0,0.0,0.0,20.06,-7.62,-17.81,0.02,-0.01,0.83,0.55
10486,00:00:54.519,IMU5,0.18,0.32,9.78,0.0,0.0,0.0,33.25,-8.94,-20.12,0.02,0.01,0.8,0.61
10486,00:00:54.519,IMU6,0.14,0.12,9.79,0.0,0.0,0.0,26.0,-5.94,-16.75,0.01,0.0,0.78,0.62
10486,00:00:54.519,IMU7,0.42,0.19,9.83,0.0,0.0,0.0,20.06,-7.62,-17.81,0.02,-0.01,0.83,0.55
9570,00:00:54.521,IMU1,0.38,-0.03,9.83,0.0,0.0,0.0,36.62,-9.56,-41.12,0.02,-0.01,0.79,0.61
9570,00:00:54.521,IMU2,0.16,0.11,9.83,0.0,0.0,0.0,33.81,-23.31,-44.31,0.01,0.0,0.88,0.47
9570,00:00:54.521,IMU3,0.16,0.12,9.77,0.0,0.0,0.0,25.56,-18.88,-43.81,0.01,-0.0,0.87,0.49
9570,00:00:54.521,IMU4,0.2,0.14,9.8,0.0,0.0,0.0,10.75,-4.56,-26.44,0.01,-0.0,0.85,0.53
9571,00:00:54.525,IMU1,0.38,-0.03,9.83,0.0,0.0,0.0,36.62,-9.56,-41.12,0.02,-0.01,0.79,0.61
9571,00:00:54.525,IMU2,0.16,0.11,9.83,0.0,0.0,0.0,35.31,-26.88,-47.38,0.01,0.0,0.88,0.47
9571,00:00:54.525,IMU3,0.16,0.12,9.77,0.0,0.0,0.0,25.56,-18.88,-43.81,0.01,-0.0,0.87,0.49
9571,00:00:54.525,IMU4,0.2,0.14,9.8,0.0,0.0,0.0,10.75,-4.56,-26.44,0.01,-0.0,0.85,0.53
9572,00:00:54.531,IMU1,0.38,-0.03,9.83,0.0,0.0,0.0,36.62,-9.56,-41.12,0.02,-0.01,0.79,0.61
9572,00:00:54.531,IMU2,0.16,0.11,9.83,0.0,0.0,0.0,35.31,-26.88,-47.38,0.01,0.0,0.88,0.47
9572,00:00:54.531,IMU3,0.2,0.12,9.81,0.0,0.0,0.0,25.56,-18.88,-43.81,0.01,-0.0,0.87,0.49
9572,00:00:54.531,IMU4,0.2,0.14,9.8,0.0,0.0,0.0,10.75,-4.56,-26.44,0.01,-0.0,0.85,0.53
10487,00:00:54.522,IMU5,0.18,0.32,9.78,0.0,0.0,0.0,33.25,-8.94,-20.12,0.02,0.01,0.8,0.61
10487,00:00:54.522,IMU6,0.14,0.12,9.79,0.0,0.0,0.0,26.0,-5.94,-16.75,0.01,0.0,0.78,0.62
10487,00:00:54.522,IMU7,0.42,0.19,9.83,0.0,0.0,0.0,21.38,-9.44,-19.56,0.02,-0.01,0.83,0.55
10488,00:00:54.526,IMU5,0.15,0.32,9.78,0.0,0.0,0.0,33.25,-8.94,-20.12,0.02,0.01,0.8,0.61
10488,00:00:54.526,IMU6,0.18,0.09,9.82,0.0,0.0,0.0,26.0,-5.94,-16.75,0.01,0.0,0.78,0.62
10488,00:00:54.526,IMU7,0.42,0.19,9.83,0.0,0.0,0.0,21.38,-9.44,-19.56,0.02,-0.01,0.83,0.55
10489,00:00:54.529,IMU5,0.15,0.32,9.78,0.0,0.0,0.0,33.31,-9.31,-20.88,0.02,0.01,0.8,0.61
10489,00:00:54.529,IMU6,0.18,0.09,9.82,0.0,0.0,0.0,25.5,-6.06,-16.31,0.01,0.0,0.78,0.62
10489,00:00:54.529,IMU7,0.42,0.19,9.83,0.0,0.0,0.0,21.38,-9.44,-19.56,0.02,-0.01,0.83,0.55
10490,00:00:54.536,IMU5,0.15,0.32,9.78,0.0,0.0,0.0,33.31,-9.31,-20.88,0.02,0.01,0.8,0.61
10490,00:00:54.536,IMU6,0.18,0.09,9.82,0.0,0.0,0.0,25.5,-6.06,-16.31,0.01,0.0,0.78,0.62
10490,00:00:54.536,IMU7,0.38,0.19,9.79,0.0,0.0,0.0,21.38,-9.44,-19.56,0.02,-0.01,0.83,0.55
9573,00:00:54.535,IMU1,0.38,-0.03,9.83,0.0,0.0,0.0,36.62,-9.56,-41.12,0.02,-0.01,0.79,0.61
9573,00:00:54.535,IMU2,0.16,0.11,9.83,0.0,0.0,0.0,35.31,-26.88,-47.38,0.01,0.0,0.88,0.47
9573,00:00:54.535,IMU3,0.2,0.12,9.81,0.0,0.0,0.0,25.56,-18.88,-43.81,0.01,-0.0,0.87,0.49
9573,00:00:54.535,IMU4,0.2,0.14,9.8,0.0,0.0,0.0,10.75,-4.56,-26.44,0.01,-0.0,0.85,0.53
10491,00:00:54.539,IMU5,0.15,0.32,9.78,0.0,0.0,0.0,33.31,-9.31,-20.88,0.02,0.01,0.8,0.61
10491,00:00:54.539,IMU6,0.18,0.09,9.82,0.0,0.0,0.0,25.5,-6.06,-16.31,0.01,0.0,0.78,0.62
10491,00:00:54.539,IMU7,0.38,0.19,9.79,0.0,0.0,0.0,21.38,-9.44,-19.56,0.02,-0.01,0.83,0.55
9574,00:00:54.539,IMU1,0.38,-0.03,9.83,0.0,0.0,0.0,36.62,-9.56,-41.12,0.02,-0.01,0.79,0.61
9574,00:00:54.539,IMU2,0.16,0.11,9.83,0.0,0.0,0.0,35.31,-26.88,-47.38,0.01,0.0,0.88,0.47
9574,00:00:54.539,IMU3,0.2,0.12,9.81,0.0,0.0,0.0,26.25,-17.06,-45.06,0.01,-0.0,0.87,0.49
9574,00:00:54.539,IMU4,0.2,0.14,9.8,0.0,0.0,0.0,10.75,-4.56,-26.44,0.01,-0.0,0.85,0.53
10492,00:00:54.545,IMU5,0.15,0.32,9.78,0.0,0.0,0.0,33.31,-9.31,-20.88,0.02,0.01,0.8,0.61
10492,00:00:54.545,IMU6,0.18,0.09,9.82,0.0,0.0,0.0,25.5,-6.06,-16.31,0.01,0.0,0.78,0.62
10492,00:00:54.545,IMU7,0.38,0.19,9.79,0.0,0.0,0.0,19.44,-9.69,-18.62,0.02,-0.01,0.83,0.55
9575,00:00:54.546,IMU1,0.38,-0.03,9.83,0.0,0.0,0.0,36.62,-9.56,-41.12,0.02,-0.01,0.79,0.61
9575,00:00:54.546,IMU2,0.16,0.11,9.83,0.0,0.0,0.0,35.31,-26.88,-47.38,0.01,0.0,0.88,0.47
9575,00:00:54.546,IMU3,0.2,0.12,9.81,0.0,0.0,0.0,26.25,-17.06,-45.06,0.01,-0.0,0.87,0.49
9575,00:00:54.546,IMU4,0.2,0.14,9.8,0.0,0.0,0.0,10.75,-4.56,-26.44,0.01,-0.0,0.85,0.53
10493,00:00:54.548,IMU5,0.15,0.32,9.78,0.0,0.0,0.0,33.31,-9.31,-20.88,0.02,0.01,0.8,0.61
10493,00:00:54.548,IMU6,0.18,0.09,9.82,0.0,0.0,0.0,25.5,-6.06,-16.31,0.01,0.0,0.78,0.62
10493,00:00:54.548,IMU7,0.38,0.19,9.79,0.0,0.0,0.0,19.44,-9.69,-18.62,0.02,-0.01,0.83,0.55
9576,00:00:54.553,IMU1,0.38,-0.03,9.83,0.0,0.0,0.0,36.62,-9.56,-41.12,0.02,-0.01,0.79,0.61
9576,00:00:54.553,IMU2,0.16,0.11,9.83,0.0,0.0,0.0,35.31,-26.88,-47.38,0.01,0.0,0.88,0.47
9576,00:00:54.553,IMU3,0.2,0.12,9.81,0.0,0.0,0.0,26.25,-17.06,-45.06,0.01,-0.0,0.87,0.49
9576,00:00:54.553,IMU4,0.2,0.14,9.8,0.0,0.0,0.0,10.75,-4.56,-26.44,0.01,-0.0,0.85,0.53
10494,00:00:54.556,IMU5,0.15,0.32,9.78,0.0,0.0,0.0,33.31,-9.31,-20.88,0.02,0.01,0.8,0.61
10494,00:00:54.556,IMU6,0.14,0.05,9.78,0.0,0.0,0.0,25.5,-6.06,-16.31,0.01,0.0,0.78,0.62
10494,00:00:54.556,IMU7,0.38,0.19,9.79,0.0,0.0,0.0,19.44,-9.69,-18.62,0.02,-0.01,0.83,0.55
9577,00:00:54.557,IMU1,0.38,0.04,9.79,0.0,0.0,0.0,36.62,-9.56,-41.12,0.02,-0.01,0.79,0.61
9577,00:00:54.557,IMU2,0.16,0.11,9.83,0.0,0.0,0.0,35.31,-26.88,-47.38,0.01,0.0,0.88,0.47
9577,00:00:54.557,IMU3,0.2,0.12,9.81,0.0,0.0,0.0,26.25,-17.06,-45.06,0.01,-0.0,0.87,0.49
9577,00:00:54.557,IMU4,0.2,0.14,9.8,0.0,0.0,0.0,10.75,-4.56,-26.44,0.01,-0.0,0.85,0.53
10495,00:00:54.559,IMU5,0.15,0.32,9.78,0.0,0.0,0.0,33.31,-9.31,-20.88,0.02,0.01,0.8,0.61
10495,00:00:54.559,IMU6,0.14,0.05,9.78,0.0,0.0,0.0,25.5,-6.06,-16.31,0.01,0.0,0.78,0.62
10495,00:00:54.559,IMU7,0.38,0.19,9.79,0.0,0.0,0.0,19.44,-9.69,-18.62,0.02,-0.01,0.83,0.55
9578,00:00:54.564,IMU1,0.38,0.04,9.79,0.0,0.0,0.0,34.94,-10.69,-38.25,0.02,-0.01,0.79,0.61
9578,00:00:54.564,IMU2,0.16,0.11,9.83,0.0,0.0,0.0,35.31,-26.88,-47.38,0.01,0.0,0.88,0.47
9578,00:00:54.564,IMU3,0.24,0.05,9.81,0.0,0.0,0.0,26.25,-17.06,-45.06,0.01,-0.0,0.87,0.49
9578,00:00:54.564,IMU4,0.16,0.06,9.84,0.0,0.0,0.0,10.75,-4.56,-26.44,0.01,-0.0,0.85,0.53
10496,00:00:54.565,IMU5,0.15,0.32,9.78,0.0,0.0,0.0,33.31,-9.31,-20.88,0.02,0.01,0.8,0.61
10496,00:00:54.565,IMU6,0.14,0.05,9.78,0.0,0.0,0.0,25.5,-5.94,-16.69,0.01,0.0,0.78,0.62
10496,00:00:54.565,IMU7,0.38,0.19,9.79,0.0,0.0,0.0,19.44,-9.69,-18.62,0.02,-0.01,0.83,0.55
10497,00:00:54.569,IMU5,0.15,0.32,9.78,0.0,0.0,0.0,33.31,-9.31,-20.88,0.02,0.01,0.8,0.61
10497,00:00:54.569,IMU6,0.14,0.05,9.78,0.0,0.0,0.0,25.5,-5.94,-16.69,0.01,0.0,0.78,0.62
10497,00:00:54.569,IMU7,0.38,0.19,9.79,0.0,0.0,0.0,19.44,-9.69,-18.62,0.02,-0.01,0.83,0.55
9579,00:00:54.567,IMU1,0.38,0.04,9.79,0.0,0.0,0.0,34.94,-10.69,-38.25,0.02,-0.01,0.79,0.61
9579,00:00:54.567,IMU2,0.16,0.11,9.83,0.0,0.0,0.0,35.31,-26.88,-47.38,0.01,0.0,0.88,0.47
9579,00:00:54.567,IMU3,0.24,0.05,9.81,0.0,0.0,0.0,24.5,-16.44,-42.25,0.01,-0.0,0.87,0.49
9579,00:00:54.567,IMU4,0.16,0.06,9.84,0.0,0.0,0.0,10.56,-3.88,-25.75,0.01,-0.0,0.85,0.53
9580,00:00:54.572,IMU1,0.38,0.04,9.79,0.0,0.0,0.0,34.94,-10.69,-38.25,0.02,-0.01,0.79,0.61
9580,00:00:54.572,IMU2,0.16,0.11,9.83,0.0,0.0,0.0,35.31,-26.88,-47.38,0.01,0.0,0.88,0.47
9580,00:00:54.572,IMU3,0.24,0.05,9.81,0.0,0.0,0.0,24.5,-16.44,-42.25,0.01,-0.0,0.87,0.49
9580,00:00:54.572,IMU4,0.16,0.06,9.84,0.0,0.0,0.0,10.56,-3.88,-25.75,0.01,-0.0,0.85,0.53
10498,00:00:54.576,IMU5,0.18,0.36,9.75,0.0,0.0,0.0,33.31,-9.31,-20.88,0.02,0.01,0.8,0.61
10498,00:00:54.576,IMU6,0.14,0.05,9.78,0.0,0.0,0.0,25.5,-5.94,-16.69,0.01,0.0,0.78,0.62
10498,00:00:54.576,IMU7,0.38,0.19,9.79,0.0,0.0,0.0,19.44,-9.69,-18.62,0.02,-0.01,0.83,0.55
10499,00:00:54.579,IMU5,0.18,0.36,9.75,0.0,0.0,0.0,33.31,-9.31,-20.88,0.02,0.01,0.8,0.61
10499,00:00:54.579,IMU6,0.14,0.05,9.78,0.0,0.0,0.0,25.5,-5.94,-16.69,0.01,0.0,0.78,0.62
10499,00:00:54.579,IMU7,0.38,0.19,9.79,0.0,0.0,0.0,19.44,-9.69,-18.62,0.02,-0.01,0.83,0.55
9581,00:00:54.578,IMU1,0.38,0.04,9.79,0.0,0.0,0.0,34.94,-10.69,-38.25,0.02,-0.01,0.79,0.61
9581,00:00:54.578,IMU2,0.12,0.14,9.79,0.0,0.0,0.0,35.31,-26.88,-47.38,0.01,0.0,0.88,0.47
9581,00:00:54.578,IMU3,0.24,0.05,9.81,0.0,0.0,0.0,24.5,-16.44,-42.25,0.01,-0.0,0.87,0.49
9581,00:00:54.578,IMU4,0.16,0.06,9.84,0.0,0.0,0.0,10.56,-3.88,-25.75,0.01,-0.0,0.85,0.53
10500,00:00:54.586,IMU5,0.18,0.36,9.75,0.0,0.0,0.0,33.88,-10.0,-19.56,0.02,0.01,0.8,0.61
10500,00:00:54.586,IMU6,0.14,0.05,9.78,0.0,0.0,0.0,25.5,-5.94,-16.69,0.01,0.0,0.78,0.62
10500,00:00:54.586,IMU7,0.38,0.19,9.79,0.0,0.0,0.0,19.44,-9.69,-18.62,0.02,-0.01,0.83,0.55
9582,00:00:54.585,IMU1,0.38,0.04,9.79,0.0,0.0,0.0,34.94,-10.69,-38.25,0.02,-0.01,0.79,0.61
9582,00:00:54.585,IMU2,0.12,0.14,9.79,0.0,0.0,0.0,35.31,-26.88,-47.38,0.01,0.0,0.88,0.47
9582,00:00:54.585,IMU3,0.24,0.05,9.81,0.0,0.0,0.0,24.5,-16.44,-42.25,0.01,-0.0,0.87,0.49
9582,00:00:54.585,IMU4,0.16,0.06,9.84,0.0,0.0,0.0,10.56,-3.88,-25.75,0.01,-0.0,0.85,0.53
10501,00:00:54.589,IMU5,0.18,0.36,9.75,0.0,0.0,0.0,33.88,-10.0,-19.56,0.02,0.01,0.8,0.61
10501,00:00:54.589,IMU6,0.14,0.05,9.78,0.0,0.0,0.0,25.5,-5.94,-16.69,0.01,0.0,0.78,0.62
10501,00:00:54.589,IMU7,0.38,0.19,9.79,0.0,0.0,0.0,19.44,-9.69,-18.62,0.02,-0.01,0.83,0.55
9583,00:00:54.589,IMU1,0.38,0.04,9.79,0.0,0.0,0.0,34.94,-10.69,-38.25,0.02,-0.01,0.79,0.61
9583,00:00:54.589,IMU2,0.12,0.14,9.79,0.0,0.0,0.0,35.69,-25.25,-45.25,0.01,0.0,0.88,0.47
9583,00:00:54.589,IMU3,0.24,0.05,9.81,0.0,0.0,0.0,24.5,-16.44,-42.25,0.01,-0.0,0.87,0.49
9583,00:00:54.589,IMU4,0.16,0.06,9.84,0.0,0.0,0.0,10.56,-3.88,-25.75,0.01,-0.0,0.85,0.53
10502,00:00:54.598,IMU5,0.18,0.36,9.75,0.0,0.0,0.0,33.88,-10.0,-19.56,0.02,0.01,0.8,0.61
10502,00:00:54.598,IMU6,0.14,0.05,9.78,0.0,0.0,0.0,25.5,-5.94,-16.69,0.01,0.0,0.78,0.62
10502,00:00:54.598,IMU7,0.38,0.19,9.79,0.0,0.0,0.0,19.44,-9.69,-18.62,0.02,-0.01,0.83,0.55
9584,00:00:54.595,IMU1,0.38,0.04,9.79,0.0,0.0,0.0,34.94,-10.69,-38.25,0.02,-0.01,0.79,0.61
9584,00:00:54.595,IMU2,0.12,0.14,9.79,0.0,0.0,0.0,35.69,-25.25,-45.25,0.01,0.0,0.88,0.47
9584,00:00:54.595,IMU3,0.09,0.05,9.81,0.0,0.0,0.0,24.5,-16.44,-42.25,0.01,-0.0,0.87,0.49
9584,00:00:54.595,IMU4,0.16,0.06,9.84,0.0,0.0,0.0,10.56,-3.88,-25.75,0.01,-0.0,0.85,0.53
9585,00:00:54.600,IMU1,0.38,0.08,9.83,0.0,0.0,0.0,34.94,-10.69,-38.25,0.02,-0.01,0.79,0.61
9585,00:00:54.600,IMU2,0.12,0.14,9.79,0.0,0.0,0.0,35.69,-25.25,-45.25,0.01,0.0,0.88,0.47
9585,00:00:54.600,IMU3,0.09,0.05,9.81,0.0,0.0,0.0,24.5,-16.44,-42.25,0.01,-0.0,0.87,0.49
9585,00:00:54.600,IMU4,0.16,0.06,9.84,0.0,0.0,0.0,10.56,-3.88,-25.75,0.01,-0.0,0.85,0.53
10503,00:00:54.601,IMU5,0.18,0.36,9.75,0.0,0.0,0.0,33.88,-10.0,-19.56,0.02,0.01,0.8,0.61
10503,00:00:54.601,IMU6,0.14,0.05,9.78,0.0,0.0,0.0,25.5,-5.94,-16.69,0.01,0.0,0.78,0.62
10503,00:00:54.601,IMU7,0.38,0.19,9.79,0.0,0.0,0.0,19.44,-9.69,-18.62,0.02,-0.01,0.83,0.55
10504,00:00:54.608,IMU5,0.18,0.36,9.75,0.0,0.0,0.0,33.88,-10.0,-19.56,0.02,0.01,0.8,0.61
10504,00:00:54.608,IMU6,0.18,0.16,9.82,0.0,0.0,0.0,25.5,-5.94,-16.69,0.01,0.0,0.78,0.62
10504,00:00:54.608,IMU7,0.38,0.19,9.79,0.0,0.0,0.0,19.44,-9.69,-18.62,0.02,-0.01,0.83,0.55
9586,00:00:54.608,IMU1,0.38,0.08,9.83,0.0,0.0,0.0,34.94,-10.69,-38.25,0.02,-0.01,0.79,0.61
9586,00:00:54.608,IMU2,0.12,0.14,9.79,0.0,0.0,0.0,35.69,-25.25,-45.25,0.01,0.0,0.88,0.47
9586,00:00:54.608,IMU3,0.09,0.05,9.81,0.0,0.0,0.0,26.25,-18.06,-45.5,0.01,-0.0,0.87,0.49
9586,00:00:54.608,IMU4,0.16,0.06,9.8,0.0,0.0,0.0,10.56,-3.88,-25.75,0.01,-0.0,0.85,0.53
10505,00:00:54.611,IMU5,0.18,0.36,9.75,0.0,0.0,0.0,33.88,-10.0,-19.56,0.02,0.01,0.8,0.61
10505,00:00:54.611,IMU6,0.18,0.16,9.82,0.0,0.0,0.0,27.0,-6.56,-16.69,0.01,0.0,0.78,0.62
10505,00:00:54.611,IMU7,0.38,0.19,9.79,0.0,0.0,0.0,19.44,-9.69,-18.62,0.02,-0.01,0.83,0.55
9587,00:00:54.611,IMU1,0.38,0.08,9.83,0.0,0.0,0.0,35.12,-10.88,-37.0,0.02,-0.01,0.79,0.61
9587,00:00:54.611,IMU2,0.12,0.14,9.79,0.0,0.0,0.0,35.69,-25.25,-45.25,0.01,0.0,0.88,0.47
9587,00:00:54.611,IMU3,0.09,0.05,9.81,0.0,0.0,0.0,26.25,-18.06,-45.5,0.01,-0.0,0.87,0.49
9587,00:00:54.611,IMU4,0.16,0.06,9.8,0.0,0.0,0.0,10.56,-3.88,-25.75,0.01,-0.0,0.85,0.53
10506,00:00:54.616,IMU5,0.18,0.36,9.75,0.0,0.0,0.0,33.88,-10.0,-19.56,0.02,0.01,0.8,0.61
10506,00:00:54.616,IMU6,0.18,0.16,9.82,0.0,0.0,0.0,27.0,-6.56,-16.69,0.01,0.0,0.78,0.62
10506,00:00:54.616,IMU7,0.38,0.15,9.79,0.0,0.0,0.0,19.44,-9.69,-18.62,0.02,-0.01,0.83,0.55
10507,00:00:54.619,IMU5,0.18,0.36,9.75,0.0,0.0,0.0,33.88,-10.0,-19.56,0.02,0.01,0.8,0.61
10507,00:00:54.619,IMU6,0.18,0.16,9.82,0.0,0.0,0.0,27.0,-6.56,-16.69,0.01,0.0,0.78,0.62
10507,00:00:54.619,IMU7,0.38,0.15,9.79,0.0,0.0,0.0,19.44,-9.69,-18.62,0.02,-0.01,0.83,0.55
9588,00:00:54.618,IMU1,0.38,0.08,9.83,0.0,0.0,0.0,35.12,-10.88,-37.0,0.02,-0.01,0.79,0.61
9588,00:00:54.618,IMU2,0.12,0.14,9.79,0.0,0.0,0.0,35.69,-25.25,-45.25,0.01,0.0,0.88,0.47
9588,00:00:54.618,IMU3,0.09,0.05,9.81,0.0,0.0,0.0,26.25,-18.06,-45.5,0.01,-0.0,0.87,0.49
9588,00:00:54.618,IMU4,0.16,0.06,9.8,0.0,0.0,0.0,10.31,-7.12,-26.69,0.01,-0.0,0.85,0.53
9589,00:00:54.622,IMU1,0.38,0.08,9.83,0.0,0.0,0.0,35.12,-10.88,-37.0,0.02,-0.01,0.79,0.61
9589,00:00:54.622,IMU2,0.12,0.14,9.79,0.0,0.0,0.0,35.69,-25.25,-45.25,0.01,0.0,0.88,0.47
9589,00:00:54.622,IMU3,0.09,0.05,9.81,0.0,0.0,0.0,26.25,-18.06,-45.5,0.01,-0.0,0.87,0.49
9589,00:00:54.622,IMU4,0.16,0.06,9.8,0.0,0.0,0.0,10.31,-7.12,-26.69,0.01,-0.0,0.85,0.53
10508,00:00:54.625,IMU5,0.18,0.36,9.75,0.0,0.0,0.0,33.88,-10.0,-19.56,0.02,0.01,0.8,0.61
10508,00:00:54.625,IMU6,0.18,0.16,9.82,0.0,0.0,0.0,27.0,-6.56,-16.69,0.01,0.0,0.78,0.62
10508,00:00:54.625,IMU7,0.38,0.15,9.79,0.0,0.0,0.0,19.81,-9.31,-18.25,0.02,-0.01,0.83,0.55
10509,00:00:54.628,IMU5,0.18,0.36,9.75,0.0,0.0,0.0,33.88,-10.0,-19.56,0.02,0.01,0.8,0.61
10509,00:00:54.628,IMU6,0.18,0.16,9.82,0.0,0.0,0.0,27.0,-6.56,-16.69,0.01,0.0,0.78,0.62
10509,00:00:54.628,IMU7,0.38,0.15,9.79,0.0,0.0,0.0,19.81,-9.31,-18.25,0.02,-0.01,0.83,0.55
10510,00:00:54.634,IMU5,0.18,0.32,9.78,0.0,0.0,0.0,33.88,-10.0,-19.56,0.02,0.01,0.8,0.61
10510,00:00:54.634,IMU6,0.18,0.16,9.82,0.0,0.0,0.0,27.0,-6.56,-16.69,0.01,0.0,0.78,0.62
10510,00:00:54.634,IMU7,0.38,0.15,9.79,0.0,0.0,0.0,19.81,-9.31,-18.25,0.02,-0.01,0.83,0.55
9590,00:00:54.628,IMU1,0.38,0.08,9.83,0.0,0.0,0.0,35.12,-10.88,-37.0,0.02,-0.01,0.79,0.61
9590,00:00:54.628,IMU2,0.12,0.14,9.79,0.0,0.0,0.0,35.69,-25.25,-45.25,0.01,0.0,0.88,0.47
9590,00:00:54.628,IMU3,0.2,0.01,9.73,0.0,0.0,0.0,26.25,-18.06,-45.5,0.01,-0.0,0.87,0.49
9590,00:00:54.628,IMU4,0.16,0.06,9.8,0.0,0.0,0.0,10.31,-7.12,-26.69,0.01,-0.0,0.85,0.53
10511,00:00:54.637,IMU5,0.18,0.32,9.78,0.0,0.0,0.0,33.88,-10.0,-19.56,0.02,0.01,0.8,0.61
10511,00:00:54.637,IMU6,0.18,0.16,9.82,0.0,0.0,0.0,27.0,-6.56,-16.69,0.01,0.0,0.78,0.62
10511,00:00:54.637,IMU7,0.38,0.15,9.79,0.0,0.0,0.0,19.81,-9.31,-18.25,0.02,-0.01,0.83,0.55
9591,00:00:54.634,IMU1,0.38,0.08,9.83,0.0,0.0,0.0,35.12,-10.88,-37.0,0.02,-0.01,0.79,0.61
9591,00:00:54.634,IMU2,0.12,0.14,9.79,0.0,0.0,0.0,35.69,-25.25,-45.25,0.01,0.0,0.88,0.47
9591,00:00:54.634,IMU3,0.2,0.01,9.73,0.0,0.0,0.0,26.31,-14.5,-45.12,0.01,-0.0,0.87,0.49
9591,00:00:54.634,IMU4,0.16,0.06,9.8,0.0,0.0,0.0,10.31,-7.12,-26.69,0.01,-0.0,0.85,0.53
9592,00:00:54.641,IMU1,0.38,0.08,9.83,0.0,0.0,0.0,35.12,-10.88,-37.0,0.02,-0.01,0.79,0.61
9592,00:00:54.641,IMU2,0.12,0.14,9.79,0.0,0.0,0.0,35.69,-25.25,-45.25,0.01,0.0,0.88,0.47
9592,00:00:54.641,IMU3,0.2,0.01,9.73,0.0,0.0,0.0,26.31,-14.5,-45.12,0.01,-0.0,0.87,0.49
9592,00:00:54.641,IMU4,0.16,0.06,9.8,0.0,0.0,0.0,10.31,-7.12,-26.69,0.01,-0.0,0.85,0.53
10512,00:00:54.643,IMU5,0.18,0.32,9.78,0.0,0.0,0.0,33.69,-9.75,-20.94,0.02,0.01,0.8,0.61
10512,00:00:54.643,IMU6,0.1,0.12,9.82,0.0,0.0,0.0,27.0,-6.56,-16.69,0.01,0.0,0.78,0.62
10512,00:00:54.643,IMU7,0.38,0.15,9.79,0.0,0.0,0.0,19.81,-9.31,-18.25,0.02,-0.01,0.83,0.55
10513,00:00:54.646,IMU5,0.18,0.32,9.78,0.0,0.0,0.0,33.69,-9.75,-20.94,0.02,0.01,0.8,0.61
10513,00:00:54.646,IMU6,0.1,0.12,9.82,0.0,0.0,0.0,25.94,-7.69,-15.31,0.01,0.0,0.78,0.62
10513,00:00:54.646,IMU7,0.38,0.15,9.79,0.0,0.0,0.0,19.81,-9.31,-18.25,0.02,-0.01,0.83,0.55
9593,00:00:54.645,IMU1,0.38,0.08,9.83,0.0,0.0,0.0,35.12,-10.88,-37.0,0.02,-0.01,0.79,0.61
9593,00:00:54.645,IMU2,0.12,0.14,9.79,0.0,0.0,0.0,35.69,-25.25,-45.25,0.01,0.0,0.88,0.47
9593,00:00:54.645,IMU3,0.2,0.01,9.73,0.0,0.0,0.0,26.31,-14.5,-45.12,0.01,-0.0,0.87,0.49
9593,00:00:54.645,IMU4,0.16,0.06,9.8,0.0,0.0,0.0,10.31,-7.12,-26.69,0.01,-0.0,0.85,0.53
