Timestamp, AccelX, AccelY, AccelZ, GyroX, GyroY, GyroZ, MagX, MagY, MagZ, QuatW, QuatX, QuatY, QuatZ,Time_s,GlobalAx,GlobalAy,GlobalAz,Stationary,VelX,VelY,VelZ
0,9.48,-0.66,0.71,-0.02,0.0,-0.0,-14.75,8.75,25.37,0.73,-0.05,-0.68,-0.0,0.0,-0.057728000000002,0.04122199999999993,-0.3017959999999995,True,0.0,0.0,0.0
1,9.49,-0.62,0.69,-0.02,0.0,-0.0,-14.75,8.75,25.37,0.73,-0.05,-0.68,-0.0,0.001,-0.03442200000000195,0.08015400000000003,-0.29614799999999875,True,0.0,0.0,0.0
2,9.49,-0.62,0.69,-0.02,0.0,-0.0,-14.75,8.75,25.37,0.73,-0.05,-0.68,-0.0,0.002,-0.03442200000000195,0.08015400000000003,-0.29614799999999875,True,0.0,0.0,0.0
3,9.48,-0.6,0.64,-0.03,0.0,-0.01,-14.75,8.75,25.37,0.73,-0.05,-0.68,-0.0,0.003,0.015847999999997975,0.09568,-0.31093600000000166,True,0.0,0.0,0.0
4,9.48,-0.6,0.61,-0.03,0.0,-0.01,-14.75,8.75,25.37,0.73,-0.05,-0.68,-0.0,0.004,0.04563199999999801,0.09348999999999999,-0.3129760000000008,True,0.0,0.0,0.0
5,9.48,-0.64,0.61,-0.03,0.01,-0.0,-14.0,8.75,25.37,0.73,-0.05,-0.68,-0.0,0.005,0.04291199999999795,0.05377800000000003,-0.31005599999999944,True,0.0,0.0,0.0
6,9.48,-0.62,0.67,-0.03,0.01,-0.0,-14.0,8.75,25.37,0.73,-0.05,-0.68,-0.0,0.006,-0.015296000000002086,0.07801400000000003,-0.30743599999999915,True,0.0,0.0,0.0
7,9.5,-0.58,0.65,-0.03,0.0,-0.0,-14.0,8.75,25.37,0.73,-0.05,-0.68,-0.0,0.007,0.008739999999997972,0.11762600000000001,-0.29186000000000156,True,0.0,0.0,0.0
8,9.47,-0.6,0.71,-0.03,0.01,-0.01,-14.0,8.75,25.37,0.73,-0.05,-0.68,-0.0,0.008,-0.054378000000002036,0.10010999999999998,-0.31610400000000105,True,0.0,0.0,0.0
9,9.47,-0.6,0.71,-0.03,0.01,-0.0,-14.0,8.75,25.37,0.73,-0.05,-0.68,-0.0,0.009,-0.054378000000002036,0.10010999999999998,-0.31610400000000105,True,0.0,0.0,0.0
10,9.49,-0.61,0.72,-0.03,0.01,-0.0,-14.0,9.25,25.56,0.73,-0.05,-0.68,-0.0,0.01,-0.06352600000000197,0.09227200000000008,-0.2948380000000004,True,0.0,0.0,0.0
11,9.49,-0.61,0.72,-0.03,0.01,-0.0,-14.0,9.25,25.56,0.73,-0.05,-0.68,-0.0,0.011,-0.06352600000000197,0.09227200000000008,-0.2948380000000004,True,0.0,0.0,0.0
12,9.5,-0.59,0.67,-0.03,0.01,-0.0,-14.0,9.25,25.56,0.73,-0.05,-0.68,-0.0,0.012,-0.011796000000002138,0.10915799999999998,-0.28977000000000075,True,0.0,0.0,0.0
13,9.47,-0.57,0.73,-0.03,0.01,-0.0,-14.0,9.25,25.56,0.73,-0.05,-0.68,-0.0,0.013,-0.07219400000000198,0.13135400000000003,-0.3169339999999998,True,0.0,0.0,0.0
14,9.48,-0.58,0.75,-0.03,0.01,-0.0,-14.0,9.25,25.56,0.73,-0.05,-0.68,-0.0,0.014,-0.09200000000000208,0.12356600000000009,-0.3049160000000004,True,0.0,0.0,0.0
15,9.48,-0.56,0.76,-0.04,0.01,-0.0,-13.69,8.88,25.88,0.73,-0.05,-0.68,-0.0,0.015,-0.10056800000000199,0.14415199999999997,-0.3056960000000011,True,0.0,0.0,0.0
16,9.48,-0.57,0.74,-0.04,0.01,-0.0,-13.69,8.88,25.88,0.73,-0.05,-0.68,-0.0,0.016,-0.08139200000000202,0.13276400000000005,-0.3063260000000003,True,0.0,0.0,0.0
17,9.51,-0.57,0.76,-0.03,0.01,-0.0,-13.69,8.88,25.88,0.73,-0.05,-0.68,-0.0,0.017,-0.09905800000000198,0.13626399999999997,-0.2751820000000009,True,0.0,0.0,0.0
18,9.51,-0.57,0.78,-0.03,0.01,-0.0,-13.69,8.88,25.88,0.73,-0.05,-0.68,-0.0,0.018,-0.11891400000000207,0.13772399999999996,-0.2738220000000009,True,0.0,0.0,0.0
19,9.48,-0.55,0.84,-0.03,0.01,-0.0,-13.69,8.88,25.88,0.73,-0.05,-0.68,-0.0,0.019,-0.17931200000000203,0.15992,-0.300986,True,0.0,0.0,0.0
20,9.5,-0.55,0.83,-0.02,0.01,-0.0,-13.06,8.88,25.75,0.73,-0.05,-0.68,-0.0,0.02,-0.16792400000000196,0.16054999999999992,-0.2818100000000001,True,0.0,0.0,0.0
21,9.46,-0.6,0.84,-0.02,0.01,-0.0,-13.06,8.88,25.75,0.73,-0.05,-0.68,-0.0,0.021,-0.184172000000002,0.10891999999999996,-0.31719200000000036,True,0.0,0.0,0.0
22,9.48,-0.6,0.79,-0.01,0.01,-0.0,-13.06,8.88,25.75,0.73,-0.05,-0.68,-0.0,0.022,-0.13307200000000197,0.10663,-0.30073600000000056,True,0.0,0.0,0.0
23,9.52,-0.63,0.8,-0.01,0.01,0.0,-13.06,8.88,25.75,0.73,-0.05,-0.68,-0.0,0.023,-0.14212000000000213,0.08029599999999992,-0.2581540000000011,True,0.0,0.0,0.0
24,9.5,-0.61,0.79,-0.01,0.0,-0.0,-13.06,8.88,25.75,0.73,-0.05,-0.68,-0.0,0.024,-0.13229200000000196,0.09806199999999998,-0.2801500000000008,True,0.0,0.0,0.0
25,9.49,-0.59,0.78,-0.02,-0.0,-0.0,-14.87,8.88,25.37,0.73,-0.05,-0.68,-0.0,0.025,-0.12173400000000212,0.11650800000000006,-0.2922180000000001,True,0.0,0.0,0.0
26,9.44,-0.6,0.76,-0.02,-0.0,-0.0,-14.87,8.88,25.37,0.73,-0.05,-0.68,-0.0,0.026,-0.10620800000000197,0.10171999999999995,-0.342488000000003,True,0.0,0.0,0.0
27,9.52,-0.59,0.76,-0.02,-0.0,-0.0,-14.87,8.88,25.37,0.73,-0.05,-0.68,-0.0,0.027,-0.09968800000000211,0.117088,-0.26379400000000075,True,0.0,0.0,0.0
28,9.52,-0.61,0.77,-0.02,-0.0,-0.01,-14.87,8.88,25.37,0.73,-0.05,-0.68,-0.0,0.028,-0.11097600000000207,0.09796200000000001,-0.26165400000000005,True,0.0,0.0,0.0
29,9.51,-0.62,0.77,-0.03,-0.0,-0.01,-14.87,8.88,25.37,0.73,-0.05,-0.68,-0.0,0.029,-0.11238600000000198,0.08735399999999995,-0.27085199999999965,True,0.0,0.0,0.0
30,9.48,-0.61,0.77,-0.05,-0.0,-0.01,-13.06,9.25,25.0,0.73,-0.05,-0.68,-0.0,0.03,-0.113896000000002,0.09524200000000006,-0.3013659999999998,True,0.0,0.0,0.0
31,9.5,-0.63,0.75,-0.05,-0.0,-0.01,-13.06,9.25,25.0,0.73,-0.05,-0.68,-0.0,0.031,-0.09394000000000202,0.07528599999999988,-0.28141000000000105,True,0.0,0.0,0.0
32,9.49,-0.68,0.7,-0.05,-0.0,-0.01,-13.06,9.25,25.0,0.73,-0.05,-0.68,-0.0,0.032,-0.04843000000000197,0.02131599999999996,-0.29108800000000024,True,0.0,0.0,0.0
33,9.49,-0.71,0.7,-0.04,0.0,-0.02,-13.06,9.25,25.0,0.73,-0.05,-0.68,-0.0,0.033,-0.05047000000000201,-0.008467999999999962,-0.28889799999999966,True,0.0,0.0,0.0
34,9.45,-0.73,0.66,-0.05,0.0,-0.02,-13.06,9.25,25.0,0.73,-0.05,-0.68,-0.0,0.034,-0.015038000000002105,-0.033964000000000105,-0.32987000000000144,True,0.0,0.0,0.0
35,9.46,-0.69,0.68,-0.06,-0.0,-0.02,-14.06,8.75,25.37,0.73,-0.05,-0.68,-0.0,0.035,-0.031444000000001915,0.007887999999999992,-0.3215020000000006,True,0.0,0.0,0.0
36,9.46,-0.69,0.68,-0.06,-0.0,-0.02,-14.06,8.75,25.37,0.73,-0.05,-0.68,-0.0,0.036,-0.031444000000001915,0.007887999999999992,-0.3215020000000006,True,0.0,0.0,0.0
37,9.46,-0.71,0.69,-0.06,0.0,-0.02,-14.06,8.75,25.37,0.73,-0.05,-0.68,-0.01,0.037,-0.05335400000000201,-0.13989899999999997,-0.3194890000000008,True,0.0,0.0,0.0
38,9.47,-0.73,0.68,-0.06,-0.0,-0.02,-14.06,8.75,25.37,0.73,-0.05,-0.68,-0.01,0.038,-0.044359000000002036,-0.16008499999999998,-0.3090440000000001,True,0.0,0.0,0.0
39,9.44,-0.72,0.67,-0.05,-0.0,-0.02,-14.06,8.75,25.37,0.73,-0.05,-0.68,-0.01,0.039,-0.03580200000000211,-0.15262600000000004,-0.3401329999999998,True,0.0,0.0,0.0
40,9.44,-0.72,0.69,-0.06,0.0,-0.03,-13.75,8.88,24.56,0.73,-0.05,-0.68,-0.01,0.04,-0.055638000000002075,-0.15089400000000006,-0.3387709999999995,True,0.0,0.0,0.0
41,9.48,-0.7,0.65,-0.06,0.0,-0.03,-13.75,8.88,24.56,0.73,-0.05,-0.68,-0.01,0.041,-0.011398000000002018,-0.13236799999999999,-0.30293100000000095,True,0.0,0.0,0.0
42,9.5,-0.54,0.61,-0.07,0.01,-0.03,-13.75,8.88,24.56,0.73,-0.05,-0.68,-0.01,0.042,0.04294799999999799,0.024067999999999937,-0.2952829999999995,True,0.0,0.0,0.0
43,9.5,-0.6,0.68,-0.04,0.02,-0.03,-14.06,9.19,25.75,0.73,-0.05,-0.68,-0.01,0.043,-0.03143400000000207,-0.02943199999999995,-0.28695199999999943,True,0.0,0.0,0.0
44,9.5,-0.6,0.68,-0.04,0.02,-0.03,-14.06,9.19,25.75,0.73,-0.05,-0.68,-0.01,0.044,-0.03143400000000207,-0.02943199999999995,-0.28695199999999943,True,0.0,0.0,0.0
45,9.49,-0.62,0.71,-0.06,0.03,-0.03,-14.06,9.19,25.75,0.73,-0.05,-0.68,-0.01,0.045,-0.06356900000000199,-0.047222000000000035,-0.2936589999999999,True,0.0,0.0,0.0
46,9.49,-0.62,0.71,-0.06,0.03,-0.03,-14.06,9.19,25.75,0.73,-0.05,-0.68,-0.01,0.046,-0.06356900000000199,-0.047222000000000035,-0.2936589999999999,True,0.0,0.0,0.0
47,9.46,-0.56,0.77,-0.07,0.03,-0.03,-14.06,9.19,25.75,0.73,-0.05,-0.68,-0.01,0.047,-0.12030800000000197,0.01593399999999988,-0.32295099999999977,True,0.0,0.0,0.0
48,9.44,-0.4,0.85,-0.08,0.03,-0.03,-14.06,9.19,25.75,0.73,-0.05,-0.68,-0.01,0.048,-0.187894000000002,0.1806259999999999,-0.34688300000000005,True,0.0,0.0,0.0
49,9.45,-0.39,0.88,-0.07,0.03,-0.03,-14.87,9.25,24.56,0.73,-0.05,-0.68,-0.01,0.049,-0.2160930000000021,0.19368499999999994,-0.3354960000000027,True,0.0,0.0,0.0
50,9.48,-0.39,0.92,-0.06,0.02,-0.03,-14.87,9.25,24.56,0.73,-0.05,-0.68,-0.01,0.05,-0.25357800000000197,0.19875099999999996,-0.3029580000000003,True,0.0,0.0,0.0
51,9.52,-0.46,0.9,-0.03,0.02,-0.03,-14.87,9.25,24.56,0.73,-0.05,-0.68,-0.01,0.051,-0.23660800000000215,0.12966599999999995,-0.26041000000000025,True,0.0,0.0,0.0
52,9.54,-0.56,0.81,-0.01,0.02,-0.03,-14.87,9.25,24.56,0.73,-0.05,-0.68,-0.01,0.052,-0.15414800000000206,0.023669999999999816,-0.2407230000000009,True,0.0,0.0,0.0
53,9.48,-0.66,0.69,-0.0,0.02,-0.03,-14.87,9.25,24.56,0.73,-0.05,-0.68,-0.01,0.053,-0.047766000000001974,-0.08919600000000014,-0.30258300000000027,True,0.0,0.0,0.0
54,9.48,-0.66,0.69,-0.0,0.02,-0.03,-14.19,9.19,25.25,0.73,-0.05,-0.68,-0.01,0.054,-0.047766000000001974,-0.08919600000000014,-0.30258300000000027,True,0.0,0.0,0.0
55,9.42,-0.61,0.62,-0.01,0.03,-0.03,-14.19,9.19,25.25,0.73,-0.05,-0.68,-0.01,0.055,0.02141599999999788,-0.04882700000000003,-0.36994799999999906,True,0.0,0.0,0.0
56,9.44,-0.61,0.67,-0.02,0.04,-0.03,-14.19,9.19,25.25,0.73,-0.05,-0.68,-0.01,0.056,-0.026716000000002182,-0.043429000000000065,-0.34666700000000006,True,0.0,0.0,0.0
57,9.48,-0.59,0.74,-0.02,0.05,-0.03,-14.19,9.19,25.25,0.74,-0.05,-0.68,-0.01,0.057,0.03759999999999841,-0.02520599999999995,-0.16294000000000075,True,0.0,0.0,0.0
58,9.47,-0.6,0.82,-0.01,0.06,-0.03,-14.19,9.19,25.25,0.74,-0.05,-0.68,-0.01,0.058,-0.044536000000001685,-0.028803999999999955,-0.16578600000000243,True,0.0,0.0,0.0
59,9.43,-0.66,1.03,0.0,0.06,-0.03,-14.06,9.19,24.06,0.74,-0.05,-0.68,-0.01,0.059,-0.26414200000000176,-0.07298000000000002,-0.18507000000000318,True,0.0,0.0,0.0
60,9.46,-0.65,1.08,0.02,0.05,-0.03,-14.06,9.19,24.06,0.74,-0.05,-0.68,-0.01,0.06,-0.3109560000000017,-0.056930000000000064,-0.15131200000000078,True,0.0,0.0,0.0
61,9.46,-0.65,1.08,0.02,0.04,-0.03,-14.06,9.19,24.06,0.74,-0.05,-0.68,-0.01,0.061,-0.3109560000000017,-0.056930000000000064,-0.15131200000000078,True,0.0,0.0,0.0
62,9.55,-0.57,1.22,0.03,0.03,-0.04,-14.06,9.19,24.06,0.74,-0.05,-0.68,-0.01,0.062,-0.4372040000000016,0.040714000000000056,-0.0538860000000021,True,0.0,0.0,0.0
63,9.49,-0.4,1.23,0.03,0.01,-0.04,-14.06,9.19,24.06,0.74,-0.05,-0.68,-0.01,0.063,-0.43843800000000166,0.20965600000000006,-0.12377000000000216,True,0.0,0.0,0.0
64,9.46,-0.39,1.23,0.04,-0.0,-0.04,-13.38,8.75,26.5,0.74,-0.05,-0.68,-0.01,0.064,-0.4402380000000016,0.218134,-0.1545960000000015,True,0.0,0.0,0.0
65,9.47,-0.42,1.21,0.06,-0.03,-0.03,-13.38,8.75,26.5,0.74,-0.05,-0.68,-0.01,0.065,-0.4217380000000016,0.18669199999999997,-0.14436600000000155,True,0.0,0.0,0.0
66,9.5,-0.43,1.21,0.08,-0.05,-0.03,-13.38,8.75,26.5,0.74,-0.05,-0.68,-0.01,0.066,-0.4199380000000016,0.17821400000000004,-0.11354000000000397,True,0.0,0.0,0.0
67,9.49,-0.36,1.2,0.09,-0.06,-0.03,-13.38,8.75,26.5,0.74,-0.05,-0.68,-0.01,0.067,-0.40496400000000166,0.2473240000000001,-0.1286700000000014,True,0.0,0.0,0.0
68,9.49,-0.36,1.2,0.09,-0.07,-0.03,-13.38,8.75,26.5,0.74,-0.05,-0.68,-0.01,0.068,-0.40496400000000166,0.2473240000000001,-0.1286700000000014,True,0.0,0.0,0.0
69,9.5,-0.26,1.15,0.1,-0.08,-0.02,-13.69,8.0,24.5,0.74,-0.05,-0.68,-0.01,0.069,-0.34553800000000157,0.344216,-0.12877600000000378,True,0.0,0.0,0.0
70,9.5,-0.26,1.15,0.12,-0.09,-0.02,-13.69,8.0,24.5,0.74,-0.05,-0.68,-0.01,0.07,-0.34553800000000157,0.344216,-0.12877600000000378,True,0.0,0.0,0.0
71,9.45,-0.31,1.1,0.14,-0.11,-0.02,-13.69,8.0,24.5,0.74,-0.05,-0.68,-0.01,0.071,-0.30378800000000183,0.28680599999999995,-0.18026600000000137,True,0.0,0.0,0.0
72,9.51,-0.32,1.05,0.16,-0.12,-0.01,-13.69,8.0,24.5,0.74,-0.04,-0.68,-0.01,0.072,-0.2535070000000009,0.13038000000000005,-0.12905100000000225,True,0.0,0.0,0.0
73,9.55,-0.27,0.99,0.17,-0.13,-0.01,-13.69,8.0,24.5,0.74,-0.04,-0.68,-0.01,0.073,-0.1862430000000006,0.17801100000000006,-0.09606500000000118,True,0.0,0.0,0.0
74,9.46,-0.16,0.8,0.19,-0.14,-0.0,-13.5,8.38,24.06,0.73,-0.04,-0.68,-0.01,0.074,-0.12352000000000118,0.27513200000000004,-0.3481760000000005,True,0.0,0.0,0.0
75,9.46,-0.18,0.71,0.21,-0.14,0.0,-13.5,8.38,24.06,0.73,-0.04,-0.68,-0.01,0.075,-0.035620000000000984,0.24878000000000006,-0.35349000000000075,True,0.0,0.0,0.0
76,9.46,-0.23,0.54,0.24,-0.14,0.01,-13.5,8.38,24.06,0.73,-0.04,-0.68,-0.01,0.076,0.12956999999999885,0.18686000000000005,-0.3629800000000003,True,0.0,0.0,0.0
77,9.46,-0.23,0.54,0.26,-0.14,0.01,-13.5,8.38,24.06,0.73,-0.04,-0.68,-0.01,0.077,0.12956999999999885,0.18686000000000005,-0.3629800000000003,True,0.0,0.0,0.0
78,9.53,-0.52,0.38,0.27,-0.13,0.02,-13.5,8.38,24.06,0.73,-0.04,-0.68,-0.0,0.078,0.2815609999999989,0.02389999999999993,-0.29206600000000194,True,0.0,0.0,0.0
79,9.53,-0.52,0.38,0.27,-0.12,0.02,-12.69,8.38,24.75,0.73,-0.04,-0.68,-0.0,0.079,0.2815609999999989,0.02389999999999993,-0.29206600000000194,True,0.0,0.0,0.0
80,9.52,-0.56,0.34,0.26,-0.12,0.02,-12.69,8.38,24.75,0.73,-0.04,-0.68,-0.0,0.08,0.3183759999999988,-0.01872800000000006,-0.30241399999999885,True,0.0,0.0,0.0
81,9.45,-0.55,0.38,0.24,-0.11,0.02,-12.69,8.38,24.75,0.73,-0.04,-0.68,-0.0,0.081,0.2741609999999988,-0.010263000000000123,-0.3697379999999999,True,0.0,0.0,0.0
82,9.45,-0.55,0.38,0.23,-0.11,0.02,-12.69,8.38,24.75,0.73,-0.04,-0.68,-0.0,0.082,0.2741609999999988,-0.010263000000000123,-0.3697379999999999,True,0.0,0.0,0.0
83,9.5,-0.45,0.47,0.23,-0.1,0.02,-12.69,8.38,24.75,0.73,-0.04,-0.68,-0.0,0.083,0.19385399999999903,0.097083,-0.3197370000000017,True,0.0,0.0,0.0
84,9.5,-0.45,0.47,0.23,-0.1,0.02,-14.19,9.38,26.37,0.73,-0.04,-0.68,0.0,0.084,0.19385399999999903,0.097083,-0.3197370000000017,True,0.0,0.0,0.0
85,9.46,-0.54,0.41,0.23,-0.1,0.02,-14.19,9.38,26.37,0.73,-0.03,-0.68,0.0,0.085,0.2463639999999987,-0.13304999999999992,-0.3659239999999979,True,0.0,0.0,0.0
86,9.46,-0.54,0.41,0.23,-0.1,0.02,-14.19,9.38,26.37,0.73,-0.03,-0.68,0.0,0.086,0.2463639999999987,-0.13304999999999992,-0.3659239999999979,True,0.0,0.0,0.0
87,9.5,-0.53,0.38,0.22,-0.09,0.01,-14.19,9.38,26.37,0.73,-0.03,-0.68,0.0,0.087,0.2794119999999986,-0.1227879999999999,-0.3287380000000013,True,0.0,0.0,0.0
88,9.5,-0.53,0.38,0.19,-0.08,0.01,-14.19,9.38,26.37,0.73,-0.03,-0.68,0.0,0.088,0.2794119999999986,-0.1227879999999999,-0.3287380000000013,True,0.0,0.0,0.0
89,9.5,-0.36,0.34,0.18,-0.07,0.02,-14.69,8.88,26.37,0.73,-0.03,-0.68,0.0,0.089,0.3260599999999985,0.04450800000000009,-0.33896800000000127,True,0.0,0.0,0.0
90,9.5,-0.36,0.34,0.19,-0.07,0.02,-14.69,8.88,26.37,0.73,-0.03,-0.68,0.0,0.09,0.3260599999999985,0.04450800000000009,-0.33896800000000127,True,0.0,0.0,0.0
91,9.5,-0.37,0.37,0.19,-0.06,0.02,-14.69,8.88,26.37,0.73,-0.03,-0.68,0.01,0.091,0.3000979999999986,0.169583,-0.3370730000000002,True,0.0,0.0,0.0
92,9.47,-0.47,0.39,0.19,-0.05,0.02,-14.69,8.88,26.37,0.73,-0.03,-0.68,0.01,0.092,0.2754709999999986,0.06909500000000011,-0.3597050000000017,True,0.0,0.0,0.0
93,9.46,-0.47,0.41,0.18,-0.05,0.02,-14.69,8.88,26.37,0.73,-0.03,-0.68,0.01,0.093,0.25488999999999856,0.06914500000000018,-0.36823300000000003,True,0.0,0.0,0.0
94,9.46,-0.47,0.41,0.18,-0.05,0.02,-13.75,8.19,26.56,0.73,-0.03,-0.68,0.01,0.094,0.25488999999999856,0.06914500000000018,-0.36823300000000003,True,0.0,0.0,0.0
95,9.52,-0.38,0.51,0.16,-0.04,0.02,-13.75,8.19,26.56,0.73,-0.03,-0.68,0.01,0.095,0.1621859999999985,0.16497599999999998,-0.3068970000000011,True,0.0,0.0,0.0
96,9.51,-0.07,0.44,0.14,-0.04,0.03,-13.75,8.19,26.56,0.73,-0.03,-0.68,0.01,0.096,0.23913299999999849,0.47054100000000004,-0.3394919999999999,True,0.0,0.0,0.0
97,9.52,-0.06,0.39,0.14,-0.03,0.03,-13.75,8.19,26.56,0.73,-0.03,-0.68,0.01,0.097,0.2897779999999984,0.479528,-0.33362900000000195,True,0.0,0.0,0.0
98,9.51,-0.11,0.43,0.18,-0.02,0.03,-13.75,8.19,26.56,0.73,-0.03,-0.68,0.01,0.098,0.24801899999999844,0.43046700000000004,-0.3378930000000011,True,0.0,0.0,0.0
99,9.56,-0.36,0.45,0.22,-0.02,0.04,-14.0,8.25,25.19,0.73,-0.03,-0.68,0.01,0.099,0.22516599999999853,0.1852660000000001,-0.27253900000000186,True,0.0,0.0,0.0
100,9.5,-0.76,0.56,0.21,-0.01,0.03,-14.0,8.25,25.19,0.73,-0.02,-0.68,0.01,0.1,0.10683199999999804,-0.350212,-0.3103599999999993,True,0.0,0.0,0.0
101,9.46,-0.82,0.54,0.17,-0.01,0.03,-14.0,8.25,25.19,0.73,-0.02,-0.68,0.01,0.101,0.12310799999999811,-0.411884,-0.3488919999999993,True,0.0,0.0,0.0
102,9.46,-0.82,0.54,0.14,-0.01,0.02,-14.0,8.25,25.19,0.73,-0.02,-0.68,0.01,0.102,0.12310799999999811,-0.411884,-0.3488919999999993,True,0.0,0.0,0.0
103,9.5,-0.81,0.55,0.1,-0.02,0.01,-15.38,7.87,25.37,0.73,-0.02,-0.68,0.01,0.103,0.11613399999999796,-0.4001080000000002,-0.30892199999999903,True,0.0,0.0,0.0
104,9.5,-0.81,0.55,0.05,-0.03,-0.0,-15.38,7.87,25.37,0.73,-0.02,-0.69,0.01,0.104,-0.022370000000000223,-0.40751499999999996,-0.17759500000000195,True,0.0,0.0,0.0
105,9.57,-0.55,0.51,0.03,-0.03,0.0,-15.38,7.87,25.37,0.73,-0.02,-0.69,0.01,0.105,0.02531899999999976,-0.14296699999999998,-0.12054500000000168,True,0.0,0.0,0.0
106,9.43,-0.53,0.46,0.01,-0.03,0.01,-15.38,7.87,25.37,0.73,-0.02,-0.69,0.01,0.106,0.06797499999999984,-0.12947499999999998,-0.2652100000000015,False,2.5318999999999782e-05,-0.0001429670000000001,-0.00012054500000000178
107,9.51,-0.49,0.4,0.02,-0.04,0.01,-15.38,7.87,25.37,0.73,-0.02,-0.69,0.01,0.107,0.13353099999999984,-0.08668299999999995,-0.18976000000000148,True,0.0,0.0,0.0
108,9.6,-0.4,0.34,0.02,-0.04,0.01,-13.19,8.06,24.5,0.73,-0.02,-0.69,0.01,0.108,0.2003079999999997,0.0069559999999999995,-0.1063900000000011,True,0.0,0.0,0.0
109,9.6,-0.34,0.25,0.02,-0.03,0.01,-13.19,8.06,24.5,0.73,-0.02,-0.69,0.01,0.109,0.2917899999999997,0.06607999999999996,-0.11405500000000046,True,0.0,0.0,0.0
110,9.5,-0.33,0.24,0.03,-0.02,0.01,-13.19,8.06,24.5,0.73,-0.02,-0.69,0.01,0.11,0.2962879999999998,0.07179100000000002,-0.21575000000000166,True,0.0,0.0,0.0
111,9.5,-0.33,0.24,0.03,-0.02,0.01,-13.19,8.06,24.5,0.73,-0.02,-0.69,0.02,0.111,0.29815999999999976,0.20727800000000007,-0.21492400000000167,True,0.0,0.0,0.0
112,9.54,-0.36,0.33,0.04,-0.01,0.01,-13.19,8.06,24.5,0.73,-0.02,-0.69,0.02,0.112,0.20974199999999976,0.17944800000000002,-0.16784400000000232,True,0.0,0.0,0.0
113,9.54,-0.36,0.33,0.04,-0.0,0.02,-15.06,9.19,23.25,0.73,-0.02,-0.69,0.02,0.113,0.20974199999999976,0.17944800000000002,-0.16784400000000232,True,0.0,0.0,0.0
114,9.49,-0.57,0.43,0.05,0.0,0.02,-15.06,9.19,23.25,0.73,-0.02,-0.69,0.02,0.114,0.10641799999999985,-0.03495399999999984,-0.20056600000000202,True,0.0,0.0,0.0
115,9.49,-0.57,0.43,0.04,0.0,0.02,-15.06,9.19,23.25,0.73,-0.02,-0.69,0.02,0.115,0.10641799999999985,-0.03495399999999984,-0.20056600000000202,True,0.0,0.0,0.0
116,9.48,-0.58,0.38,0.03,-0.0,0.02,-15.06,9.19,23.25,0.73,-0.02,-0.69,0.02,0.116,0.15627599999999997,-0.04568399999999989,-0.21290399999999998,True,0.0,0.0,0.0
117,9.59,-0.78,0.24,0.02,-0.0,0.02,-15.06,9.19,23.25,0.73,-0.02,-0.69,0.02,0.117,0.3039919999999998,-0.24130000000000001,-0.0987700000000018,True,0.0,0.0,0.0
118,9.62,-0.81,0.22,0.01,-0.01,0.02,-13.88,8.56,24.5,0.73,-0.02,-0.69,0.02,0.118,0.3259079999999997,-0.26987400000000006,-0.06800400000000018,True,0.0,0.0,0.0
119,9.58,-0.87,0.27,-0.02,-0.01,0.0,-13.88,8.56,24.5,0.73,-0.02,-0.69,0.02,0.119,0.27332199999999973,-0.3325579999999999,-0.10202000000000133,True,0.0,0.0,0.0
120,9.5,-0.79,0.26,-0.07,-0.0,-0.01,-13.88,8.56,24.5,0.73,-0.02,-0.69,0.02,0.12,0.27873199999999987,-0.2564619999999999,-0.18766000000000105,True,0.0,0.0,0.0
121,9.45,-0.39,0.41,-0.14,0.01,-0.01,-13.88,8.56,24.5,0.73,-0.02,-0.69,0.01,0.121,0.1213269999999998,0.011789000000000008,-0.2539150000000028,True,0.0,0.0,0.0
122,9.48,-0.22,0.46,-0.17,0.02,-0.0,-13.88,8.56,24.5,0.73,-0.02,-0.69,0.01,0.122,0.07485999999999987,0.18527000000000005,-0.22818999999999967,True,0.0,0.0,0.0
123,9.5,-0.18,0.47,-0.14,0.02,-0.0,-14.56,9.38,23.0,0.73,-0.02,-0.69,0.01,0.123,0.06644399999999989,0.22660800000000003,-0.20920500000000075,True,0.0,0.0,0.0
124,9.5,-0.27,0.52,-0.08,0.02,-0.01,-14.56,9.38,23.0,0.73,-0.02,-0.69,0.01,0.124,0.014883999999999786,0.13661300000000004,-0.20251000000000197,True,0.0,0.0,0.0
125,9.5,-0.27,0.52,-0.04,0.02,0.0,-14.56,9.38,23.0,0.73,-0.02,-0.69,0.01,0.125,0.014883999999999786,0.13661300000000004,-0.20251000000000197,True,0.0,0.0,0.0
126,9.49,-0.53,0.54,-0.03,0.03,0.0,-14.56,9.38,23.0,0.73,-0.03,-0.69,0.01,0.126,-0.011899999999999689,0.013399999999999974,-0.19470000000000098,True,0.0,0.0,0.0
127,9.49,-0.5,0.56,-0.05,0.03,0.0,-14.56,9.38,23.0,0.73,-0.03,-0.69,0.01,0.127,-0.03125599999999973,0.04424000000000002,-0.1953080000000007,True,0.0,0.0,0.0
128,9.51,-0.57,0.57,-0.07,0.03,0.01,-15.56,8.88,24.5,0.73,-0.03,-0.69,0.01,0.128,-0.04205999999999954,-0.02489999999999993,-0.17058000000000106,True,0.0,0.0,0.0
129,9.52,-0.59,0.57,-0.07,0.02,0.01,-15.56,8.88,24.5,0.73,-0.03,-0.69,0.01,0.129,-0.04201999999999961,-0.04449999999999988,-0.15936000000000128,True,0.0,0.0,0.0
130,9.51,-0.61,0.6,-0.08,0.02,0.0,-15.56,8.88,24.5,0.73,-0.03,-0.69,0.01,0.13,-0.07337199999999966,-0.06431999999999995,-0.16659600000000196,True,0.0,0.0,0.0
131,9.48,-0.58,0.65,-0.09,0.02,-0.0,-15.56,8.88,24.5,0.73,-0.03,-0.69,0.01,0.131,-0.12469599999999958,-0.034259999999999804,-0.1957280000000008,True,0.0,0.0,0.0
132,9.48,-0.58,0.65,-0.1,0.02,0.0,-15.56,8.88,24.5,0.73,-0.03,-0.69,0.01,0.132,-0.12469599999999958,-0.034259999999999804,-0.1957280000000008,True,0.0,0.0,0.0
133,9.52,-0.3,0.78,-0.09,0.01,-0.0,-14.56,9.56,25.56,0.73,-0.03,-0.69,0.01,0.133,-0.2459279999999997,0.25411999999999996,-0.16430400000000134,True,0.0,0.0,0.0
134,9.52,-0.3,0.78,-0.09,0.01,-0.0,-14.56,9.56,25.56,0.73,-0.03,-0.69,0.01,0.134,-0.2459279999999997,0.25411999999999996,-0.16430400000000134,True,0.0,0.0,0.0
135,9.51,-0.33,0.7,-0.05,0.01,0.01,-14.56,9.56,25.56,0.73,-0.03,-0.69,0.01,0.135,-0.16666799999999948,0.22091999999999998,-0.17712400000000272,True,0.0,0.0,0.0
136,9.52,-0.5,0.58,-0.03,0.0,0.01,-14.56,9.56,25.56,0.73,-0.03,-0.69,0.01,0.136,-0.04968799999999962,0.046520000000000034,-0.16398400000000102,True,0.0,0.0,0.0
137,9.53,-0.55,0.56,-0.02,0.0,0.0,-14.56,9.56,25.56,0.73,-0.03,-0.69,0.01,0.137,-0.030291999999999764,-0.003919999999999958,-0.1521560000000033,True,0.0,0.0,0.0
138,9.53,-0.59,0.56,-0.02,0.0,0.01,-15.69,9.06,24.06,0.73,-0.03,-0.69,0.01,0.138,-0.031363999999999836,-0.04423999999999987,-0.14985200000000276,True,0.0,0.0,0.0
139,9.53,-0.59,0.56,-0.02,0.0,0.01,-15.69,9.06,24.06,0.73,-0.03,-0.69,0.01,0.139,-0.031363999999999836,-0.04423999999999987,-0.14985200000000276,True,0.0,0.0,0.0
140,9.53,-0.55,0.52,-0.03,0.0,0.01,-15.69,9.06,24.06,0.73,-0.03,-0.69,0.01,0.14,0.010028000000000259,-0.005119999999999961,-0.15439600000000198,True,0.0,0.0,0.0
141,9.51,-0.53,0.54,-0.03,-0.0,0.0,-15.69,9.06,24.06,0.73,-0.03,-0.69,0.01,0.141,-0.010747999999999647,0.014519999999999984,-0.17456400000000194,True,0.0,0.0,0.0
142,9.51,-0.55,0.62,-0.02,-0.0,0.01,-15.69,9.06,24.06,0.73,-0.03,-0.69,0.01,0.142,-0.09192399999999956,-0.003239999999999972,-0.16893200000000164,True,0.0,0.0,0.0
143,9.5,-0.56,0.54,-0.02,-0.01,0.0,-14.19,8.69,25.56,0.73,-0.03,-0.69,0.01,0.143,-0.012127999999999695,-0.016280000000000065,-0.1829040000000024,True,0.0,0.0,0.0
144,9.47,-0.51,0.51,-0.04,-0.01,-0.0,-14.19,8.69,25.56,0.73,-0.03,-0.69,0.01,0.144,0.017724000000000406,0.031540000000000144,-0.21766800000000153,True,0.0,0.0,0.0
145,9.46,-0.47,0.49,-0.04,0.0,-0.01,-14.19,8.69,25.56,0.73,-0.03,-0.69,0.01,0.145,0.03838000000000047,0.07070000000000017,-0.23115999999999914,True,0.0,0.0,0.0
146,9.51,-0.52,0.54,-0.03,0.0,-0.0,-14.19,8.69,25.56,0.73,-0.03,-0.69,0.01,0.146,-0.0104799999999996,0.024599999999999962,-0.17514000000000252,True,0.0,0.0,0.0
147,9.53,-0.61,0.53,-0.02,0.0,-0.0,-13.5,9.06,24.37,0.73,-0.03,-0.69,0.01,0.147,-0.0016599999999997728,-0.06529999999999994,-0.15038000000000196,True,0.0,0.0,0.0
148,9.56,-0.6,0.56,-0.02,0.0,-0.01,-13.5,9.06,24.37,0.73,-0.03,-0.69,0.01,0.148,-0.02990399999999971,-0.052639999999999944,-0.11907200000000095,True,0.0,0.0,0.0
149,9.56,-0.6,0.56,-0.03,-0.0,-0.01,-13.5,9.06,24.37,0.73,-0.03,-0.69,0.01,0.149,-0.02990399999999971,-0.052639999999999944,-0.11907200000000095,True,0.0,0.0,0.0
150,9.54,-0.53,0.57,-0.04,-0.01,-0.01,-13.5,9.06,24.37,0.73,-0.03,-0.69,0.01,0.15,-0.03925999999999963,0.017099999999999997,-0.14268000000000214,True,0.0,0.0,0.0
151,9.54,-0.47,0.6,-0.06,-0.0,-0.01,-13.5,9.06,24.37,0.73,-0.03,-0.69,0.01,0.151,-0.06789199999999962,0.07848000000000009,-0.1444560000000017,True,0.0,0.0,0.0
152,9.51,-0.43,0.62,-0.06,-0.0,-0.01,-14.56,8.0,25.56,0.73,-0.03,-0.69,0.01,0.152,-0.08870799999999956,0.11772000000000005,-0.17584400000000144,True,0.0,0.0,0.0
153,9.44,-0.49,0.59,-0.04,-0.01,-0.01,-14.56,8.0,25.56,0.73,-0.03,-0.69,0.01,0.153,-0.06410799999999961,0.05242000000000002,-0.24454400000000298,True,0.0,0.0,0.0
154,9.46,-0.53,0.56,-0.03,-0.01,-0.01,-14.56,8.0,25.56,0.73,-0.03,-0.69,0.01,0.154,-0.03378799999999971,0.012320000000000074,-0.2237840000000002,True,0.0,0.0,0.0
155,9.51,-0.58,0.5,-0.03,-0.01,-0.01,-14.56,8.0,25.56,0.73,-0.03,-0.69,0.01,0.155,0.028232000000000368,-0.037079999999999905,-0.1739240000000013,True,0.0,0.0,0.0
156,9.51,-0.58,0.5,-0.03,-0.02,-0.01,-14.56,8.0,25.56,0.73,-0.03,-0.69,0.01,0.156,0.028232000000000368,-0.037079999999999905,-0.1739240000000013,True,0.0,0.0,0.0
157,9.52,-0.54,0.44,-0.03,-0.01,-0.02,-13.88,8.69,24.5,0.73,-0.03,-0.69,0.01,0.157,0.09036000000000022,0.002000000000000012,-0.1695200000000021,True,0.0,0.0,0.0
158,9.52,-0.54,0.44,-0.03,-0.01,-0.02,-13.88,8.69,24.5,0.73,-0.03,-0.69,0.01,0.158,0.09036000000000022,0.002000000000000012,-0.1695200000000021,True,0.0,0.0,0.0
159,9.45,-0.49,0.34,-0.03,-0.01,-0.01,-13.88,8.69,24.5,0.73,-0.03,-0.69,0.01,0.159,0.18846800000000025,0.045480000000000034,-0.24847600000000192,True,0.0,0.0,0.0
160,9.42,-0.56,0.33,-0.02,-0.0,-0.01,-13.88,8.69,24.5,0.73,-0.03,-0.69,0.01,0.16,0.19494400000000034,-0.027059999999999994,-0.275208000000001,False,0.00018846800000000042,4.548000000000007e-05,-0.00024847600000000214
161,9.62,-0.62,0.54,-0.01,0.0,-0.02,-13.88,8.69,24.5,0.73,-0.03,-0.69,0.01,0.161,-0.006823999999999719,-0.07003999999999999,-0.058632000000002904,True,0.0,0.0,0.0
162,9.72,-0.47,0.56,-0.03,0.0,-0.02,-14.19,8.38,24.87,0.73,-0.03,-0.69,0.01,0.162,-0.017203999999999664,0.08736000000000019,0.03452799999999989,True,0.0,0.0,0.0
163,9.6,-0.35,0.57,-0.04,0.01,-0.01,-14.19,8.38,24.87,0.73,-0.03,-0.69,0.01,0.163,-0.030979999999999563,0.20190000000000008,-0.09264000000000117,True,0.0,0.0,0.0
164,9.41,-0.43,0.54,-0.03,0.01,-0.01,-14.19,8.38,24.87,0.73,-0.03,-0.69,0.01,0.164,-0.013827999999999618,0.1097200000000001,-0.2810040000000029,False,-3.097999999999959e-05,0.00020190000000000025,-9.264000000000125e-05
165,9.41,-0.53,0.56,0.02,0.01,-0.01,-14.19,8.38,24.87,0.73,-0.03,-0.69,0.01,0.165,-0.0366679999999997,0.00952000000000005,-0.27412400000000225,False,-4.480799999999922e-05,0.0003116200000000004,-0.0003736440000000044
166,9.49,-0.6,0.58,0.04,0.01,-0.01,-14.19,8.38,24.87,0.73,-0.03,-0.69,0.01,0.166,-0.05409599999999959,-0.05595999999999998,-0.18842800000000004,True,0.0,0.0,0.0
167,9.51,-0.6,0.61,0.03,0.01,-0.01,-14.19,8.38,24.06,0.73,-0.03,-0.69,0.01,0.167,-0.08318399999999959,-0.053939999999999974,-0.16661200000000065,True,0.0,0.0,0.0
168,9.5,-0.62,0.69,0.02,0.01,-0.01,-14.19,8.38,24.06,0.73,-0.03,-0.69,0.01,0.168,-0.16493599999999953,-0.07225999999999994,-0.17104800000000253,True,0.0,0.0,0.0
169,9.55,-0.6,0.69,-0.0,-0.01,-0.03,-14.19,8.38,24.06,0.73,-0.03,-0.69,0.01,0.169,-0.16151999999999955,-0.049299999999999955,-0.12185999999999986,True,0.0,0.0,0.0
170,9.55,-0.55,0.78,-0.0,-0.01,-0.03,-14.19,8.38,24.06,0.73,-0.03,-0.69,0.01,0.17,-0.25089999999999957,0.00380000000000005,-0.11969999999999992,True,0.0,0.0,0.0
171,9.51,-0.48,0.73,-0.01,-0.02,-0.02,-14.19,8.38,24.06,0.73,-0.03,-0.69,0.01,0.171,-0.20092799999999955,0.07062000000000004,-0.16680400000000262,True,0.0,0.0,0.0
172,9.4,-0.37,0.58,-0.01,-0.02,-0.02,-14.56,9.38,25.69,0.73,-0.03,-0.69,0.01,0.172,-0.05311599999999961,0.17084000000000008,-0.292288000000001,False,-0.00020092799999999416,7.061999999999814e-05,-0.00016680399999999813
173,9.45,-0.39,0.56,0.0,-0.03,-0.02,-14.56,9.38,25.69,0.73,-0.03,-0.69,0.01,0.173,-0.03061199999999975,0.15288,-0.24191600000000335,True,0.0,0.0,0.0
174,9.59,-0.43,0.54,0.02,-0.03,-0.02,-14.56,9.38,25.69,0.73,-0.03,-0.69,0.01,0.174,-0.0034599999999996855,0.11980000000000007,-0.09978000000000264,True,0.0,0.0,0.0
175,9.64,-0.51,0.55,0.03,-0.03,-0.02,-14.56,9.38,25.69,0.73,-0.03,-0.69,0.01,0.175,-0.012803999999999593,0.04226000000000012,-0.044272000000002976,True,0.0,0.0,0.0
176,9.49,-0.45,0.58,0.03,-0.04,-0.02,-15.38,9.06,24.87,0.73,-0.03,-0.69,0.01,0.176,-0.050075999999999565,0.09524000000000002,-0.19706800000000158,True,0.0,0.0,0.0
177,9.46,-0.43,0.59,0.02,-0.04,-0.01,-15.38,9.06,24.87,0.73,-0.03,-0.69,0.01,0.177,-0.061347999999999514,0.11402000000000012,-0.2278640000000003,True,0.0,0.0,0.0
178,9.5,-0.41,0.59,0.03,-0.04,-0.02,-15.38,9.06,24.87,0.73,-0.03,-0.69,0.01,0.178,-0.05850799999999956,0.13642000000000004,-0.18874400000000158,True,0.0,0.0,0.0
179,9.52,-0.3,0.61,0.03,-0.04,-0.02,-15.38,9.06,24.87,0.73,-0.03,-0.69,0.01,0.179,-0.07456799999999975,0.24902,-0.17382400000000153,True,0.0,0.0,0.0
180,9.49,-0.3,0.65,0.03,-0.04,-0.01,-15.38,9.06,24.87,0.73,-0.03,-0.69,0.01,0.18,-0.11661599999999972,0.24853999999999996,-0.20178800000000052,True,0.0,0.0,0.0
181,9.5,-0.33,0.65,0.05,-0.05,-0.01,-15.38,9.06,24.87,0.73,-0.03,-0.69,0.01,0.181,-0.11684399999999961,0.21885999999999997,-0.18999200000000194,True,0.0,0.0,0.0
182,9.5,-0.33,0.65,0.05,-0.05,-0.01,-15.69,8.38,24.06,0.73,-0.03,-0.69,0.01,0.182,-0.11684399999999961,0.21885999999999997,-0.18999200000000194,True,0.0,0.0,0.0
183,9.54,-0.48,0.77,0.06,-0.06,-0.01,-15.69,8.38,24.06,0.73,-0.03,-0.69,0.01,0.183,-0.23951999999999962,0.07350000000000005,-0.1343600000000027,True,0.0,0.0,0.0
184,9.61,-0.56,0.78,0.07,-0.06,-0.01,-15.69,8.38,24.06,0.73,-0.03,-0.69,0.01,0.184,-0.2477119999999996,-0.0029200000000001204,-0.05871600000000221,True,0.0,0.0,0.0
185,9.61,-0.59,0.74,0.07,-0.07,-0.02,-15.69,8.38,24.06,0.73,-0.03,-0.69,0.01,0.185,-0.2081959999999995,-0.034359999999999946,-0.05922800000000272,True,0.0,0.0,0.0
186,9.6,-0.59,0.66,0.07,-0.08,-0.02,-15.69,8.38,24.06,0.73,-0.03,-0.69,0.01,0.186,-0.1281319999999997,-0.03731999999999984,-0.07377600000000051,True,0.0,0.0,0.0
187,9.47,-0.57,0.45,0.06,-0.09,-0.02,-15.69,8.69,25.69,0.73,-0.03,-0.69,0.01,0.187,0.07659600000000044,-0.030739999999999837,-0.21757200000000054,True,0.0,0.0,0.0
188,9.48,-0.55,0.27,0.04,-0.09,-0.02,-15.69,8.69,25.69,0.72,-0.03,-0.69,0.01,0.188,0.1253040000000007,-0.009503000000000041,-0.35380500000000126,True,0.0,0.0,0.0
189,9.52,-0.5,0.24,0.03,-0.1,-0.02,-15.69,8.69,25.69,0.72,-0.03,-0.69,0.01,0.189,0.15820400000000062,0.041521999999999996,-0.31818000000000346,True,0.0,0.0,0.0
190,9.48,-0.47,0.23,0.02,-0.09,-0.02,-15.69,8.69,25.69,0.72,-0.03,-0.69,0.01,0.19,0.16723200000000069,0.06880100000000001,-0.36002500000000204,True,0.0,0.0,0.0
191,9.47,-0.42,0.19,0.01,-0.09,-0.02,-16.19,9.06,25.19,0.72,-0.03,-0.69,0.01,0.191,0.20791900000000063,0.11674200000000003,-0.3744650000000007,True,0.0,0.0,0.0
192,9.46,-0.36,0.12,0.01,-0.08,-0.02,-16.19,9.06,25.19,0.72,-0.02,-0.69,0.01,0.192,0.27896400000000016,0.04128000000000002,-0.3939520000000005,True,0.0,0.0,0.0
193,9.51,-0.38,0.0,0.02,-0.07,-0.02,-16.19,9.06,25.19,0.72,-0.02,-0.69,0.01,0.193,0.4001100000000001,0.02169999999999994,-0.3484800000000021,True,0.0,0.0,0.0
194,9.51,-0.39,0.0,0.03,-0.07,-0.02,-16.19,9.06,25.19,0.72,-0.02,-0.69,0.01,0.194,0.3999780000000001,0.011759999999999937,-0.3480540000000012,True,0.0,0.0,0.0
195,9.51,-0.43,0.02,0.04,-0.05,-0.02,-16.19,9.06,25.19,0.72,-0.02,-0.69,0.01,0.195,0.3795700000000001,-0.027700000000000023,-0.34551000000000087,True,0.0,0.0,0.0
196,9.51,-0.43,0.02,0.04,-0.05,-0.02,-14.0,8.0,24.75,0.72,-0.02,-0.69,0.01,0.196,0.3795700000000001,-0.027700000000000023,-0.34551000000000087,True,0.0,0.0,0.0
197,9.43,-0.25,-0.04,0.03,-0.03,-0.01,-14.0,8.0,24.75,0.72,-0.02,-0.69,0.01,0.197,0.4381780000000001,0.14695999999999998,-0.4351540000000007,False,0.0003795700000000004,-2.7700000000000046e-05,-0.0003455100000000012
198,9.46,-0.23,0.0,0.04,-0.02,-0.01,-14.0,8.0,24.75,0.72,-0.02,-0.69,0.01,0.198,0.39996000000000015,0.1687,-0.4045299999999994,True,0.0,0.0,0.0
199,9.53,-0.27,0.01,0.06,-0.02,-0.01,-14.0,8.0,24.75,0.72,-0.02,-0.69,0.01,0.199,0.3924740000000001,0.13202999999999995,-0.33288200000000145,True,0.0,0.0,0.0
200,9.51,-0.61,0.01,0.09,0.01,-0.01,-14.25,9.06,24.75,0.72,-0.02,-0.69,0.01,0.2,0.3871340000000001,-0.20677000000000004,-0.33826200000000206,True,0.0,0.0,0.0
201,9.51,-0.61,0.01,0.09,0.03,-0.02,-14.25,9.06,24.75,0.72,-0.02,-0.69,0.01,0.201,0.3871340000000001,-0.20677000000000004,-0.33826200000000206,True,0.0,0.0,0.0
202,9.67,-0.61,0.17,0.06,0.04,-0.01,-14.25,9.06,24.75,0.72,-0.02,-0.69,0.01,0.202,0.23491000000000015,-0.19765000000000005,-0.17263000000000162,True,0.0,0.0,0.0
203,9.52,-0.51,0.24,0.04,0.05,-0.01,-14.25,9.06,24.75,0.72,-0.02,-0.69,0.01,0.203,0.1602600000000001,-0.10350000000000013,-0.32293000000000127,True,0.0,0.0,0.0
204,9.52,-0.51,0.24,0.04,0.05,-0.0,-14.25,9.06,24.75,0.72,-0.02,-0.69,0.01,0.204,0.1602600000000001,-0.10350000000000013,-0.32293000000000127,True,0.0,0.0,0.0
205,9.39,-0.44,0.31,0.05,0.06,-0.01,-13.56,8.38,24.87,0.72,-0.02,-0.69,0.01,0.205,0.0860660000000002,-0.03833000000000002,-0.4520879999999998,False,0.00016026000000000023,-0.00010350000000000023,-0.00032293000000000154
206,9.39,-0.44,0.31,0.05,0.06,-0.01,-13.56,8.38,24.87,0.72,-0.02,-0.69,0.01,0.206,0.0860660000000002,-0.03833000000000002,-0.4520879999999998,False,0.0002463260000000005,-0.0001418300000000003,-0.0007750180000000018
207,9.54,-0.56,0.23,0.08,0.05,-0.01,-13.56,8.38,24.87,0.72,-0.02,-0.69,0.01,0.207,0.1703920000000001,-0.1525100000000001,-0.30135600000000196,True,0.0,0.0,0.0
208,9.5,-0.68,0.19,0.08,0.06,-0.02,-13.56,8.38,24.87,0.72,-0.02,-0.69,0.01,0.208,0.20686400000000016,-0.2740700000000001,-0.3376520000000003,True,0.0,0.0,0.0
209,9.52,-0.72,0.17,0.05,0.07,-0.02,-13.56,8.38,24.87,0.72,-0.02,-0.69,0.01,0.209,0.22706800000000008,-0.31329000000000007,-0.316924000000002,True,0.0,0.0,0.0
210,9.54,-0.61,0.15,0.0,0.09,-0.04,-14.25,8.69,24.5,0.72,-0.02,-0.69,0.01,0.21,0.2492520000000001,-0.20341000000000006,-0.30258600000000335,True,0.0,0.0,0.0
211,9.54,-0.33,0.1,-0.03,0.09,-0.03,-14.25,8.69,24.5,0.72,-0.02,-0.69,0.01,0.211,0.3026480000000001,0.07415999999999989,-0.3166140000000013,True,0.0,0.0,0.0
212,9.5,-0.33,0.11,-0.03,0.1,-0.03,-14.25,8.69,24.5,0.72,-0.02,-0.69,0.01,0.212,0.2910040000000001,0.07262999999999993,-0.3559220000000014,True,0.0,0.0,0.0
213,9.48,-0.34,0.1,-0.02,0.11,-0.03,-14.25,8.69,24.5,0.72,-0.02,-0.69,0.01,0.213,0.29996000000000017,0.06169999999999992,-0.37578000000000067,True,0.0,0.0,0.0
214,9.45,-0.4,0.15,0.0,0.12,-0.03,-14.25,8.69,24.5,0.72,-0.02,-0.69,0.01,0.214,0.2481900000000001,0.0015499999999999104,-0.40092000000000283,False,0.00029996000000000043,6.169999999999998e-05,-0.000375780000000001
215,9.48,-0.45,0.22,0.02,0.14,-0.03,-14.69,8.69,24.87,0.72,-0.02,-0.69,0.01,0.215,0.17922800000000016,-0.045840000000000075,-0.3660540000000001,True,0.0,0.0,0.0
216,9.5,-0.45,0.23,0.01,0.15,-0.03,-14.69,8.69,24.87,0.72,-0.02,-0.69,0.01,0.216,0.17014000000000012,-0.04485000000000006,-0.3457699999999999,True,0.0,0.0,0.0
217,9.53,-0.42,0.24,-0.01,0.17,-0.03,-14.69,8.69,24.87,0.73,-0.02,-0.69,0.01,0.217,0.29683099999999973,-0.017707999999999977,-0.18167000000000222,True,0.0,0.0,0.0
218,9.46,-0.28,0.32,-0.01,0.17,-0.03,-14.69,8.69,24.87,0.73,-0.02,-0.69,0.01,0.218,0.2140299999999999,0.12176000000000005,-0.25366,True,0.0,0.0,0.0
219,9.41,-0.3,0.28,-0.01,0.19,-0.03,-14.69,8.69,24.87,0.73,-0.02,-0.69,0.01,0.219,0.25122699999999976,0.09886400000000002,-0.30541000000000196,False,0.0002140300000000001,0.00012176000000000016,-0.0002536600000000002
220,9.41,-0.38,0.27,0.01,0.21,-0.03,-14.69,8.0,23.25,0.73,-0.02,-0.69,0.01,0.22,0.26026499999999975,0.018030000000000053,-0.30253500000000244,False,0.00046525700000000006,0.00022062400000000026,-0.0005590700000000024
221,9.45,-0.45,0.29,0.02,0.23,-0.03,-14.69,8.0,23.25,0.73,-0.02,-0.69,0.01,0.221,0.24148299999999978,-0.050569,-0.25811500000000365,True,0.0,0.0,0.0
222,9.5,-0.39,0.25,0.01,0.25,-0.03,-14.69,8.0,23.25,0.73,-0.02,-0.68,0.01,0.222,0.41938599999999815,0.01302799999999997,-0.34795799999999844,True,0.0,0.0,0.0
223,9.44,-0.33,0.22,0.0,0.27,-0.03,-14.69,8.0,23.25,0.73,-0.02,-0.68,0.01,0.223,0.44568999999999803,0.06973999999999993,-0.41217599999999877,False,0.00041938599999999854,1.3027999999999981e-05,-0.00034795799999999874
224,9.38,-0.29,0.24,0.0,0.29,-0.02,-14.69,8.0,23.25,0.73,-0.02,-0.68,0.01,0.224,0.42208199999999807,0.10733600000000001,-0.4720279999999999,False,0.000865075999999997,8.276799999999998e-05,-0.0007601339999999978
225,9.42,-0.29,0.41,0.02,0.32,-0.02,-13.69,8.75,23.25,0.73,-0.02,-0.68,0.01,0.225,0.2560699999999981,0.11166000000000002,-0.4203980000000005,False,0.0012871579999999953,0.00019010400000000008,-0.001232161999999998
226,9.44,-0.3,0.49,0.04,0.34,-0.02,-13.69,8.75,23.25,0.73,-0.02,-0.68,0.01,0.226,0.17790399999999806,0.10379599999999996,-0.3945059999999998,False,0.0015432279999999937,0.0003017640000000002,-0.0016525599999999989
227,9.5,-0.29,0.54,0.04,0.36,-0.01,-13.69,8.75,23.25,0.73,-0.02,-0.68,0.01,0.227,0.13261799999999802,0.11703199999999998,-0.33187999999999995,True,0.0,0.0,0.0
228,9.44,-0.27,0.64,0.05,0.38,-0.02,-13.69,8.75,23.25,0.73,-0.02,-0.68,0.01,0.228,0.029301999999998052,0.13597999999999993,-0.3852599999999988,True,0.0,0.0,0.0
229,9.46,-0.31,0.73,0.06,0.39,-0.01,-13.69,8.75,23.25,0.74,-0.02,-0.68,0.01,0.229,0.0700219999999987,0.09605500000000003,-0.21787099999999882,True,0.0,0.0,0.0
230,9.49,-0.38,0.78,0.06,0.39,-0.01,-15.25,9.19,23.87,0.74,-0.02,-0.68,0.01,0.23,0.021378999999998483,0.02745000000000004,-0.18042200000000008,True,0.0,0.0,0.0
231,9.48,-0.38,0.76,0.06,0.39,-0.01,-15.25,9.19,23.87,0.74,-0.02,-0.67,0.01,0.231,0.18003999999999865,0.028199999999999958,-0.32230000000000025,True,0.0,0.0,0.0
232,9.44,-0.4,0.65,0.06,0.39,-0.01,-15.25,9.19,23.87,0.74,-0.02,-0.67,0.01,0.232,0.28495999999999844,0.004833999999999854,-0.371912,True,0.0,0.0,0.0
233,9.44,-0.4,0.65,0.06,0.41,-0.01,-15.25,9.19,23.87,0.74,-0.02,-0.67,0.01,0.233,0.28495999999999844,0.004833999999999854,-0.371912,True,0.0,0.0,0.0
234,9.42,-0.35,0.82,0.06,0.41,-0.01,-15.25,9.19,23.87,0.74,-0.02,-0.67,0.01,0.234,0.11493999999999871,0.056555999999999974,-0.37715799999999966,True,0.0,0.0,0.0
235,9.42,-0.35,0.82,0.06,0.41,-0.01,-15.19,8.69,21.56,0.74,-0.02,-0.67,0.01,0.235,0.11493999999999871,0.056555999999999974,-0.37715799999999966,True,0.0,0.0,0.0
236,9.52,-0.28,1.34,0.09,0.38,-0.0,-15.19,8.69,21.56,0.75,-0.02,-0.67,0.01,0.236,-0.2662120000000012,0.13712799999999992,-0.0822339999999997,True,0.0,0.0,0.0
237,9.48,-0.35,1.54,0.1,0.35,-0.0,-15.19,8.69,21.56,0.75,-0.02,-0.67,0.01,0.237,-0.47267400000000137,0.06801300000000002,-0.09671999999999947,True,0.0,0.0,0.0
238,9.48,-0.35,1.54,0.1,0.35,-0.0,-15.19,8.69,21.56,0.75,-0.02,-0.66,0.01,0.238,-0.32335000000000047,0.06918400000000012,-0.21850799999999992,True,0.0,0.0,0.0
239,9.37,-0.21,1.88,0.15,0.31,-0.0,-15.19,8.69,21.56,0.75,-0.02,-0.66,0.01,0.239,-0.6724820000000007,0.21000600000000003,-0.29036800000000085,True,0.0,0.0,0.0
240,9.37,-0.21,1.88,0.15,0.31,-0.0,-16.5,8.5,21.75,0.75,-0.02,-0.66,0.01,0.24,-0.6724820000000007,0.21000600000000003,-0.29036800000000085,True,0.0,0.0,0.0
241,9.43,-0.16,1.83,0.18,0.25,-0.0,-16.5,8.5,21.75,0.75,-0.01,-0.66,0.01,0.241,-0.6151110000000004,0.10955599999999999,-0.2394470000000002,True,0.0,0.0,0.0
242,9.43,-0.17,1.66,0.19,0.23,-0.01,-16.5,8.5,21.75,0.75,-0.01,-0.66,0.01,0.242,-0.4467590000000006,0.09927099999999997,-0.2607379999999999,True,0.0,0.0,0.0
243,9.41,-0.26,1.44,0.2,0.21,-0.01,-16.5,8.5,21.75,0.75,-0.01,-0.66,0.01,0.243,-0.23129100000000036,0.008500000000000021,-0.3059139999999996,True,0.0,0.0,0.0
244,9.37,-0.36,1.21,0.19,0.2,-0.01,-16.75,9.25,21.75,0.75,-0.01,-0.66,0.02,0.244,-0.006094000000000488,0.031853999999999966,-0.3686320000000016,False,-0.00023129100000000057,8.500000000000029e-06,-0.00030591399999999985
245,9.37,-0.36,1.21,0.19,0.2,-0.01,-16.75,9.25,21.75,0.75,-0.01,-0.66,0.02,0.245,-0.006094000000000488,0.031853999999999966,-0.3686320000000016,False,-0.00023738500000000106,4.035400000000003e-05,-0.0006745460000000018
246,9.37,-0.21,1.1,0.14,0.2,-0.01,-16.75,9.25,21.75,0.75,-0.01,-0.66,0.02,0.246,0.10032999999999936,0.182748,-0.388834000000001,False,-0.00024347900000000155,7.220800000000002e-05,-0.0010431780000000038
247,9.37,-0.21,1.1,0.14,0.2,-0.01,-16.75,9.25,21.75,0.75,-0.01,-0.66,0.02,0.247,0.10032999999999936,0.182748,-0.388834000000001,False,-0.00014314900000000208,0.0002549560000000002,-0.001432012000000005
248,9.38,-0.17,1.09,0.16,0.21,-0.0,-16.75,9.25,21.75,0.75,-0.01,-0.66,0.02,0.248,0.11082799999999948,0.22319800000000006,-0.3818660000000005,False,-4.281900000000263e-05,0.00043770400000000035,-0.0018208460000000064
249,9.38,-0.17,1.09,0.16,0.21,-0.0,-17.37,9.69,19.25,0.76,-0.01,-0.65,0.02,0.249,0.37762599999999935,0.22538800000000003,-0.369921999999999,False,6.800899999999696e-05,0.0006609020000000006,-0.0022027120000000073
250,9.35,-0.32,1.21,0.19,0.23,0.01,-17.37,9.69,19.25,0.76,-0.01,-0.65,0.02,0.25,0.25698399999999944,0.07284999999999994,-0.37472199999999845,False,0.00044563499999999664,0.0008862900000000008,-0.002572634000000007
251,9.4,-0.37,1.28,0.22,0.24,0.01,-17.37,9.69,19.25,0.76,-0.01,-0.65,0.02,0.251,0.19640599999999941,0.024284000000000028,-0.312403999999999,True,0.0,0.0,0.0
252,9.45,-0.41,1.39,0.23,0.23,0.0,-17.37,9.69,19.25,0.76,-0.01,-0.65,0.02,0.252,0.09611799999999948,-0.014717999999999986,-0.2442820000000001,True,0.0,0.0,0.0
253,9.45,-0.52,1.52,0.23,0.22,-0.0,-17.37,9.69,19.25,0.76,-0.01,-0.65,0.02,0.253,-0.03046000000000082,-0.12607800000000005,-0.2195480000000014,True,0.0,0.0,0.0
254,9.47,-0.56,1.81,0.21,0.21,0.0,-17.56,9.69,20.19,0.76,-0.0,-0.65,0.02,0.254,-0.3062470000000008,-0.31900400000000007,-0.15762499999999946,True,0.0,0.0,0.0
255,9.4,-0.54,1.8,0.2,0.2,-0.0,-17.56,9.69,20.19,0.76,-0.0,-0.65,0.02,0.255,-0.30780400000000063,-0.30087800000000003,-0.22885999999999918,True,0.0,0.0,0.0
256,9.4,-0.54,1.8,0.19,0.2,-0.01,-17.56,9.69,20.19,0.76,-0.0,-0.65,0.02,0.256,-0.30780400000000063,-0.30087800000000003,-0.22885999999999918,True,0.0,0.0,0.0
257,9.24,-0.6,1.65,0.18,0.19,-0.02,-17.56,9.69,20.19,0.76,-0.0,-0.65,0.02,0.257,-0.18253200000000058,-0.36182400000000003,-0.4087050000000012,False,-0.00030780400000000093,-0.0003008780000000003,-0.00022885999999999938
258,9.28,-0.65,1.68,0.15,0.18,-0.03,-17.56,9.69,20.19,0.76,-0.0,-0.65,0.02,0.258,-0.20446400000000087,-0.4113730000000001,-0.3632200000000001,False,-0.0004903360000000017,-0.0006627020000000007,-0.000637565000000001
259,9.39,-0.55,1.69,0.1,0.17,-0.04,-19.25,9.38,20.19,0.76,-0.0,-0.65,0.02,0.259,-0.2003670000000004,-0.308319,-0.2555849999999982,True,0.0,0.0,0.0
260,9.4,-0.44,1.73,0.05,0.17,-0.05,-19.25,9.38,20.19,0.76,-0.0,-0.65,0.02,0.26,-0.24168400000000045,-0.19908800000000004,-0.24234499999999848,True,0.0,0.0,0.0
261,9.35,-0.16,1.7,0.01,0.16,-0.05,-19.25,9.38,20.19,0.76,-0.0,-0.65,0.02,0.261,-0.2282910000000007,0.08008799999999998,-0.30368999999999957,True,0.0,0.0,0.0
262,9.29,-0.1,1.74,0.0,0.16,-0.05,-19.25,9.38,20.19,0.76,-0.0,-0.65,0.02,0.262,-0.27891700000000097,0.137206,-0.35831000000000124,False,-0.00022829100000000088,8.008800000000005e-05,-0.00030368999999999985
263,9.28,-0.08,1.8,0.01,0.16,-0.05,-19.25,9.38,20.19,0.76,-0.0,-0.64,0.02,0.263,-0.19328000000000034,0.15708799999999995,-0.4772480000000012,False,-0.000507208000000002,0.00021729400000000017,-0.0006620000000000013
264,9.27,-0.02,1.87,0.02,0.15,-0.05,-16.69,9.06,17.69,0.76,-0.0,-0.64,0.02,0.264,-0.26487600000000056,0.21419999999999997,-0.47672399999999904,False,-0.0007004880000000026,0.00037438200000000025,-0.001139248000000003
265,9.27,-0.02,1.87,0.05,0.15,-0.04,-16.69,9.06,17.69,0.77,-0.0,-0.64,0.02,0.265,-0.1469730000000009,0.217602,-0.32945699999999967,False,-0.0009653640000000034,0.0005885820000000005,-0.0016159720000000024
266,9.4,-0.07,1.82,0.08,0.15,-0.04,-16.69,9.06,17.69,0.77,0.0,-0.64,0.02,0.266,-0.07237600000000044,0.172781,-0.20923400000000036,True,0.0,0.0,0.0
267,9.35,-0.2,1.82,0.12,0.14,-0.03,-16.69,9.06,17.69,0.77,0.0,-0.64,0.02,0.267,-0.07751700000000072,0.040968,-0.25518600000000013,True,0.0,0.0,0.0
268,9.34,-0.27,1.72,0.14,0.14,-0.03,-16.69,9.06,17.69,0.77,0.0,-0.64,0.02,0.268,0.021369999999999445,-0.02692700000000002,-0.281620000000002,True,0.0,0.0,0.0
269,9.31,-0.35,1.62,0.14,0.14,-0.03,-19.0,9.19,16.37,0.77,0.0,-0.64,0.02,0.269,0.11690699999999965,-0.10545899999999997,-0.3275100000000002,False,2.1369999999999465e-05,-2.6927000000000046e-05,-0.0002816200000000022
270,9.27,-0.35,1.59,0.13,0.14,-0.04,-19.0,9.19,16.37,0.77,0.0,-0.64,0.02,0.27,0.13915899999999937,-0.10592299999999998,-0.3724450000000008,False,0.0001382769999999992,-0.0001323860000000001,-0.0006091300000000026
271,9.27,-0.33,1.51,0.12,0.14,-0.04,-19.0,9.19,16.37,0.77,0.0,-0.64,0.02,0.271,0.21739099999999945,-0.08383300000000002,-0.387653000000002,False,0.0002774359999999987,-0.00023830900000000016,-0.0009815750000000038
272,9.27,-0.23,1.53,0.1,0.14,-0.04,-19.0,9.19,16.37,0.77,0.0,-0.64,0.02,0.272,0.19459899999999952,0.01586499999999997,-0.38653900000000085,False,0.0004948269999999984,-0.00032214200000000025,-0.0013692280000000062
273,9.32,-0.17,1.61,0.09,0.14,-0.04,-19.0,9.19,16.37,0.77,0.0,-0.64,0.02,0.273,0.12304799999999938,0.07548300000000002,-0.3240989999999986,False,0.0006894259999999981,-0.00030627700000000025,-0.0017557670000000075
274,9.32,-0.17,1.61,0.09,0.14,-0.04,-19.69,11.0,17.5,0.77,0.0,-0.64,0.02,0.274,0.12304799999999938,0.07548300000000002,-0.3240989999999986,False,0.0008124739999999976,-0.00023079400000000015,-0.002079866000000006
275,9.36,-0.02,1.87,0.09,0.14,-0.04,-19.69,11.0,17.5,0.77,0.0,-0.64,0.02,0.275,-0.13051200000000085,0.220374,-0.24075299999999977,True,0.0,0.0,0.0
276,9.27,0.06,1.99,0.1,0.14,-0.04,-19.69,11.0,17.5,0.77,0.0,-0.64,0.03,0.276,-0.2732680000000005,0.411954,-0.3092340000000018,True,0.0,0.0,0.0
277,9.13,0.0,2.01,0.11,0.14,-0.04,-19.69,11.0,17.5,0.77,0.01,-0.64,0.03,0.277,-0.31362500000000004,0.196804,-0.4359529999999978,False,-0.00027326800000000077,0.00041195400000000035,-0.00030923400000000203
278,9.13,-0.07,2.03,0.12,0.13,-0.04,-19.69,11.0,17.5,0.77,0.01,-0.64,0.03,0.278,-0.3291950000000001,0.12562299999999998,-0.43066099999999885,False,-0.0005868930000000011,0.0006087580000000005,-0.0007451870000000002
279,9.16,-0.09,1.99,0.1,0.13,-0.04,-20.0,10.06,15.06,0.77,0.01,-0.64,0.03,0.279,-0.2831400000000006,0.10874699999999997,-0.407979000000001,False,-0.0009160880000000015,0.0007343810000000005,-0.0011758479999999995
280,9.33,0.0,1.94,0.06,0.12,-0.04,-20.0,10.06,15.06,0.77,0.01,-0.64,0.03,0.28,-0.20817500000000044,0.20725000000000002,-0.2515999999999998,True,0.0,0.0,0.0
281,9.33,0.0,1.94,0.04,0.13,-0.04,-20.0,10.06,15.06,0.77,0.01,-0.64,0.03,0.281,-0.20817500000000044,0.20725000000000002,-0.2515999999999998,True,0.0,0.0,0.0
282,9.2,0.05,1.85,0.03,0.13,-0.04,-20.0,10.06,15.06,0.77,0.01,-0.63,0.03,0.282,-0.000860000000000749,0.2601399999999999,-0.5156800000000015,False,-0.00020817499999998908,0.0002072499999999887,-0.00025159999999998606
283,9.29,0.05,2.0,0.05,0.13,-0.03,-20.0,10.06,15.06,0.77,0.01,-0.63,0.03,0.283,-0.12873200000000073,0.25518399999999997,-0.3987880000000015,True,0.0,0.0,0.0
284,9.35,-0.11,2.06,0.09,0.12,-0.03,-21.25,10.38,15.75,0.77,0.01,-0.63,0.03,0.284,-0.16578800000000093,0.0958,-0.32514800000000044,True,0.0,0.0,0.0
285,9.39,-0.21,2.08,0.12,0.12,-0.03,-21.25,10.38,15.75,0.77,0.01,-0.63,0.03,0.285,-0.17149200000000042,-0.002799999999999997,-0.2801399999999976,True,0.0,0.0,0.0
286,9.36,-0.25,2.03,0.13,0.11,-0.02,-21.25,10.38,15.75,0.77,0.01,-0.63,0.03,0.286,-0.12651600000000074,-0.04070000000000004,-0.31820800000000027,True,0.0,0.0,0.0
287,9.29,-0.3,2.12,0.15,0.11,-0.03,-21.25,10.38,15.75,0.77,0.01,-0.63,0.03,0.287,-0.2245040000000007,-0.09728000000000003,-0.3673320000000011,True,0.0,0.0,0.0
288,9.29,-0.3,2.12,0.16,0.11,-0.03,-21.25,10.38,15.75,0.77,0.01,-0.63,0.03,0.288,-0.2245040000000007,-0.09728000000000003,-0.3673320000000011,True,0.0,0.0,0.0
289,9.34,-0.26,2.26,0.15,0.07,-0.04,-19.69,11.69,15.38,0.78,0.01,-0.63,0.03,0.289,-0.23638999999999988,-0.06237400000000008,-0.13947399999999988,True,0.0,0.0,0.0
290,9.23,-0.07,2.04,0.14,0.07,-0.04,-19.69,11.69,15.38,0.78,0.01,-0.63,0.03,0.29,-0.054768999999999624,0.136429,-0.2985719999999983,False,-0.00023639000000000009,-6.237400000000013e-05,-0.000139474
291,9.23,-0.07,2.04,0.14,0.06,-0.03,-19.69,11.69,15.38,0.78,0.01,-0.63,0.03,0.291,-0.054768999999999624,0.136429,-0.2985719999999983,False,-0.00029115899999999976,7.405499999999998e-05,-0.0004380459999999985
292,9.15,-0.36,1.96,0.17,0.06,-0.04,-19.69,11.69,15.38,0.78,0.01,-0.63,0.03,0.292,0.024177000000000115,-0.153282,-0.38779000000000075,False,-0.0003459279999999994,0.0002104840000000001,-0.000736617999999997
293,9.15,-0.36,1.96,0.16,0.05,-0.05,-21.56,10.56,15.06,0.78,0.01,-0.63,0.03,0.293,0.024177000000000115,-0.153282,-0.38779000000000075,False,-0.0003217509999999993,5.720199999999996e-05,-0.0011244079999999982
294,9.34,-0.46,1.96,0.08,0.04,-0.05,-21.56,10.56,15.06,0.78,0.01,-0.63,0.03,0.294,0.07014999999999993,-0.24721400000000013,-0.19872400000000212,True,0.0,0.0,0.0
295,9.39,-0.27,2.0,-0.01,0.04,-0.05,-21.56,10.56,15.06,0.78,0.02,-0.63,0.03,0.295,0.03752999999999984,-0.20625600000000008,-0.1444580000000002,True,0.0,0.0,0.0
296,9.35,-0.18,2.09,-0.04,0.03,-0.05,-21.56,10.56,15.06,0.78,0.01,-0.63,0.03,0.296,-0.07206099999999993,0.027389999999999984,-0.16750700000000052,True,0.0,0.0,0.0
297,9.21,-0.12,2.19,-0.05,0.02,-0.05,-21.56,10.56,15.06,0.78,0.01,-0.63,0.03,0.297,-0.20334299999999939,0.07752000000000002,-0.28528499999999823,True,0.0,0.0,0.0
298,9.24,-0.09,2.24,-0.06,0.03,-0.05,-22.06,10.38,13.88,0.78,0.01,-0.63,0.03,0.298,-0.2479140000000002,0.106005,-0.24583399999999855,True,0.0,0.0,0.0
299,9.27,-0.01,2.22,-0.07,0.01,-0.06,-22.06,10.38,13.88,0.78,0.01,-0.63,0.03,0.299,-0.22670100000000049,0.18844299999999994,-0.22235399999999927,True,0.0,0.0,0.0
300,9.27,-0.08,2.24,-0.06,0.0,-0.06,-22.06,10.38,13.88,0.78,0.01,-0.63,0.03,0.3,-0.24218700000000037,0.11707399999999994,-0.21655400000000036,True,0.0,0.0,0.0
301,9.27,-0.08,2.24,-0.06,0.0,-0.06,-22.06,10.38,13.88,0.78,0.01,-0.63,0.03,0.301,-0.24218700000000037,0.11707399999999994,-0.21655400000000036,True,0.0,0.0,0.0
302,9.26,-0.11,2.24,-0.05,-0.01,-0.06,-22.06,10.38,13.88,0.78,0.01,-0.63,0.03,0.302,-0.24251200000000028,0.086603,-0.2257219999999993,True,0.0,0.0,0.0
303,9.29,-0.12,2.26,-0.05,-0.03,-0.06,-21.69,10.25,14.69,0.78,0.01,-0.63,0.03,0.303,-0.25524100000000005,0.07651799999999999,-0.19175200000000103,True,0.0,0.0,0.0
304,9.27,-0.09,2.2,-0.07,-0.04,-0.06,-21.69,10.25,14.69,0.78,0.01,-0.63,0.03,0.304,-0.20230499999999996,0.10916699999999997,-0.2248239999999999,True,0.0,0.0,0.0
305,9.16,0.24,1.96,-0.09,-0.06,-0.05,-21.69,10.25,14.69,0.78,0.01,-0.63,0.02,0.305,-0.0014240000000000919,0.3315600000000001,-0.39106400000000185,False,-0.00020230500000000014,0.00010916700000000007,-0.00022482400000000012
306,9.11,0.39,1.89,-0.07,-0.06,-0.05,-21.69,10.25,14.69,0.78,0.01,-0.63,0.02,0.306,0.05021399999999998,0.4842060000000001,-0.4564900000000005,False,-0.00020372900000000023,0.00044072700000000046,-0.0006158880000000024
307,9.1,0.48,1.83,-0.03,-0.07,-0.04,-21.69,10.25,14.69,0.78,0.01,-0.63,0.02,0.307,0.10310399999999986,0.5769,-0.4798939999999998,False,-0.0001535150000000002,0.000924933000000001,-0.0010723780000000032
308,9.25,0.6,1.83,0.03,-0.06,-0.03,-22.19,10.69,13.88,0.78,0.01,-0.63,0.02,0.308,0.12952799999999987,0.700266,-0.33356600000000114,False,-5.0411000000000246e-05,0.0015018330000000015,-0.0015522720000000034
309,9.25,0.6,1.83,0.08,-0.05,-0.02,-22.19,10.69,13.88,0.78,0.01,-0.63,0.02,0.309,0.12952799999999987,0.700266,-0.33356600000000114,False,7.911699999999974e-05,0.002202099000000002,-0.001885838000000005
310,9.38,0.69,1.87,0.12,-0.04,-0.02,-22.19,10.69,13.88,0.78,0.02,-0.63,0.03,0.31,0.09390799999999988,0.7663380000000002,-0.18819400000000108,True,0.0,0.0,0.0
311,9.34,0.58,1.91,0.16,-0.03,-0.01,-22.19,10.69,13.88,0.78,0.02,-0.63,0.03,0.311,0.05412399999999962,0.652274,-0.21834800000000065,True,0.0,0.0,0.0
312,9.34,0.58,1.91,0.2,-0.02,0.0,-22.19,10.69,13.88,0.78,0.02,-0.63,0.03,0.312,0.05412399999999962,0.652274,-0.21834800000000065,True,0.0,0.0,0.0
313,9.18,-0.02,1.91,0.21,-0.01,0.01,-21.19,9.56,14.56,0.78,0.02,-0.63,0.03,0.313,0.06356399999999973,0.04641799999999996,-0.37182799999999894,False,5.412399999999967e-05,0.0006522740000000006,-0.00021834800000000086
314,9.18,-0.02,1.91,0.2,-0.0,0.0,-21.19,9.56,14.56,0.78,0.02,-0.63,0.03,0.314,0.06356399999999973,0.04641799999999996,-0.37182799999999894,False,0.00011768799999999945,0.0006986920000000006,-0.0005901760000000002
315,9.19,-0.24,1.92,0.17,-0.0,0.0,-21.19,9.56,14.56,0.78,0.02,-0.63,0.03,0.315,0.0716979999999996,-0.17493600000000006,-0.35841600000000184,False,0.00018125199999999923,0.0007451100000000007,-0.0009620039999999995
316,9.2,-0.35,1.92,0.15,-0.0,0.01,-21.19,9.56,14.56,0.78,0.02,-0.63,0.03,0.316,0.0817279999999998,-0.2851600000000001,-0.3478500000000011,False,0.0002529499999999989,0.0005701740000000004,-0.0013204200000000016
317,9.2,-0.35,1.92,0.13,-0.0,0.0,-21.19,9.56,14.56,0.78,0.02,-0.63,0.03,0.317,0.0817279999999998,-0.2851600000000001,-0.3478500000000011,False,0.0003346779999999988,0.0002850140000000001,-0.001668270000000003
318,9.25,-0.29,2.01,0.1,-0.02,-0.0,-22.37,9.88,14.38,0.78,0.02,-0.63,0.03,0.318,-0.0003860000000002195,-0.23005000000000003,-0.27996599999999994,True,0.0,0.0,0.0
319,9.25,-0.29,2.01,0.1,-0.02,-0.0,-22.37,9.88,14.38,0.78,0.02,-0.63,0.03,0.319,-0.0003860000000002195,-0.23005000000000003,-0.27996599999999994,True,0.0,0.0,0.0
320,9.25,-0.04,1.94,0.07,-0.03,-0.01,-22.37,9.88,14.38,0.78,0.02,-0.63,0.03,0.32,0.05032599999999965,0.025779999999999997,-0.29645600000000094,False,-3.8600000000021985e-07,-0.00023005000000000023,-0.0002799660000000002
321,9.21,-0.09,1.89,0.06,-0.03,-0.01,-22.37,9.88,14.38,0.78,0.02,-0.63,0.03,0.321,0.09456599999999993,-0.021833999999999992,-0.34608600000000145,False,4.993999999999947e-05,-0.0002042700000000002,-0.0005764220000000013
322,9.2,-0.09,1.88,0.05,-0.02,-0.02,-22.37,9.88,14.38,0.77,0.02,-0.63,0.03,0.322,-0.016694000000001097,-0.02473300000000002,-0.503070000000001,False,0.0001445059999999995,-0.00022610400000000022,-0.0009225080000000031
323,9.2,-0.09,1.88,0.02,-0.03,-0.02,-21.75,10.75,14.75,0.77,0.02,-0.63,0.03,0.323,-0.016694000000001097,-0.02473300000000002,-0.503070000000001,False,0.00012781199999999836,-0.0002508370000000003,-0.0014255780000000046
324,9.23,0.0,1.71,-0.02,-0.03,-0.02,-21.75,10.75,14.75,0.77,0.02,-0.63,0.03,0.324,0.1474749999999989,0.07652400000000001,-0.5079630000000002,False,0.00011111799999999725,-0.0002755700000000003,-0.0019286480000000061
325,9.27,0.09,1.75,-0.05,-0.02,-0.02,-21.75,10.75,14.75,0.77,0.02,-0.63,0.03,0.325,0.1101089999999989,0.16358499999999998,-0.4618769999999994,False,0.0002585929999999963,-0.00019904600000000025,-0.002436611000000007
326,9.28,0.22,1.73,-0.07,-0.01,-0.02,-21.75,10.75,14.75,0.77,0.02,-0.63,0.03,0.326,0.12216199999999877,0.293672,-0.45700300000000027,False,0.0003687019999999953,-3.546100000000011e-05,-0.002898488000000007
327,9.22,0.22,1.62,-0.05,-0.01,-0.02,-21.75,10.75,14.75,0.77,0.02,-0.63,0.03,0.327,0.21702199999999894,0.299958,-0.5369019999999995,False,0.0004908639999999942,0.00025821100000000016,-0.0033554910000000073
328,9.2,0.16,1.57,-0.02,-0.0,-0.01,-21.75,9.88,13.06,0.77,0.02,-0.63,0.03,0.328,0.2658459999999985,0.243658,-0.5657350000000001,False,0.0007078859999999933,0.0005581690000000005,-0.0038923930000000074
329,9.2,0.08,1.54,0.0,0.01,-0.01,-21.75,9.88,13.06,0.77,0.02,-0.63,0.03,0.329,0.3006279999999988,0.16663599999999998,-0.5710700000000006,False,0.000973731999999992,0.0008018270000000007,-0.004458128000000008
330,9.27,0.04,1.58,0.01,0.01,-0.01,-21.75,9.88,13.06,0.77,0.02,-0.63,0.03,0.33,0.2784089999999988,0.125822,-0.49493200000000037,False,0.001274359999999991,0.0009684630000000008,-0.005029198000000009
331,9.35,0.06,1.75,0.01,0.02,-0.01,-21.75,9.88,13.06,0.77,0.02,-0.63,0.03,0.331,0.12789099999999887,0.13561,-0.38395500000000027,True,0.0,0.0,0.0
332,9.27,0.03,1.78,0.0,0.03,-0.01,-21.75,9.88,13.06,0.77,0.02,-0.63,0.03,0.332,0.0853229999999987,0.102217,-0.45556200000000047,False,0.00012789099999999898,0.00013561000000000012,-0.0003839550000000006
333,9.21,0.05,1.88,0.01,0.04,0.0,-22.56,11.06,15.06,0.77,0.02,-0.63,0.03,0.333,-0.02473500000000084,0.11386700000000002,-0.4943359999999988,False,0.00021321399999999776,0.00023782700000000022,-0.0008395170000000014
334,9.21,0.05,1.88,0.01,0.04,-0.0,-22.56,11.06,15.06,0.77,0.02,-0.63,0.03,0.334,-0.02473500000000084,0.11386700000000002,-0.4943359999999988,False,0.0001884789999999969,0.0003516940000000003,-0.0013338530000000007
335,9.15,0.08,2.03,0.02,0.03,0.0,-22.56,11.06,15.06,0.77,0.02,-0.63,0.03,0.335,-0.1839570000000006,0.131972,-0.5233550000000005,False,0.00016374399999999605,0.00046556100000000046,-0.001828189
336,9.17,0.05,2.08,0.02,0.03,-0.0,-22.56,11.06,15.06,0.77,0.02,-0.63,0.03,0.336,-0.22635500000000142,0.099307,-0.4938919999999989,False,-2.0213000000004707e-05,0.0005975330000000006,-0.002351544000000001
337,9.17,0.05,2.08,0.01,0.03,-0.0,-22.56,11.06,15.06,0.77,0.02,-0.63,0.03,0.337,-0.22635500000000142,0.099307,-0.4938919999999989,False,-0.00024656800000000636,0.0006968400000000007,-0.0028454360000000002
338,9.29,0.1,2.19,0.0,0.02,-0.0,-22.56,11.06,14.69,0.78,0.02,-0.63,0.03,0.338,-0.1967140000000005,0.14995399999999998,-0.2050200000000011,True,0.0,0.0,0.0
339,9.28,0.15,2.19,-0.01,0.02,-0.0,-22.56,11.06,14.69,0.78,0.02,-0.63,0.03,0.339,-0.20242400000000016,0.199938,-0.21518999999999977,True,0.0,0.0,0.0
340,9.25,0.16,2.19,-0.01,0.01,-0.0,-22.56,11.06,14.69,0.78,0.02,-0.63,0.03,0.34,-0.20947400000000016,0.20933000000000002,-0.24477599999999988,True,0.0,0.0,0.0
341,9.25,0.13,2.2,-0.01,0.01,0.0,-22.56,11.06,14.69,0.78,0.02,-0.63,0.03,0.341,-0.2171300000000005,0.17852000000000004,-0.24245799999999917,True,0.0,0.0,0.0
342,9.18,0.0,2.09,-0.0,0.0,-0.0,-22.56,11.06,14.69,0.78,0.02,-0.63,0.03,0.342,-0.11456400000000011,0.05407799999999999,-0.3338000000000001,False,-0.00021713000000000068,0.0001785200000000002,-0.00024245799999999938
343,9.19,-0.02,2.05,-0.02,-0.01,-0.0,-22.19,10.38,13.06,0.78,0.02,-0.63,0.03,0.343,-0.07175000000000042,0.03697399999999998,-0.33230800000000116,False,-0.00033169400000000087,0.00023259800000000026,-0.0005762579999999998
344,9.25,0.0,2.02,-0.05,-0.01,-0.0,-22.19,10.38,13.06,0.78,0.02,-0.63,0.03,0.344,-0.031082000000000498,0.06042,-0.27975999999999956,True,0.0,0.0,0.0
345,9.22,0.08,1.87,-0.06,-0.01,0.0,-22.19,10.38,13.06,0.78,0.02,-0.63,0.03,0.345,0.1040679999999996,0.15044200000000005,-0.341607999999999,False,-3.108200000000053e-05,6.0420000000000055e-05,-0.00027975999999999983
346,9.2,0.06,1.83,-0.06,-0.01,0.0,-22.19,10.38,13.06,0.78,0.02,-0.63,0.03,0.346,0.14055199999999934,0.13269,-0.36963600000000163,False,7.298599999999917e-05,0.00021086200000000022,-0.0006213679999999991
347,9.18,0.04,1.81,-0.05,-0.01,0.0,-21.75,10.75,13.06,0.78,0.02,-0.63,0.03,0.347,0.15740399999999966,0.11355799999999998,-0.39342399999999955,False,0.00021353799999999863,0.00034355200000000033,-0.000991004000000001
348,9.62,0.12,1.82,-0.05,-0.01,0.0,-21.75,10.75,13.06,0.78,0.02,-0.63,0.03,0.348,0.2346679999999992,0.20269199999999998,0.04112799999999872,True,0.0,0.0,0.0
349,9.64,0.13,1.83,-0.04,0.0,0.01,-21.75,10.75,13.06,0.78,0.02,-0.63,0.03,0.349,0.22835199999999944,0.21247400000000002,0.06286200000000086,True,0.0,0.0,0.0
350,9.61,0.16,1.78,-0.04,0.0,0.01,-21.75,10.75,13.06,0.78,0.02,-0.63,0.03,0.35,0.26894199999999935,0.24539600000000003,0.02254399999999812,True,0.0,0.0,0.0
351,9.62,0.16,1.79,-0.03,0.01,0.01,-21.75,10.75,13.06,0.78,0.02,-0.63,0.03,0.351,0.26123599999999936,0.24492200000000003,0.03450400000000009,True,0.0,0.0,0.0
352,9.58,0.25,1.83,-0.03,0.02,0.01,-21.37,10.75,13.88,0.78,0.02,-0.63,0.03,0.352,0.2070519999999998,0.331658,0.003029999999998978,True,0.0,0.0,0.0
353,9.59,0.28,1.83,-0.03,0.02,0.02,-21.37,10.75,13.88,0.78,0.02,-0.63,0.03,0.353,0.20700199999999946,0.36199400000000004,0.012671999999998462,True,0.0,0.0,0.0
354,9.62,0.3,1.8,-0.02,0.03,0.02,-21.37,10.75,13.88,0.78,0.02,-0.63,0.03,0.354,0.24133999999999967,0.3847920000000001,0.03570000000000029,True,0.0,0.0,0.0
355,9.7,0.17,1.85,0.0,0.03,0.02,-21.37,10.75,13.88,0.78,0.02,-0.63,0.03,0.355,0.21849999999999947,0.25255000000000005,0.12587799999999838,True,0.0,0.0,0.0
356,9.7,0.17,1.85,0.02,0.03,0.03,-21.37,10.75,13.88,0.78,0.02,-0.63,0.03,0.356,0.21849999999999947,0.25255000000000005,0.12587799999999838,True,0.0,0.0,0.0
357,9.62,-0.05,1.97,0.03,0.04,0.03,-21.37,10.0,15.06,0.78,0.02,-0.63,0.03,0.357,0.09966799999999942,0.02166199999999996,0.07404999999999973,True,0.0,0.0,0.0
358,9.62,-0.05,1.97,0.03,0.04,0.03,-21.37,10.0,15.06,0.78,0.02,-0.63,0.03,0.358,0.09966799999999942,0.02166199999999996,0.07404999999999973,True,0.0,0.0,0.0
359,9.56,-0.13,2.02,0.02,0.04,0.03,-21.37,10.0,15.06,0.78,0.02,-0.63,0.03,0.359,0.043687999999999505,-0.06340400000000002,0.02613799999999955,True,0.0,0.0,0.0
360,9.57,-0.11,2.05,0.01,0.04,0.03,-21.37,10.0,15.06,0.78,0.02,-0.63,0.03,0.36,0.014909999999999535,-0.04517800000000001,0.04220600000000019,True,0.0,0.0,0.0
361,9.57,-0.11,2.05,0.01,0.03,0.03,-21.37,10.0,15.06,0.78,0.02,-0.63,0.03,0.361,0.014909999999999535,-0.04517800000000001,0.04220600000000019,True,0.0,0.0,0.0
362,9.6,-0.1,2.03,0.01,0.03,0.03,-21.75,10.38,13.56,0.78,0.02,-0.63,0.03,0.362,0.04015199999999952,-0.033110000000000014,0.06741999999999848,True,0.0,0.0,0.0
363,9.6,-0.1,2.03,0.01,0.03,0.03,-21.75,10.38,13.56,0.78,0.02,-0.63,0.03,0.363,0.04015199999999952,-0.033110000000000014,0.06741999999999848,True,0.0,0.0,0.0
364,9.63,-0.16,2.06,0.01,0.03,0.02,-21.75,10.38,13.56,0.78,0.02,-0.63,0.03,0.364,0.021354000000000095,-0.09477200000000002,0.10369599999999934,True,0.0,0.0,0.0
365,9.59,-0.19,2.07,-0.0,0.03,0.02,-21.75,10.38,13.56,0.78,0.02,-0.63,0.03,0.365,0.005257999999999985,-0.12644600000000006,0.06665399999999977,True,0.0,0.0,0.0
366,9.63,-0.08,2.13,-0.03,0.03,0.01,-21.75,10.38,13.56,0.78,0.02,-0.63,0.03,0.366,-0.053118,-0.019281999999999994,0.11800799999999967,True,0.0,0.0,0.0
367,9.63,-0.08,2.13,-0.05,0.02,0.01,-22.19,10.38,13.75,0.78,0.02,-0.63,0.03,0.367,-0.053118,-0.019281999999999994,0.11800799999999967,True,0.0,0.0,0.0
368,9.65,0.01,2.12,-0.06,0.01,0.01,-22.19,10.38,13.75,0.78,0.02,-0.63,0.03,0.368,-0.045562000000000324,0.07219999999999999,0.1349739999999997,True,0.0,0.0,0.0
369,9.62,0.02,2.11,-0.06,0.01,0.01,-22.19,10.38,13.75,0.78,0.02,-0.63,0.03,0.369,-0.0427960000000005,0.08228200000000002,0.10326799999999814,True,0.0,0.0,0.0
370,9.61,0.04,2.11,-0.06,0.01,0.01,-22.19,10.38,13.75,0.78,0.02,-0.63,0.03,0.37,-0.046346000000000664,0.10214600000000001,0.09329599999999871,True,0.0,0.0,0.0
371,9.6,0.01,2.15,-0.06,0.01,0.01,-22.19,10.38,13.75,0.78,0.02,-0.63,0.03,0.371,-0.08556000000000052,0.06905,0.09213399999999794,True,0.0,0.0,0.0
372,9.59,0.0,2.13,-0.05,0.01,0.01,-21.75,11.06,14.25,0.78,0.02,-0.63,0.03,0.372,-0.06731800000000021,0.06017399999999998,0.07812000000000019,True,0.0,0.0,0.0
373,9.61,0.04,2.16,-0.05,0.0,0.01,-21.75,11.06,14.25,0.78,0.02,-0.63,0.03,0.373,-0.09542600000000112,0.09869599999999998,0.10389599999999888,True,0.0,0.0,0.0
374,9.63,0.08,2.14,-0.04,0.0,0.0,-21.75,11.06,14.25,0.78,0.02,-0.63,0.03,0.374,-0.07445400000000024,0.14066800000000002,0.11907200000000095,True,0.0,0.0,0.0
375,9.63,0.03,2.13,-0.03,-0.0,0.01,-21.75,11.06,14.25,0.78,0.02,-0.63,0.03,0.375,-0.061037999999999926,0.09115800000000002,0.11728200000000122,True,0.0,0.0,0.0
376,9.57,0.06,2.11,-0.02,-0.0,0.01,-21.75,11.06,14.25,0.78,0.02,-0.63,0.03,0.376,-0.05622600000000011,0.12136200000000003,0.05380399999999952,True,0.0,0.0,0.0
377,9.59,0.0,2.04,0.0,-0.0,0.01,-23.19,10.0,14.25,0.78,0.02,-0.63,0.03,0.377,0.021025999999999545,0.06638399999999997,0.05903999999999954,True,0.0,0.0,0.0
378,9.58,-0.01,2.0,0.01,-0.01,0.01,-23.19,10.0,14.25,0.78,0.02,-0.63,0.03,0.378,0.05889999999999951,0.058887999999999996,0.04078599999999888,True,0.0,0.0,0.0
379,9.58,-0.01,2.0,0.0,-0.01,0.01,-23.19,10.0,14.25,0.78,0.02,-0.63,0.03,0.379,0.05889999999999951,0.058887999999999996,0.04078599999999888,True,0.0,0.0,0.0
380,9.57,-0.03,2.03,-0.01,-0.01,0.01,-23.19,10.0,14.25,0.78,0.02,-0.63,0.03,0.38,0.02878199999999964,0.036522,0.03743799999999986,True,0.0,0.0,0.0
381,9.6,0.0,2.07,-0.02,-0.01,0.01,-23.19,10.0,14.25,0.78,0.02,-0.63,0.03,0.381,-0.006312000000000317,0.06453,0.07523999999999909,True,0.0,0.0,0.0
382,9.64,0.03,2.07,-0.03,-0.01,0.01,-22.56,10.75,14.69,0.78,0.02,-0.63,0.03,0.382,-3.2000000000032e-05,0.09551400000000002,0.11440200000000189,True,0.0,0.0,0.0
383,9.6,0.03,2.05,-0.03,-0.01,0.01,-22.56,10.75,14.69,0.78,0.02,-0.63,0.03,0.383,0.011159999999999393,0.09603000000000003,0.0708019999999987,True,0.0,0.0,0.0
384,9.59,0.01,2.07,-0.03,-0.01,0.01,-22.56,10.75,14.69,0.78,0.02,-0.63,0.03,0.384,-0.009141999999999761,0.07435399999999998,0.065334,True,0.0,0.0,0.0
385,9.62,0.01,2.08,-0.03,-0.01,0.01,-22.56,10.75,14.69,0.78,0.02,-0.63,0.03,0.385,-0.012628000000000306,0.07431199999999999,0.09697399999999945,True,0.0,0.0,0.0
386,9.62,0.01,2.08,-0.02,-0.01,0.01,-22.56,10.75,14.69,0.78,0.02,-0.63,0.03,0.386,-0.012628000000000306,0.07431199999999999,0.09697399999999945,True,0.0,0.0,0.0
387,9.59,-0.01,2.11,-0.02,-0.01,0.01,-22.19,10.75,13.88,0.78,0.02,-0.63,0.03,0.387,-0.046966000000000285,0.051514000000000004,0.0739459999999994,True,0.0,0.0,0.0
388,9.58,0.0,2.07,-0.02,-0.02,0.01,-22.19,10.75,13.88,0.78,0.02,-0.63,0.03,0.388,-0.010531999999999986,0.06409799999999999,0.05555999999999983,True,0.0,0.0,0.0
389,9.62,0.0,2.0,-0.01,-0.02,0.01,-22.19,10.75,13.88,0.78,0.02,-0.63,0.03,0.389,0.06661999999999946,0.06979199999999999,0.08007999999999882,True,0.0,0.0,0.0
390,9.64,0.0,1.98,-0.01,-0.02,0.01,-22.19,10.75,13.88,0.78,0.02,-0.63,0.03,0.39,0.09047199999999966,0.071604,0.0955200000000005,True,0.0,0.0,0.0
391,9.62,-0.01,1.97,0.0,-0.02,0.01,-22.56,11.5,13.56,0.78,0.02,-0.63,0.03,0.391,0.09678799999999921,0.06182199999999999,0.07378600000000013,True,0.0,0.0,0.0
392,9.61,-0.04,2.0,0.0,-0.02,0.01,-22.56,11.5,13.56,0.78,0.02,-0.63,0.03,0.392,0.06738999999999962,0.029415999999999998,0.0705039999999979,True,0.0,0.0,0.0
393,9.6,-0.04,1.98,-0.0,-0.02,0.01,-22.56,11.5,13.56,0.78,0.02,-0.63,0.03,0.393,0.08491199999999965,0.030579999999999996,0.05642399999999803,True,0.0,0.0,0.0
394,9.59,-0.03,1.96,-0.0,-0.01,0.01,-22.56,11.5,13.56,0.78,0.02,-0.63,0.03,0.394,0.10171399999999964,0.04178399999999999,0.042277999999999594,True,0.0,0.0,0.0
395,9.59,-0.02,1.99,-0.0,-0.02,0.02,-22.56,11.5,13.56,0.78,0.02,-0.63,0.03,0.395,0.07154599999999989,0.049753999999999965,0.04857200000000006,True,0.0,0.0,0.0
396,9.6,-0.01,1.96,-0.0,-0.01,0.02,-23.19,10.38,13.88,0.78,0.02,-0.63,0.03,0.396,0.10238399999999914,0.062080000000000024,0.05198599999999942,True,0.0,0.0,0.0
397,9.6,-0.06,1.99,-0.0,-0.01,0.02,-23.19,10.38,13.88,0.78,0.02,-0.63,0.03,0.397,0.07653599999999927,0.009809999999999985,0.058675999999998396,True,0.0,0.0,0.0
398,9.6,-0.03,1.98,-0.0,-0.01,0.02,-23.19,10.38,13.88,0.78,0.02,-0.63,0.03,0.398,0.08419199999999938,0.04061999999999999,0.05635799999999769,True,0.0,0.0,0.0
399,9.63,-0.04,2.0,-0.0,-0.01,0.02,-23.19,10.38,13.88,0.78,0.02,-0.63,0.03,0.399,0.07161000000000017,0.029848000000000013,0.09018399999999893,True,0.0,0.0,0.0
400,9.66,-0.03,2.06,0.0,-0.01,0.02,-22.87,10.75,14.25,0.78,0.02,-0.63,0.03,0.4,0.018323999999999785,0.036395999999999984,0.1323579999999982,True,0.0,0.0,0.0
401,9.61,-0.03,2.05,0.0,-0.01,0.01,-22.87,10.75,14.25,0.78,0.02,-0.63,0.03,0.401,0.01758999999999933,0.03600600000000001,0.08103799999999772,True,0.0,0.0,0.0
402,9.59,-0.04,2.04,0.0,-0.01,0.01,-22.87,10.75,14.25,0.78,0.02,-0.63,0.03,0.402,0.02390599999999976,0.02622399999999997,0.059303999999999135,True,0.0,0.0,0.0
403,9.58,-0.1,2.03,0.01,-0.01,0.01,-22.87,10.75,14.25,0.78,0.02,-0.63,0.03,0.403,0.03593199999999985,-0.03354200000000003,0.04773999999999923,True,0.0,0.0,0.0
404,9.58,-0.11,2.07,0.01,-0.01,0.01,-22.87,10.75,14.25,0.78,0.02,-0.63,0.03,0.404,-0.0026120000000000587,-0.046342000000000036,0.05628600000000006,True,0.0,0.0,0.0
405,9.65,-0.13,2.1,-0.0,-0.01,0.01,-22.19,10.38,12.0,0.78,0.02,-0.63,0.03,0.405,-0.015850000000000364,-0.06698000000000004,0.13165799999999805,True,0.0,0.0,0.0
406,9.65,-0.11,2.03,-0.01,-0.02,0.01,-22.19,10.38,12.0,0.78,0.02,-0.63,0.03,0.406,0.051421999999999635,-0.04207000000000001,0.11668599999999962,True,0.0,0.0,0.0
407,9.62,-0.05,2.03,-0.02,-0.02,0.01,-22.19,10.38,12.0,0.78,0.02,-0.63,0.03,0.407,0.040771999999999586,0.017521999999999982,0.08676999999999957,True,0.0,0.0,0.0
408,9.62,-0.03,2.02,-0.02,-0.02,0.01,-22.19,10.38,12.0,0.78,0.02,-0.63,0.03,0.408,0.0491479999999993,0.03829199999999999,0.0845179999999992,True,0.0,0.0,0.0
409,9.58,-0.08,1.96,-0.02,-0.02,0.01,-22.19,10.38,12.0,0.78,0.02,-0.63,0.03,0.409,0.10320399999999963,-0.008632,0.03276799999999902,True,0.0,0.0,0.0
410,9.6,-0.07,1.92,-0.01,-0.02,0.01,-22.87,10.38,14.38,0.78,0.02,-0.63,0.03,0.41,0.14596799999999965,0.004599999999999965,0.04390199999999922,True,0.0,0.0,0.0
411,9.65,-0.05,1.89,-0.02,-0.02,0.01,-22.87,10.38,14.38,0.78,0.02,-0.63,0.03,0.411,0.18452599999999975,0.027829999999999994,0.08660999999999852,True,0.0,0.0,0.0
412,9.61,-0.05,1.83,-0.02,-0.01,0.01,-22.87,10.38,14.38,0.78,0.02,-0.63,0.03,0.412,0.23498199999999936,0.031105999999999967,0.034529999999998395,True,0.0,0.0,0.0
413,9.6,-0.02,1.87,-0.02,-0.01,0.01,-22.87,10.38,14.38,0.78,0.01,-0.63,0.03,0.413,0.18719400000000008,0.208376,0.028084999999999027,True,0.0,0.0,0.0
414,9.61,-0.01,1.86,-0.02,-0.01,0.01,-22.87,10.38,14.38,0.78,0.01,-0.63,0.03,0.414,0.19852899999999973,0.21929499999999996,0.03557400000000044,True,0.0,0.0,0.0
415,9.62,-0.02,1.9,-0.01,-0.01,0.01,-21.37,11.06,14.25,0.78,0.01,-0.63,0.03,0.415,0.1619419999999998,0.20745799999999998,0.05412199999999956,True,0.0,0.0,0.0
416,9.63,-0.07,1.94,0.0,-0.01,0.01,-21.37,11.06,14.25,0.78,0.01,-0.63,0.03,0.416,0.12773100000000026,0.155449,0.07355800000000023,True,0.0,0.0,0.0
417,9.6,-0.11,1.98,0.01,-0.0,0.01,-21.37,11.06,14.25,0.78,0.01,-0.63,0.03,0.417,0.08449799999999996,0.11211499999999998,0.053435999999999595,True,0.0,0.0,0.0
418,9.61,-0.11,1.96,0.01,-0.0,0.01,-21.37,11.06,14.25,0.78,0.01,-0.63,0.03,0.418,0.1062489999999996,0.11352499999999999,0.05902399999999908,True,0.0,0.0,0.0
419,9.62,-0.15,2.02,0.0,0.0,0.01,-21.37,11.06,14.25,0.78,0.01,-0.63,0.03,0.419,0.05180000000000007,0.07049099999999993,0.08248399999999911,True,0.0,0.0,0.0
420,9.64,-0.15,2.03,-0.0,-0.0,0.01,-21.75,10.75,13.19,0.78,0.01,-0.63,0.03,0.42,0.046192000000000455,0.07064100000000001,0.10427499999999945,True,0.0,0.0,0.0
421,9.63,-0.14,2.04,-0.01,-0.0,0.01,-21.75,10.75,13.19,0.78,0.01,-0.63,0.03,0.421,0.033669000000000615,0.07980799999999999,0.09634199999999993,True,0.0,0.0,0.0
422,9.62,-0.14,2.02,-0.01,-0.0,0.0,-21.75,10.75,13.19,0.78,0.01,-0.63,0.03,0.422,0.051206000000000085,0.08053399999999993,0.08226199999999828,True,0.0,0.0,0.0
423,9.58,-0.11,2.07,-0.01,0.0,0.0,-21.75,10.75,13.19,0.78,0.01,-0.63,0.03,0.423,-0.008113999999999955,0.10662500000000003,0.05287500000000023,True,0.0,0.0,0.0
424,9.6,-0.08,2.02,-0.02,-0.01,0.0,-21.75,10.75,13.19,0.78,0.01,-0.63,0.03,0.424,0.04342800000000002,0.14010799999999995,0.06126199999999926,True,0.0,0.0,0.0
425,9.61,-0.07,2.05,-0.02,-0.01,-0.0,-21.75,11.5,13.88,0.78,0.01,-0.63,0.03,0.425,0.015474999999999905,0.148891,0.07724299999999928,True,0.0,0.0,0.0
426,9.62,-0.05,2.02,-0.02,-0.01,-0.0,-21.75,11.5,13.88,0.78,0.01,-0.63,0.03,0.426,0.04585999999999979,0.17092099999999993,0.08026399999999967,True,0.0,0.0,0.0
427,9.61,-0.1,1.96,-0.02,-0.01,-0.0,-21.75,11.5,13.88,0.78,0.01,-0.63,0.03,0.427,0.10565499999999961,0.12356799999999998,0.058801999999998245,True,0.0,0.0,0.0
428,9.64,-0.07,1.96,-0.02,-0.01,0.0,-21.75,11.5,13.88,0.78,0.01,-0.63,0.03,0.428,0.1101939999999999,0.15472300000000003,0.0876380000000001,True,0.0,0.0,0.0
429,9.63,-0.08,1.98,-0.02,-0.01,-0.0,-21.75,11.5,13.88,0.78,0.01,-0.63,0.03,0.429,0.08903700000000025,0.14327,0.08227199999999968,True,0.0,0.0,0.0
430,9.63,-0.07,1.94,-0.02,-0.01,-0.0,-22.56,11.06,14.25,0.78,0.01,-0.63,0.03,0.43,0.12773100000000026,0.155449,0.07355800000000023,True,0.0,0.0,0.0
431,9.61,-0.07,1.97,-0.02,-0.01,-0.0,-22.56,11.06,14.25,0.78,0.01,-0.63,0.03,0.431,0.09405099999999966,0.153163,0.060259000000000285,True,0.0,0.0,0.0
432,9.63,-0.09,1.95,-0.02,-0.0,-0.0,-22.56,11.06,14.25,0.78,0.01,-0.63,0.03,0.432,0.11909700000000023,0.13482900000000003,0.07612500000000111,True,0.0,0.0,0.0
433,9.61,-0.08,1.96,-0.01,-0.01,-0.0,-22.56,11.06,14.25,0.78,0.01,-0.63,0.03,0.433,0.10446699999999964,0.14365399999999998,0.058357999999998356,True,0.0,0.0,0.0
434,9.61,-0.11,1.97,-0.01,-0.01,-0.0,-22.56,11.06,14.25,0.78,0.01,-0.63,0.03,0.434,0.0964269999999996,0.112991,0.06114700000000006,True,0.0,0.0,0.0
435,9.6,-0.08,1.97,-0.01,-0.0,-0.0,-21.06,10.75,14.25,0.78,0.01,-0.63,0.03,0.435,0.09253800000000001,0.14277799999999996,0.050646999999999665,True,0.0,0.0,0.0
436,9.6,-0.06,1.96,-0.01,-0.01,-0.0,-21.06,10.75,14.25,0.78,0.01,-0.63,0.03,0.436,0.10117200000000004,0.16339800000000002,0.04807999999999879,True,0.0,0.0,0.0
437,9.6,-0.07,1.94,-0.01,-0.01,0.0,-21.06,10.75,14.25,0.78,0.01,-0.63,0.03,0.437,0.12141000000000002,0.15442299999999998,0.04405599999999943,True,0.0,0.0,0.0
438,9.65,-0.1,1.99,-0.0,-0.0,0.0,-21.06,10.75,14.25,0.78,0.01,-0.63,0.03,0.438,0.08461699999999994,0.12333400000000003,0.1045069999999999,True,0.0,0.0,0.0
439,9.61,-0.1,2.0,-0.0,-0.0,-0.0,-21.06,10.75,14.25,0.78,0.01,-0.63,0.03,0.439,0.06636699999999962,0.12143199999999998,0.06729399999999863,True,0.0,0.0,0.0
440,9.62,-0.09,1.99,-0.01,-0.0,-0.0,-21.75,11.06,15.06,0.78,0.01,-0.63,0.03,0.44,0.07770199999999972,0.13235099999999997,0.07478300000000004,True,0.0,0.0,0.0
441,9.59,-0.08,2.03,-0.01,-0.0,-0.0,-21.75,11.06,15.06,0.78,0.01,-0.63,0.03,0.441,0.031499000000000166,0.13923199999999997,0.053550999999998794,True,0.0,0.0,0.0
442,9.64,-0.01,1.97,-0.01,-0.0,-0.0,-21.75,11.06,15.06,0.78,0.01,-0.63,0.03,0.442,0.096808,0.214447,0.08842900000000142,True,0.0,0.0,0.0
443,9.65,-0.05,1.99,-0.01,-0.0,-0.0,-21.75,11.06,15.06,0.78,0.01,-0.63,0.03,0.443,0.08164700000000003,0.17354900000000004,0.10339700000000107,True,0.0,0.0,0.0
444,9.63,-0.04,1.97,-0.0,0.0,-0.0,-22.87,10.75,14.25,0.78,0.01,-0.63,0.03,0.444,0.09648300000000032,0.18397600000000003,0.07926100000000069,True,0.0,0.0,0.0
445,9.6,-0.08,1.94,-0.0,0.0,0.0,-22.87,10.75,14.25,0.78,0.01,-0.63,0.03,0.445,0.122004,0.14437999999999995,0.044277999999998485,True,0.0,0.0,0.0
446,9.6,-0.08,1.94,-0.0,0.0,0.0,-22.87,10.75,14.25,0.78,0.01,-0.63,0.03,0.446,0.122004,0.14437999999999995,0.044277999999998485,True,0.0,0.0,0.0
447,9.61,-0.09,1.95,-0.0,0.0,-0.0,-22.87,10.75,14.25,0.78,0.01,-0.63,0.03,0.447,0.11488299999999962,0.13414500000000001,0.05645699999999998,True,0.0,0.0,0.0
448,9.64,-0.06,1.96,-0.01,0.0,-0.0,-22.87,10.75,14.25,0.78,0.01,-0.63,0.03,0.448,0.10959999999999992,0.16476600000000005,0.08741599999999927,True,0.0,0.0,0.0
449,9.61,-0.08,1.97,-0.0,-0.0,-0.0,-22.87,10.75,14.38,0.78,0.01,-0.63,0.03,0.449,0.09464499999999965,0.14311999999999997,0.06048099999999934,True,0.0,0.0,0.0
450,9.6,-0.03,2.02,-0.0,0.0,-0.0,-22.87,10.75,14.38,0.78,0.01,-0.63,0.03,0.45,0.040458000000000105,0.19032299999999996,0.06015200000000043,True,0.0,0.0,0.0
451,9.6,-0.03,2.02,0.0,-0.0,-0.0,-22.87,10.75,14.38,0.78,0.01,-0.63,0.03,0.451,0.040458000000000105,0.19032299999999996,0.06015200000000043,True,0.0,0.0,0.0
452,9.59,-0.04,2.04,0.01,0.0,-0.0,-22.87,10.75,14.38,0.78,0.01,-0.63,0.03,0.452,0.019301000000000013,0.17887,0.054786,True,0.0,0.0,0.0
453,9.61,-0.07,2.03,0.01,-0.01,-0.0,-22.87,10.75,14.38,0.78,0.01,-0.63,0.03,0.453,0.0351189999999999,0.149959,0.07299699999999909,True,0.0,0.0,0.0
454,9.63,-0.06,2.02,0.02,-0.0,-0.0,-21.06,11.06,13.56,0.78,0.01,-0.63,0.03,0.454,0.0485610000000003,0.16121999999999997,0.09032000000000018,True,0.0,0.0,0.0
455,9.66,-0.06,1.98,0.02,-0.01,-0.0,-21.06,11.06,13.56,0.78,0.01,-0.63,0.03,0.455,0.09417000000000009,0.16438199999999997,0.11132999999999882,True,0.0,0.0,0.0
456,9.65,-0.05,1.98,0.01,-0.0,-0.0,-21.06,11.06,13.56,0.78,0.01,-0.63,0.03,0.456,0.09146900000000002,0.17408300000000004,0.10127400000000009,True,0.0,0.0,0.0
457,9.61,-0.07,1.98,0.01,-0.0,-0.0,-21.06,11.06,13.56,0.78,0.01,-0.63,0.03,0.457,0.08422899999999967,0.15262900000000001,0.06238199999999949,True,0.0,0.0,0.0
458,9.59,-0.05,2.03,0.0,-0.0,-0.0,-21.06,11.06,13.56,0.78,0.01,-0.63,0.03,0.458,0.029717000000000215,0.16936099999999998,0.05288499999999985,True,0.0,0.0,0.0
459,9.62,-0.08,2.0,-0.0,-0.0,-0.0,-22.19,11.06,14.25,0.78,0.01,-0.63,0.03,0.459,0.06728599999999973,0.14185999999999993,0.07668399999999842,True,0.0,0.0,0.0
460,9.61,-0.01,1.98,-0.0,-0.0,-0.0,-22.19,11.06,14.25,0.78,0.01,-0.63,0.03,0.46,0.08066499999999976,0.212887,0.06104999999999983,True,0.0,0.0,0.0
461,9.6,0.0,1.95,-0.01,-0.01,-0.0,-22.19,11.06,14.25,0.78,0.01,-0.63,0.03,0.461,0.10743000000000014,0.22419,0.044624999999999915,True,0.0,0.0,0.0
462,9.59,-0.01,1.93,-0.01,-0.01,0.0,-22.19,11.06,14.25,0.78,0.01,-0.63,0.03,0.462,0.12556100000000003,0.21487299999999998,0.030767000000000877,True,0.0,0.0,0.0
463,9.62,-0.07,1.9,-0.01,-0.01,0.0,-22.19,11.06,14.25,0.78,0.01,-0.63,0.03,0.463,0.16491199999999973,0.15724299999999997,0.05523200000000017,True,0.0,0.0,0.0
464,9.62,-0.13,1.85,-0.02,-0.0,0.0,-21.37,10.75,12.69,0.78,0.01,-0.63,0.03,0.464,0.2175859999999996,0.09965499999999991,0.04594899999999846,True,0.0,0.0,0.0
465,9.6,-0.14,1.93,-0.02,-0.0,0.0,-21.37,10.75,12.69,0.78,0.01,-0.63,0.03,0.465,0.13539000000000034,0.08465599999999997,0.04348699999999894,True,0.0,0.0,0.0
466,9.61,-0.12,1.91,-0.03,0.0,0.0,-21.37,10.75,12.69,0.78,0.01,-0.63,0.03,0.466,0.15595299999999956,0.106152,0.048630999999998537,True,0.0,0.0,0.0
467,9.65,0.01,2.02,-0.03,0.0,0.0,-21.37,10.75,12.69,0.78,0.01,-0.63,0.03,0.467,0.04861700000000013,0.23220500000000005,0.10843399999999903,True,0.0,0.0,0.0
468,9.65,0.03,2.07,-0.03,0.0,0.0,-21.37,10.75,12.69,0.78,0.01,-0.63,0.03,0.468,-0.0016809999999995995,0.24962100000000007,0.11860499999999874,True,0.0,0.0,0.0
469,9.64,0.04,2.13,0.0,-0.0,0.01,-22.56,10.0,14.38,0.78,0.01,-0.63,0.03,0.469,-0.06331399999999965,0.256118,0.12128700000000059,True,0.0,0.0,0.0
470,9.6,0.0,2.15,0.0,-0.0,0.01,-22.56,10.0,14.38,0.78,0.01,-0.63,0.03,0.47,-0.08900999999999959,0.21351,0.08708500000000008,True,0.0,0.0,0.0
471,9.59,-0.08,2.15,0.02,-0.0,0.0,-22.56,10.0,14.38,0.78,0.01,-0.63,0.03,0.471,-0.0863649999999998,0.13282399999999997,0.07902699999999996,True,0.0,0.0,0.0
472,9.61,-0.12,2.14,0.02,-0.01,0.0,-22.56,10.0,14.38,0.78,0.01,-0.63,0.03,0.472,-0.06995300000000038,0.09386999999999998,0.0974599999999981,True,0.0,0.0,0.0
473,9.63,-0.14,2.1,0.01,-0.01,-0.0,-22.56,10.0,14.38,0.78,0.01,-0.63,0.03,0.473,-0.02526299999999937,0.07660399999999998,0.10908000000000051,True,0.0,0.0,0.0
474,9.64,-0.09,2.02,-0.01,-0.01,-0.0,-21.75,11.06,13.19,0.78,0.01,-0.63,0.03,0.474,0.052449999999999886,0.13143300000000002,0.10082000000000058,True,0.0,0.0,0.0
475,9.63,-0.06,1.94,-0.02,-0.01,0.0,-21.75,11.06,13.19,0.78,0.01,-0.63,0.03,0.475,0.12713700000000028,0.16549199999999997,0.0733359999999994,True,0.0,0.0,0.0
476,9.61,-0.06,1.9,-0.02,-0.02,-0.0,-21.75,11.06,13.19,0.78,0.01,-0.63,0.03,0.476,0.16221099999999966,0.16694399999999998,0.04517599999999966,True,0.0,0.0,0.0
477,9.59,-0.07,1.86,-0.01,-0.02,0.0,-21.75,11.06,13.19,0.78,0.01,-0.63,0.03,0.477,0.19787899999999992,0.15835299999999997,0.017238000000000753,True,0.0,0.0,0.0
478,9.59,-0.07,1.83,-0.02,-0.01,-0.0,-21.75,11.06,13.19,0.78,0.01,-0.63,0.03,0.478,0.2273449999999999,0.15995499999999999,0.01086900000000135,True,0.0,0.0,0.0
479,9.62,-0.07,1.83,-0.01,-0.01,0.0,-22.19,10.75,13.88,0.78,0.01,-0.63,0.03,0.479,0.2336659999999997,0.16098099999999996,0.04037100000000038,True,0.0,0.0,0.0
480,9.61,-0.07,1.85,-0.02,-0.01,0.0,-22.19,10.75,13.88,0.78,0.01,-0.63,0.03,0.48,0.21191499999999963,0.159571,0.03478299999999912,True,0.0,0.0,0.0
481,9.61,-0.03,1.84,-0.02,-0.0,0.0,-22.19,10.75,13.88,0.78,0.01,-0.63,0.03,0.481,0.2193609999999997,0.20027699999999998,0.03177200000000013,True,0.0,0.0,0.0
482,9.65,-0.03,1.9,-0.02,-0.01,0.0,-22.19,10.75,13.88,0.78,0.01,-0.63,0.03,0.482,0.16885700000000003,0.19844100000000003,0.0838460000000012,True,0.0,0.0,0.0
483,9.63,-0.05,1.94,-0.01,-0.0,0.0,-22.19,10.75,13.88,0.78,0.01,-0.63,0.03,0.483,0.1265430000000003,0.175535,0.07311400000000035,True,0.0,0.0,0.0
484,9.61,-0.04,1.99,0.0,0.0,0.0,-22.87,11.06,14.38,0.78,0.01,-0.63,0.03,0.484,0.07262499999999972,0.18222400000000002,0.06383899999999976,True,0.0,0.0,0.0
485,9.62,-0.05,2.02,0.01,0.0,0.0,-22.87,11.06,14.38,0.78,0.01,-0.63,0.03,0.485,0.04585999999999979,0.17092099999999993,0.08026399999999967,True,0.0,0.0,0.0
486,9.62,-0.07,2.02,0.02,-0.0,0.01,-22.87,11.06,14.38,0.78,0.01,-0.63,0.03,0.486,0.04704799999999976,0.15083499999999994,0.08070799999999956,True,0.0,0.0,0.0
487,9.64,-0.11,2.05,0.03,-0.0,0.01,-22.87,11.06,14.38,0.78,0.01,-0.63,0.03,0.487,0.024172000000000082,0.10974500000000002,0.10763299999999987,True,0.0,0.0,0.0
488,9.62,-0.1,1.99,0.01,-0.0,0.0,-22.56,11.06,13.19,0.78,0.01,-0.63,0.03,0.488,0.0782959999999997,0.12230799999999994,0.0750049999999991,True,0.0,0.0,0.0
489,9.63,-0.06,1.96,-0.0,-0.0,0.0,-22.56,11.06,13.19,0.78,0.01,-0.63,0.03,0.489,0.10749300000000028,0.164424,0.0775819999999996,True,0.0,0.0,0.0
490,9.62,-0.02,1.94,-0.01,-0.0,0.0,-22.56,11.06,13.19,0.78,0.01,-0.63,0.03,0.49,0.12265399999999982,0.20532199999999995,0.06261399999999817,True,0.0,0.0,0.0
491,9.59,-0.05,1.94,-0.01,0.0,0.0,-22.56,11.06,13.19,0.78,0.01,-0.63,0.03,0.491,0.11811499999999997,0.17416699999999996,0.033777999999999864,True,0.0,0.0,0.0
492,9.59,-0.05,1.94,-0.0,-0.0,0.0,-22.56,11.06,13.19,0.78,0.01,-0.63,0.03,0.492,0.11811499999999997,0.17416699999999996,0.033777999999999864,True,0.0,0.0,0.0
493,9.65,-0.11,1.96,-0.0,-0.0,0.0,-22.19,10.75,14.0,0.78,0.01,-0.63,0.03,0.493,0.11467699999999992,0.11489300000000002,0.09835999999999956,True,0.0,0.0,0.0
494,9.64,-0.12,1.94,-0.02,-0.0,0.0,-22.19,10.75,14.0,0.78,0.01,-0.63,0.03,0.494,0.13280799999999982,0.10557600000000002,0.08450199999999874,True,0.0,0.0,0.0
495,9.64,-0.12,1.94,-0.02,0.0,0.0,-22.19,10.75,14.0,0.78,0.01,-0.63,0.03,0.495,0.13280799999999982,0.10557600000000002,0.08450199999999874,True,0.0,0.0,0.0
496,9.6,0.0,1.98,-0.02,0.0,0.0,-22.19,10.75,14.0,0.78,0.01,-0.63,0.03,0.496,0.07796400000000014,0.222588,0.05099399999999932,True,0.0,0.0,0.0
497,9.61,0.0,1.99,-0.01,-0.0,0.0,-22.19,10.75,14.0,0.78,0.01,-0.63,0.03,0.497,0.07024899999999978,0.222396,0.06295099999999998,True,0.0,0.0,0.0
498,9.59,-0.05,1.96,0.0,-0.0,0.0,-21.37,10.38,14.38,0.78,0.01,-0.63,0.03,0.498,0.09847099999999998,0.17309899999999998,0.03802400000000006,True,0.0,0.0,0.0
499,9.62,-0.12,1.95,0.01,0.0,0.0,-21.37,10.38,14.38,0.78,0.01,-0.63,0.03,0.499,0.11877199999999966,0.10435799999999995,0.0669569999999986,True,0.0,0.0,0.0
500,9.64,-0.12,1.92,0.0,0.0,0.0,-21.37,10.38,14.38,0.78,0.01,-0.63,0.03,0.5,0.1524519999999998,0.10664400000000002,0.08025600000000033,True,0.0,0.0,0.0
501,9.63,-0.1,1.93,-0.0,0.0,0.0,-21.37,10.38,14.38,0.78,0.01,-0.63,0.03,0.501,0.1393350000000002,0.12585400000000002,0.07210099999999997,True,0.0,0.0,0.0
502,9.61,-0.06,1.94,-0.01,0.0,0.0,-22.56,10.0,12.75,0.78,0.01,-0.63,0.03,0.502,0.12292299999999967,0.16480799999999995,0.05366799999999827,True,0.0,0.0,0.0
503,9.59,-0.09,1.93,-0.0,0.0,0.0,-22.56,10.0,12.75,0.78,0.01,-0.63,0.03,0.503,0.1303129999999999,0.134529,0.03254300000000043,True,0.0,0.0,0.0
504,9.59,-0.09,1.93,-0.0,0.0,0.01,-22.56,10.0,12.75,0.78,0.01,-0.63,0.03,0.504,0.1303129999999999,0.134529,0.03254300000000043,True,0.0,0.0,0.0
505,9.68,-0.12,1.96,-0.0,0.01,0.0,-22.56,10.0,12.75,0.78,0.01,-0.63,0.03,0.505,0.1215919999999997,0.105876,0.12808399999999942,True,0.0,0.0,0.0
506,9.64,-0.09,1.98,-0.01,0.01,0.0,-22.56,10.0,12.75,0.78,0.01,-0.63,0.03,0.506,0.09173799999999988,0.13356900000000005,0.09232800000000019,True,0.0,0.0,0.0
507,9.61,-0.09,2.02,-0.01,0.0,0.0,-21.75,10.75,13.88,0.78,0.01,-0.63,0.03,0.507,0.04612899999999964,0.130407,0.07131799999999977,True,0.0,0.0,0.0
508,9.61,-0.07,2.05,-0.01,0.01,0.0,-21.75,10.75,13.88,0.78,0.01,-0.63,0.03,0.508,0.015474999999999905,0.148891,0.07724299999999928,True,0.0,0.0,0.0
509,9.61,-0.1,1.99,0.0,0.01,0.0,-21.75,10.75,13.88,0.78,0.01,-0.63,0.03,0.509,0.07618899999999962,0.12196599999999999,0.06517099999999942,True,0.0,0.0,0.0
510,9.64,-0.13,2.0,0.01,0.0,0.0,-21.75,10.75,13.88,0.78,0.01,-0.63,0.03,0.51,0.07446999999999981,0.092329,0.09746200000000016,True,0.0,0.0,0.0
511,9.63,-0.11,1.95,-0.0,0.0,0.0,-21.75,10.75,13.88,0.78,0.01,-0.63,0.03,0.511,0.1202850000000002,0.11474300000000001,0.076569000000001,True,0.0,0.0,0.0
512,9.61,-0.12,1.97,-0.01,0.0,-0.0,-21.06,11.06,13.88,0.78,0.01,-0.63,0.03,0.512,0.09702099999999958,0.102948,0.06136899999999912,True,0.0,0.0,0.0
513,9.65,-0.05,1.95,-0.02,0.0,-0.0,-21.06,11.06,13.88,0.78,0.01,-0.63,0.03,0.513,0.12093500000000001,0.17568500000000004,0.09490500000000068,True,0.0,0.0,0.0
514,9.6,-0.04,1.88,-0.02,0.01,-0.0,-21.06,11.06,13.88,0.78,0.01,-0.63,0.03,0.514,0.17856000000000027,0.18775600000000003,0.0306519999999999,True,0.0,0.0,0.0
515,9.58,-0.04,1.93,-0.01,0.01,0.0,-21.06,11.06,13.88,0.78,0.01,-0.63,0.03,0.515,0.1252359999999999,0.18440200000000007,0.021599000000000146,True,0.0,0.0,0.0
516,9.66,-0.03,1.98,-0.0,0.01,0.0,-21.06,11.06,13.88,0.78,0.01,-0.63,0.03,0.516,0.09238800000000014,0.194511,0.11066399999999987,True,0.0,0.0,0.0
517,9.64,-0.08,1.96,0.01,0.01,0.0,-22.56,10.75,13.56,0.78,0.01,-0.63,0.03,0.517,0.11078799999999989,0.14468,0.08785999999999916,True,0.0,0.0,0.0
518,9.63,-0.14,1.95,0.01,0.01,0.0,-22.56,10.75,13.56,0.78,0.01,-0.63,0.03,0.518,0.12206700000000059,0.084614,0.07723499999999994,True,0.0,0.0,0.0
519,9.59,-0.15,1.96,0.0,0.01,0.0,-22.56,10.75,13.56,0.78,0.01,-0.63,0.03,0.519,0.10441100000000025,0.07266899999999996,0.0402439999999995,True,0.0,0.0,0.0
520,9.6,-0.13,1.98,-0.01,0.01,-0.0,-22.56,10.75,13.56,0.78,0.01,-0.63,0.03,0.52,0.08568599999999993,0.09202899999999996,0.053879999999999484,True,0.0,0.0,0.0
521,9.61,-0.11,1.97,-0.02,0.01,-0.0,-22.56,10.75,13.56,0.78,0.01,-0.63,0.03,0.521,0.0964269999999996,0.112991,0.06114700000000006,True,0.0,0.0,0.0
522,9.64,-0.07,2.02,-0.02,0.01,-0.0,-23.25,11.5,12.75,0.78,0.01,-0.63,0.03,0.522,0.05126199999999992,0.15151900000000001,0.10037600000000069,True,0.0,0.0,0.0
523,9.61,-0.03,2.03,-0.02,0.01,-0.0,-23.25,11.5,12.75,0.78,0.01,-0.63,0.03,0.523,0.03274299999999997,0.190131,0.07210899999999931,True,0.0,0.0,0.0
524,9.56,-0.03,1.99,-0.01,0.01,0.0,-23.25,11.5,12.75,0.78,0.01,-0.63,0.03,0.524,0.06149600000000022,0.190557,0.014447000000002319,True,0.0,0.0,0.0
525,9.62,-0.02,2.01,-0.0,0.01,0.0,-23.25,11.5,12.75,0.78,0.01,-0.63,0.03,0.525,0.05390000000000006,0.20158399999999999,0.07747499999999974,True,0.0,0.0,0.0
526,9.65,-0.02,2.03,0.0,0.0,-0.0,-23.25,11.5,12.75,0.78,0.01,-0.63,0.03,0.526,0.04057700000000031,0.20154200000000005,0.11122299999999896,True,0.0,0.0,0.0
527,9.63,-0.06,2.05,0.0,0.01,0.0,-21.75,10.38,13.88,0.78,0.01,-0.63,0.03,0.527,0.019095000000000528,0.15961799999999998,0.09668899999999958,True,0.0,0.0,0.0
528,9.6,-0.06,2.04,0.0,0.01,0.0,-21.75,10.38,13.88,0.78,0.01,-0.63,0.03,0.528,0.02259600000000006,0.15912600000000002,0.06506399999999957,True,0.0,0.0,0.0
529,9.62,-0.07,2.04,0.0,0.0,-0.0,-21.75,10.38,13.88,0.78,0.01,-0.63,0.03,0.529,0.027403999999999762,0.14976699999999996,0.08495399999999975,True,0.0,0.0,0.0
530,9.62,-0.07,2.07,0.01,0.0,0.0,-21.75,10.38,13.88,0.78,0.01,-0.63,0.03,0.53,-0.0020620000000000083,0.14816499999999996,0.09132299999999915,True,0.0,0.0,0.0
531,9.62,-0.12,2.02,0.02,0.0,0.0,-21.75,10.38,13.88,0.78,0.01,-0.63,0.03,0.531,0.050017999999999674,0.10061999999999995,0.08181799999999839,True,0.0,0.0,0.0
532,9.63,-0.15,2.01,0.01,-0.0,0.0,-21.37,10.38,13.19,0.78,0.01,-0.63,0.03,0.532,0.06372900000000081,0.071367,0.09019500000000136,True,0.0,0.0,0.0
533,9.65,-0.1,1.98,0.01,-0.0,0.0,-21.37,10.38,13.19,0.78,0.01,-0.63,0.03,0.533,0.09443899999999994,0.12386800000000002,0.10238399999999892,True,0.0,0.0,0.0
534,9.64,-0.08,1.96,0.0,-0.0,-0.0,-21.37,10.38,13.19,0.78,0.01,-0.63,0.03,0.534,0.11078799999999989,0.14468,0.08785999999999916,True,0.0,0.0,0.0
535,9.59,-0.04,1.94,0.0,-0.0,-0.0,-21.37,10.38,13.19,0.78,0.01,-0.63,0.03,0.535,0.11752099999999999,0.18420999999999998,0.03355599999999903,True,0.0,0.0,0.0
536,9.62,-0.06,1.97,0.01,0.0,-0.0,-21.37,10.38,13.19,0.78,0.01,-0.63,0.03,0.536,0.09556399999999976,0.16354799999999992,0.06987099999999913,True,0.0,0.0,0.0
537,9.63,-0.04,1.96,0.01,-0.0,-0.0,-22.87,10.38,14.69,0.78,0.01,-0.63,0.03,0.537,0.10630500000000032,0.18451000000000004,0.0771379999999997,True,0.0,0.0,0.0
538,9.64,-0.04,1.97,0.01,-0.0,-0.0,-22.87,10.38,14.69,0.78,0.01,-0.63,0.03,0.538,0.09858999999999996,0.18431800000000004,0.08909500000000037,True,0.0,0.0,0.0
539,9.62,-0.06,1.93,0.01,0.01,0.0,-22.87,10.38,14.69,0.78,0.01,-0.63,0.03,0.539,0.13485199999999975,0.16568399999999994,0.06137899999999874,True,0.0,0.0,0.0
540,9.62,-0.08,1.95,0.01,0.0,0.0,-22.87,10.38,14.69,0.78,0.01,-0.63,0.03,0.54,0.11639599999999972,0.14452999999999994,0.06606899999999882,True,0.0,0.0,0.0
541,9.6,-0.08,1.93,0.01,0.01,0.0,-22.87,10.38,14.69,0.78,0.01,-0.63,0.03,0.541,0.131826,0.144914,0.042154999999999276,True,0.0,0.0,0.0
542,9.6,-0.09,1.97,-0.0,0.01,0.0,-22.56,10.75,14.38,0.78,0.01,-0.63,0.03,0.542,0.09313199999999999,0.132735,0.0508690000000005,True,0.0,0.0,0.0
543,9.59,-0.09,1.96,-0.0,0.01,0.0,-22.56,10.75,14.38,0.78,0.01,-0.63,0.03,0.543,0.10084699999999991,0.132927,0.038911999999999836,True,0.0,0.0,0.0
544,9.65,-0.07,1.94,-0.0,0.01,0.0,-22.56,10.75,14.38,0.78,0.01,-0.63,0.03,0.544,0.13194499999999998,0.15613300000000002,0.09322599999999959,True,0.0,0.0,0.0
545,9.58,-0.08,1.97,0.0,0.01,-0.0,-22.19,11.06,13.56,0.78,0.01,-0.63,0.03,0.545,0.08832399999999985,0.142094,0.030979000000000312,True,0.0,0.0,0.0
546,9.57,-0.06,1.97,0.0,0.01,-0.0,-22.19,11.06,13.56,0.78,0.01,-0.63,0.03,0.546,0.0850289999999998,0.16183800000000004,0.020701000000000747,True,0.0,0.0,0.0
547,9.6,-0.05,1.97,0.0,0.01,0.0,-22.19,11.06,13.56,0.78,0.01,-0.63,0.03,0.547,0.09075600000000006,0.17290699999999998,0.04998100000000072,True,0.0,0.0,0.0
548,9.63,-0.08,1.95,-0.0,0.01,0.0,-22.19,11.06,13.56,0.78,0.01,-0.63,0.03,0.548,0.11850300000000025,0.144872,0.07590300000000028,True,0.0,0.0,0.0
549,9.64,-0.09,1.98,-0.0,0.01,-0.0,-22.19,11.06,13.56,0.78,0.01,-0.63,0.03,0.549,0.09173799999999988,0.13356900000000005,0.09232800000000019,True,0.0,0.0,0.0
550,9.59,-0.1,1.97,-0.01,0.01,0.0,-22.19,11.06,13.56,0.78,0.01,-0.63,0.03,0.55,0.0916189999999999,0.12234999999999997,0.04125699999999988,True,0.0,0.0,0.0
551,9.58,-0.1,1.96,-0.02,0.02,0.0,-20.69,11.5,13.19,0.78,0.01,-0.63,0.03,0.551,0.09933399999999981,0.12254200000000001,0.029299999999999216,True,0.0,0.0,0.0
552,9.61,-0.12,1.91,-0.01,0.02,0.0,-20.69,11.5,13.19,0.78,0.01,-0.63,0.03,0.552,0.15595299999999956,0.106152,0.048630999999998537,True,0.0,0.0,0.0
553,9.61,-0.12,1.91,-0.01,0.02,0.0,-20.69,11.5,13.19,0.78,0.01,-0.63,0.03,0.553,0.15595299999999956,0.106152,0.048630999999998537,True,0.0,0.0,0.0
554,9.7,-0.18,1.93,-0.02,0.02,-0.0,-20.69,11.5,13.19,0.78,0.01,-0.63,0.02,0.554,0.16049199999999963,-0.07918800000000004,0.13754199999999805,True,0.0,0.0,0.0
555,9.64,-0.32,1.96,-0.02,0.02,-0.01,-20.69,11.5,13.19,0.78,0.01,-0.63,0.02,0.555,0.1244799999999997,-0.2222,0.08624799999999766,True,0.0,0.0,0.0
556,9.65,-0.33,1.95,-0.04,0.02,-0.01,-21.37,10.75,13.19,0.78,0.01,-0.63,0.02,0.556,0.13685400000000003,-0.23165400000000003,0.09405800000000042,True,0.0,0.0,0.0
557,9.61,-0.27,1.89,-0.07,0.03,-0.02,-21.37,10.75,13.19,0.78,0.01,-0.63,0.02,0.557,0.18472200000000005,-0.16966200000000004,0.04144599999999876,True,0.0,0.0,0.0
558,9.59,-0.2,1.82,-0.1,0.03,-0.01,-21.37,10.75,13.19,0.78,0.01,-0.63,0.02,0.558,0.24619999999999997,-0.09684200000000003,0.006283999999999068,True,0.0,0.0,0.0
559,9.48,-0.22,1.79,-0.1,0.03,-0.01,-21.37,10.75,13.19,0.78,0.01,-0.63,0.02,0.559,0.2533159999999999,-0.11776,-0.1080299999999994,True,0.0,0.0,0.0
560,9.48,-0.22,1.79,-0.12,0.03,-0.01,-21.37,10.75,13.19,0.78,0.01,-0.63,0.02,0.56,0.2533159999999999,-0.11776,-0.1080299999999994,True,0.0,0.0,0.0
561,9.65,-0.15,1.77,-0.16,0.04,-0.01,-21.37,9.88,14.0,0.78,0.01,-0.63,0.02,0.561,0.3058019999999997,-0.043445999999999985,0.05420600000000064,True,0.0,0.0,0.0
562,9.65,-0.15,1.77,-0.19,0.04,-0.01,-21.37,9.88,14.0,0.78,0.01,-0.63,0.02,0.562,0.3058019999999997,-0.043445999999999985,0.05420600000000064,True,0.0,0.0,0.0
563,9.78,-0.04,1.71,-0.2,0.05,-0.01,-21.37,9.88,14.0,0.78,0.01,-0.63,0.02,0.563,0.38738399999999995,0.07194800000000001,0.1682579999999998,True,0.0,0.0,0.0
564,9.45,-0.16,1.55,-0.22,0.06,-0.01,-21.37,9.88,14.0,0.78,0.01,-0.63,0.02,0.564,0.48012799999999967,-0.04823800000000002,-0.1889340000000015,True,0.0,0.0,0.0
565,9.39,-0.11,1.5,-0.23,0.07,-0.01,-21.37,9.88,14.0,0.78,0.01,-0.63,0.02,0.565,0.514386,0.002926000000000012,-0.2589959999999998,True,0.0,0.0,0.0
566,9.48,-0.01,1.42,-0.26,0.08,-0.01,-21.37,11.0,14.38,0.78,0.01,-0.63,0.02,0.566,0.6076059999999999,0.10834400000000004,-0.18841200000000136,True,0.0,0.0,0.0
567,9.6,-0.05,1.41,-0.27,0.09,-0.0,-21.37,11.0,14.38,0.78,0.0,-0.63,0.02,0.567,0.6423719999999999,0.213743,-0.07508100000000084,True,0.0,0.0,0.0
568,9.6,-0.1,1.35,-0.26,0.1,0.01,-21.37,11.0,14.38,0.78,0.0,-0.63,0.02,0.568,0.7028999999999999,0.16501,-0.08653499999999958,True,0.0,0.0,0.0
569,9.6,-0.1,1.35,-0.27,0.12,0.01,-21.37,11.0,14.38,0.78,0.0,-0.63,0.02,0.569,0.7028999999999999,0.16501,-0.08653499999999958,True,0.0,0.0,0.0
570,9.52,-0.16,1.38,-0.29,0.14,0.02,-21.37,11.0,14.38,0.78,0.0,-0.63,0.02,0.57,0.6584000000000003,0.101464,-0.1572899999999997,True,0.0,0.0,0.0
571,9.52,-0.16,1.38,-0.31,0.15,0.03,-21.75,10.38,13.5,0.78,0.0,-0.63,0.02,0.571,0.6584000000000003,0.101464,-0.1572899999999997,True,0.0,0.0,0.0
572,9.68,0.01,1.9,-0.32,0.16,0.03,-21.75,10.38,13.5,0.78,-0.0,-0.63,0.01,0.572,0.17887600000000026,0.13712000000000002,0.10541799999999846,True,0.0,0.0,0.0
573,9.7,0.0,2.05,-0.32,0.16,0.04,-21.75,10.38,13.5,0.78,-0.0,-0.63,0.01,0.573,0.035840000000000316,0.12549000000000002,0.15693999999999875,True,0.0,0.0,0.0
574,9.54,-0.19,2.36,-0.32,0.16,0.04,-21.75,10.38,13.5,0.78,-0.0,-0.63,0.01,0.574,-0.29968799999999973,-0.07190000000000003,0.06768199999999958,True,0.0,0.0,0.0
575,9.43,-0.28,2.53,-0.32,0.16,0.05,-21.75,10.38,13.5,0.78,-0.0,-0.63,0.01,0.575,-0.48861399999999966,-0.166226,-0.0033200000000004337,True,0.0,0.0,0.0
576,9.47,-0.27,2.64,-0.35,0.16,0.05,-21.75,11.0,14.25,0.78,-0.01,-0.62,0.01,0.576,-0.43179199999999973,0.005605999999999937,-0.053589999999999804,True,0.0,0.0,0.0
577,9.52,-0.22,2.69,-0.38,0.15,0.04,-21.75,11.0,14.25,0.78,-0.01,-0.62,0.01,0.577,-0.46912200000000004,0.056795999999999985,0.004559999999999675,True,0.0,0.0,0.0
578,9.58,-0.24,2.79,-0.43,0.15,0.03,-21.75,11.0,14.25,0.78,-0.01,-0.62,0.01,0.578,-0.5523579999999999,0.03894400000000002,0.08553999999999995,True,0.0,0.0,0.0
579,9.48,-0.35,2.83,-0.48,0.14,0.03,-21.75,11.0,14.25,0.78,-0.01,-0.62,0.01,0.579,-0.613102,-0.07291400000000003,0.000880000000000436,True,0.0,0.0,0.0
580,9.39,-0.31,2.89,-0.55,0.13,0.02,-21.75,11.0,14.25,0.78,-0.01,-0.62,0.01,0.58,-0.6914339999999997,-0.035537999999999986,-0.07382999999999917,True,0.0,0.0,0.0
581,9.36,-0.18,2.98,-0.63,0.12,0.01,-22.56,10.69,13.38,0.78,-0.02,-0.62,0.0,0.581,-0.7863360000000008,0.14647199999999996,-0.08506400000000092,True,0.0,0.0,0.0
582,9.41,0.06,2.95,-0.69,0.1,0.02,-22.56,10.69,13.38,0.78,-0.02,-0.62,0.0,0.582,-0.7401480000000005,0.384952,-0.05090000000000039,True,0.0,0.0,0.0
583,9.41,0.06,2.95,-0.69,0.1,0.02,-22.56,10.69,13.38,0.78,-0.02,-0.62,0.0,0.583,-0.7401480000000005,0.384952,-0.05090000000000039,True,0.0,0.0,0.0
584,9.48,0.2,2.95,-0.69,0.09,0.02,-22.56,10.69,13.38,0.78,-0.02,-0.62,-0.0,0.584,-0.7209680000000005,0.5256240000000001,0.012436000000001002,True,0.0,0.0,0.0
585,9.55,0.44,3.05,-0.67,0.08,0.03,-22.56,10.69,13.38,0.78,-0.03,-0.62,-0.0,0.585,-0.7857969999999992,0.9344359999999999,0.08662300000000123,True,0.0,0.0,0.0
586,9.56,0.97,3.03,-0.61,0.07,0.04,-22.69,11.19,14.06,0.78,-0.03,-0.62,-0.01,0.586,-0.7284939999999991,1.347918,0.08509600000000184,True,0.0,0.0,0.0
587,9.44,0.8,2.96,-0.5,0.06,0.05,-22.69,11.19,14.06,0.78,-0.03,-0.62,-0.01,0.587,-0.6967839999999996,1.172576,-0.040816000000001296,True,0.0,0.0,0.0
588,9.4,0.08,2.82,-0.32,0.04,0.07,-22.69,11.19,14.06,0.78,-0.04,-0.62,-0.01,0.588,-0.6003319999999994,0.609824,-0.08734999999999893,True,0.0,0.0,0.0
589,9.51,0.23,2.86,-0.32,0.03,0.09,-22.69,11.19,14.06,0.78,-0.04,-0.62,-0.01,0.589,-0.6044029999999991,0.765221,0.020530000000000825,True,0.0,0.0,0.0
590,9.53,0.42,2.81,-0.34,0.03,0.1,-22.25,11.25,13.69,0.78,-0.04,-0.62,-0.01,0.59,-0.5391849999999994,0.9504699999999999,0.019264999999998977,True,0.0,0.0,0.0
591,9.46,0.45,2.78,-0.31,0.02,0.11,-22.25,11.25,13.69,0.78,-0.04,-0.62,-0.01,0.591,-0.5240219999999991,0.9755790000000001,-0.056669999999998666,True,0.0,0.0,0.0
592,9.46,0.45,2.78,-0.24,0.01,0.12,-22.25,11.25,13.69,0.78,-0.04,-0.62,-0.01,0.592,-0.5240219999999991,0.9755790000000001,-0.056669999999998666,True,0.0,0.0,0.0
593,9.25,0.11,2.5,-0.18,0.0,0.13,-22.25,11.25,13.69,0.78,-0.04,-0.62,-0.01,0.593,-0.3229529999999987,0.6105209999999999,-0.30524999999999913,True,0.0,0.0,0.0
594,9.25,-0.11,2.44,-0.16,-0.0,0.13,-22.25,11.25,13.69,0.78,-0.04,-0.62,-0.01,0.594,-0.27931299999999926,0.387991,-0.30760000000000076,True,0.0,0.0,0.0
595,9.36,-0.39,2.33,-0.19,-0.01,0.13,-22.75,9.69,12.56,0.78,-0.04,-0.62,-0.01,0.595,-0.16645999999999894,0.10599499999999987,-0.2115949999999991,True,0.0,0.0,0.0
596,9.39,-0.95,1.84,-0.27,-0.01,0.14,-22.75,9.69,12.56,0.78,-0.04,-0.62,-0.01,0.596,0.2773290000000008,-0.4846530000000001,-0.26357999999999926,True,0.0,0.0,0.0
597,9.39,-0.95,1.84,-0.39,-0.01,0.14,-22.75,9.69,12.56,0.78,-0.05,-0.62,-0.01,0.597,0.27436799999999995,-0.3386580000000001,-0.24853799999999815,True,0.0,0.0,0.0
598,9.55,-1.24,1.31,-0.5,0.0,0.15,-22.75,9.69,12.56,0.78,-0.05,-0.62,-0.01,0.598,0.8001740000000002,-0.6663040000000003,-0.19205000000000005,True,0.0,0.0,0.0
599,9.87,-1.2,1.22,-0.59,0.01,0.14,-22.75,9.69,12.56,0.78,-0.05,-0.62,-0.01,0.599,0.9626839999999999,-0.6199840000000002,0.09520600000000101,True,0.0,0.0,0.0
600,9.94,-1.21,1.27,-0.42,0.1,0.16,-22.06,10.5,13.75,0.78,-0.06,-0.62,-0.02,0.6,0.9052960000000003,-0.6166720000000003,0.19148799999999966,True,0.0,0.0,0.0
601,9.97,-1.21,1.32,-0.42,0.1,0.16,-22.06,10.5,13.75,0.78,-0.06,-0.62,-0.02,0.601,0.8638720000000009,-0.6094560000000002,0.23161599999999893,True,0.0,0.0,0.0
602,9.59,-1.36,1.57,-0.28,0.12,0.15,-22.06,10.5,13.75,0.78,-0.06,-0.62,-0.02,0.602,0.5204960000000003,-0.7445920000000003,-0.07131200000000248,True,0.0,0.0,0.0
603,9.39,-1.59,1.68,-0.17,0.13,0.14,-22.06,10.75,12.69,0.79,-0.06,-0.62,-0.02,0.603,0.4705950000000012,-0.9943350000000004,-0.08039999999999914,True,0.0,0.0,0.0
604,9.43,-1.69,1.82,-0.13,0.14,0.13,-22.06,10.75,12.69,0.79,-0.06,-0.62,-0.02,0.604,0.33290300000000106,-1.0763290000000003,-0.00101000000000262,True,0.0,0.0,0.0
605,9.6,-1.58,1.97,-0.16,0.17,0.1,-22.06,10.75,12.69,0.79,-0.06,-0.61,-0.02,0.605,0.39037800000000145,-0.9334920000000003,0.06688799999999695,True,0.0,0.0,0.0
606,9.55,-1.1,1.8,-0.16,0.17,0.1,-22.06,10.75,12.69,0.79,-0.06,-0.61,-0.02,0.606,0.5913600000000019,-0.47958000000000023,-0.05751000000000239,True,0.0,0.0,0.0
607,9.46,-0.87,1.74,-0.17,0.19,0.09,-22.06,10.75,12.69,0.79,-0.06,-0.61,-0.02,0.607,0.6501800000000018,-0.26227,-0.1755879999999994,True,0.0,0.0,0.0
608,9.5,-0.59,1.73,-0.14,0.22,0.09,-22.06,10.75,12.69,0.79,-0.06,-0.61,-0.02,0.608,0.6993460000000014,0.016018000000000032,-0.15914000000000073,True,0.0,0.0,0.0
609,9.47,-0.51,1.86,-0.09,0.24,0.09,-21.75,10.5,11.5,0.79,-0.07,-0.61,-0.02,0.609,0.5819250000000011,0.2552269999999999,-0.15198599999999907,True,0.0,0.0,0.0
610,9.47,-0.63,2.01,-0.02,0.27,0.1,-21.75,10.5,11.5,0.79,-0.07,-0.61,-0.02,0.61,0.4237350000000013,0.15656899999999985,-0.10451699999999953,True,0.0,0.0,0.0
611,9.54,-0.69,2.16,0.04,0.3,0.1,-21.75,10.5,11.5,0.79,-0.07,-0.61,-0.02,0.611,0.2905200000000008,0.12113099999999993,0.005442000000000391,True,0.0,0.0,0.0
612,9.53,-0.82,2.34,0.1,0.31,0.1,-21.75,10.5,11.5,0.79,-0.07,-0.61,-0.02,0.612,0.09976500000000099,0.016075999999999924,0.05153199999999991,True,0.0,0.0,0.0
613,9.34,-1.1,2.56,0.16,0.32,0.11,-21.75,10.5,11.5,0.79,-0.07,-0.61,-0.02,0.613,-0.19314999999999882,-0.24189800000000017,-0.05353600000000114,True,0.0,0.0,0.0
614,9.34,-1.1,2.56,0.21,0.33,0.11,-22.75,9.75,11.56,0.79,-0.06,-0.61,-0.02,0.614,-0.19289599999999885,-0.39772400000000024,-0.07132400000000239,True,0.0,0.0,0.0
615,9.29,-1.11,2.47,0.24,0.34,0.1,-22.75,9.75,11.56,0.79,-0.06,-0.6,-0.01,0.615,0.04995000000000083,-0.3023500000000004,-0.25634200000000185,True,0.0,0.0,0.0
616,9.33,-1.13,2.37,0.25,0.34,0.09,-22.75,9.75,11.56,0.79,-0.06,-0.6,-0.01,0.616,0.15357800000000177,-0.3303900000000001,-0.2427779999999995,True,0.0,0.0,0.0
617,9.33,-1.13,2.37,0.25,0.35,0.09,-22.75,9.75,11.56,0.8,-0.06,-0.6,-0.01,0.617,0.2732590000000017,-0.34737899999999994,-0.09177900000000072,True,0.0,0.0,0.0
618,9.39,-0.91,2.01,0.24,0.37,0.08,-22.75,9.75,11.56,0.8,-0.06,-0.6,-0.01,0.618,0.6547970000000021,-0.1637130000000002,-0.1521270000000019,True,0.0,0.0,0.0
619,9.39,-0.91,2.01,0.24,0.37,0.08,-22.87,9.56,11.56,0.8,-0.06,-0.6,-0.01,0.619,0.6547970000000021,-0.1637130000000002,-0.1521270000000019,True,0.0,0.0,0.0
620,9.34,-1.03,1.99,0.23,0.4,0.08,-22.87,9.56,11.56,0.8,-0.06,-0.6,-0.01,0.62,0.6492380000000015,-0.28822900000000007,-0.19563699999999962,True,0.0,0.0,0.0
621,9.27,-0.77,2.03,0.2,0.43,0.08,-22.87,9.56,11.56,0.8,-0.06,-0.6,-0.01,0.621,0.6139210000000019,-0.02879100000000015,-0.27370100000000264,True,0.0,0.0,0.0
622,9.14,-0.64,2.1,0.19,0.45,0.08,-22.87,9.56,11.56,0.8,-0.06,-0.59,-0.01,0.622,0.6645240000000019,0.09723599999999988,-0.5113439999999994,False,0.0006139210000000025,-2.8791000000000175e-05,-0.0002737010000000029
623,9.11,-0.66,2.16,0.22,0.46,0.09,-22.87,9.56,11.56,0.8,-0.06,-0.59,-0.01,0.623,0.597358000000002,0.0823719999999998,-0.5207120000000014,False,0.001278445000000005,6.844499999999978e-05,-0.0007850450000000027
624,9.42,-0.79,2.52,0.27,0.47,0.08,-21.37,10.0,9.19,0.81,-0.06,-0.59,-0.01,0.624,0.46000800000000197,-0.0013830000000001341,0.03974599999999917,True,0.0,0.0,0.0
625,9.38,-0.85,2.66,0.25,0.48,0.07,-21.37,10.0,9.19,0.81,-0.06,-0.59,-0.01,0.625,0.3086840000000022,-0.04833700000000002,0.04922000000000004,True,0.0,0.0,0.0
626,9.38,-0.85,2.66,0.21,0.51,0.07,-21.37,10.0,9.19,0.81,-0.06,-0.59,-0.0,0.626,0.32020000000000204,0.0721460000000001,0.0477280000000011,True,0.0,0.0,0.0
627,9.19,-0.69,2.84,0.2,0.54,0.08,-21.37,10.0,9.19,0.81,-0.06,-0.58,-0.0,0.627,0.2546390000000023,0.233331,-0.2102839999999997,True,0.0,0.0,0.0
628,9.38,-0.53,3.04,0.25,0.55,0.09,-21.37,10.0,9.19,0.81,-0.06,-0.58,-0.0,0.628,0.13928200000000235,0.42421899999999996,0.01590799999999959,True,0.0,0.0,0.0
629,9.4,-0.66,3.11,0.34,0.55,0.08,-23.38,11.06,8.88,0.81,-0.05,-0.58,-0.0,0.629,0.0682440000000013,0.14370999999999984,0.06219199999999958,True,0.0,0.0,0.0
630,9.37,-0.91,3.22,0.44,0.55,0.08,-23.38,11.06,8.88,0.81,-0.05,-0.58,-0.0,0.63,-0.059277999999999054,-0.09662000000000026,0.0891459999999995,True,0.0,0.0,0.0
631,9.37,-0.91,3.22,0.44,0.55,0.08,-23.38,11.06,8.88,0.82,-0.05,-0.58,0.0,0.631,0.056100999999998624,-0.10823300000000002,0.2512339999999966,True,0.0,0.0,0.0
632,9.06,-0.95,3.42,0.48,0.56,0.06,-23.38,11.06,8.88,0.82,-0.05,-0.57,0.0,0.632,-0.08016600000000063,-0.1481999999999999,-0.0829120000000021,True,0.0,0.0,0.0
633,9.02,-1.14,3.43,0.47,0.56,0.04,-23.38,11.06,8.88,0.82,-0.05,-0.57,0.0,0.633,-0.11434400000000089,-0.3386719999999998,-0.10127400000000186,True,0.0,0.0,0.0
634,9.04,-1.34,3.49,0.45,0.55,0.04,-24.06,10.56,7.69,0.82,-0.05,-0.57,0.01,0.634,-0.15725000000000122,-0.42296799999999996,-0.03889300000000162,True,0.0,0.0,0.0
635,9.23,-1.47,3.39,0.4,0.54,0.04,-24.06,10.56,7.69,0.82,-0.04,-0.57,0.01,0.635,0.00666200000000039,-0.7075339999999997,0.09694999999999787,True,0.0,0.0,0.0
636,9.23,-1.47,3.39,0.4,0.54,0.04,-24.06,10.56,7.69,0.82,-0.04,-0.56,0.01,0.636,0.16773299999999924,-0.6976289999999998,-0.016409000000001228,True,0.0,0.0,0.0
637,9.45,-0.95,3.2,0.33,0.56,0.02,-24.06,10.56,7.69,0.83,-0.04,-0.56,0.01,0.637,0.5566899999999988,-0.19388999999999978,0.23703999999999859,True,0.0,0.0,0.0
638,9.54,-0.56,3.07,0.39,0.57,0.02,-24.06,10.56,7.69,0.83,-0.04,-0.56,0.01,0.638,0.722551999999999,0.19477199999999997,0.2417739999999995,True,0.0,0.0,0.0
639,9.35,-0.6,2.54,0.47,0.59,-0.01,-24.56,11.0,6.56,0.83,-0.04,-0.56,0.01,0.639,1.1429439999999995,0.1138180000000002,-0.12970800000000082,True,0.0,0.0,0.0
640,9.14,-1.02,2.35,0.52,0.61,-0.02,-24.56,11.0,6.56,0.83,-0.04,-0.56,0.01,0.64,1.228748,-0.3298999999999998,-0.3631859999999989,True,0.0,0.0,0.0
641,9.13,-1.33,2.26,0.49,0.65,-0.02,-24.56,11.0,6.56,0.83,-0.03,-0.55,0.01,0.641,1.4485879999999995,-0.7766959999999998,-0.5274679999999989,True,0.0,0.0,0.0
642,9.26,-1.4,2.18,0.41,0.69,-0.03,-24.56,11.0,6.56,0.83,-0.03,-0.55,0.01,0.642,1.5708639999999991,-0.8426799999999998,-0.43544800000000095,True,0.0,0.0,0.0
643,9.26,-1.4,2.18,0.34,0.73,-0.05,-24.56,11.0,6.56,0.84,-0.03,-0.55,0.01,0.643,1.7018059999999986,-0.8628999999999999,-0.296342000000001,True,0.0,0.0,0.0
644,9.62,-0.82,2.2,0.34,0.83,-0.08,-24.25,11.06,5.87,0.84,-0.03,-0.54,0.02,0.644,1.9899939999999983,-0.11835800000000006,-0.12554000000000265,True,0.0,0.0,0.0
645,9.74,-0.43,2.51,0.37,0.89,-0.09,-24.25,11.06,5.87,0.84,-0.03,-0.54,0.02,0.645,1.7576619999999998,0.28689100000000006,0.08328500000000005,True,0.0,0.0,0.0
646,9.87,-0.25,2.73,0.43,0.94,-0.1,-24.25,11.06,5.87,0.85,-0.02,-0.53,0.02,0.646,1.8998779999999975,0.3291179999999999,0.29434199999999855,False,0.0017576620000000014,0.0002868910000000003,8.328500000000012e-05
647,9.96,-0.13,2.86,0.47,0.99,-0.11,-24.25,11.06,5.87,0.85,-0.02,-0.53,0.02,0.647,1.8208519999999986,0.456062,0.42614399999999897,False,0.003657540000000001,0.0006160090000000005,0.0003776269999999989
648,9.96,-0.13,2.86,0.48,1.03,-0.12,-25.69,10.88,4.0,0.85,-0.02,-0.52,0.02,0.648,1.9741039999999992,0.4545870000000001,0.2868019999999998,False,0.005478392000000001,0.0010720710000000008,0.0008037709999999983
649,10.1,0.03,2.69,0.46,1.08,-0.13,-25.69,10.88,4.0,0.86,-0.02,-0.52,0.02,0.649,2.3304239999999985,0.6243799999999999,0.47585199999999794,False,0.007452496000000002,0.0015266580000000013,0.0010905729999999983
650,10.15,0.09,2.46,0.43,1.15,-0.16,-25.69,10.88,4.0,0.86,-0.02,-0.52,0.02,0.65,2.5589639999999987,0.6845640000000001,0.40930400000000056,False,0.009782920000000002,0.002151038000000002,0.0015664249999999967
651,10.15,0.09,2.46,0.4,1.26,-0.17,-25.69,10.88,4.0,0.86,-0.01,-0.51,0.02,0.651,2.7028059999999994,0.534746,0.2664439999999999,False,0.012341884000000003,0.0028356020000000026,0.0019757289999999977
652,10.8,0.74,2.29,0.3,1.26,-0.25,-25.69,10.88,4.0,0.86,-0.01,-0.5,0.02,0.652,3.2960679999999996,1.205042,0.5680230000000002,False,0.015044690000000005,0.003370348000000003,0.002242172999999998
653,10.8,0.74,2.29,0.3,1.26,-0.25,-23.69,11.06,0.5,0.87,-0.01,-0.5,0.02,0.653,3.459712000000001,1.2226220000000003,0.7154920000000011,False,0.018340758000000006,0.004575390000000004,0.0028101959999999987
654,10.83,-0.18,1.74,0.29,1.41,-0.15,-23.69,11.06,0.5,0.87,-0.01,-0.49,0.02,0.654,4.113975000000002,0.29982000000000003,0.3257399999999997,False,0.02180047000000001,0.005798012000000005,0.0035256880000000008
655,11.15,0.2,1.99,0.39,1.5,-0.17,-23.69,11.06,0.5,0.87,-0.01,-0.49,0.02,0.655,4.056505000000001,0.692212,0.7136589999999998,False,0.025914445000000015,0.006097832000000005,0.003851428000000001
656,10.97,-0.2,1.54,0.48,1.58,-0.23,-23.69,11.06,0.5,0.88,-0.0,-0.47,0.02,0.656,4.800659000000001,0.15821200000000002,0.12115000000000009,False,0.02997095000000002,0.0067900440000000055,0.0045650870000000015
657,11.66,-1.38,1.42,0.58,1.64,-0.2,-23.69,11.06,0.5,0.88,-0.0,-0.47,0.02,0.657,5.323098000000001,-0.9892259999999998,0.647634,False,0.03477160900000002,0.006948256000000006,0.004686237000000002
658,12.89,-2.55,1.27,0.72,1.68,-0.19,-26.19,10.69,-3.25,0.89,0.0,-0.46,0.02,0.658,6.528393000000001,-2.1228990000000003,1.5289950000000019,False,0.04009470700000003,0.005959030000000006,0.005333871000000002
659,13.97,-2.25,1.16,0.55,1.77,-0.34,-26.19,10.69,-3.25,0.89,0.0,-0.46,0.02,0.659,7.234289000000001,-1.781437,2.3438800000000004,False,0.046623100000000035,0.0038361310000000035,0.006862866000000006
660,13.97,-2.25,1.16,0.07,1.92,-0.45,-26.19,10.69,-3.25,0.89,0.01,-0.45,0.02,0.66,7.404175,-1.9066510000000003,2.0702920000000002,False,0.05385738900000004,0.002054694000000002,0.009206746000000009
661,13.54,1.48,-0.6,-0.35,2.05,-0.35,-26.19,10.69,-3.25,0.9,0.0,-0.43,0.01,0.661,8.90026,1.721184,0.2821119999999997,False,0.061261564000000046,0.00014804299999999983,0.01127703800000001
662,12.93,2.04,-0.99,-0.55,2.2,-0.19,-26.19,10.69,-3.25,0.9,0.0,-0.43,0.01,0.662,8.81079,2.270646,-0.4386719999999986,False,0.07016182400000005,0.0018692270000000013,0.01155915000000001
663,12.64,2.25,-1.55,-0.55,2.37,-0.02,-27.25,10.06,-7.37,0.91,-0.0,-0.41,0.01,0.663,9.456796000000002,2.4839830000000003,-1.4196370000000016,False,0.07897261400000007,0.004139873000000003,0.01112047800000001
664,13.79,1.54,-3.58,-0.4,2.47,0.18,-27.25,10.06,-7.37,0.91,-0.0,-0.41,0.01,0.664,11.743389,1.814328,-1.8956880000000016,False,0.08842941000000007,0.006623856000000006,0.009700841000000007
665,14.81,1.41,-4.45,-0.01,2.59,0.53,-27.25,10.06,-7.37,0.92,-0.01,-0.39,0.02,0.665,13.432350000000001,2.0552460000000004,-2.327178,False,0.10017279900000008,0.008438184000000008,0.007805153000000004
666,15.34,1.19,-4.31,-0.01,2.59,0.53,-27.25,10.06,-7.37,0.92,-0.01,-0.39,0.02,0.666,13.706030000000002,1.8597160000000001,-1.842337999999999,False,0.11360514900000009,0.01049343000000001,0.005477975000000001
667,15.19,0.41,-1.44,0.29,2.75,0.63,-27.25,10.06,-7.37,0.93,-0.01,-0.37,0.02,0.667,12.033129,1.082535,-0.4247639999999997,False,0.1273111790000001,0.012353146000000013,0.0036356370000000006
668,13.26,-2.63,3.29,0.69,2.81,0.69,-28.38,10.56,-12.37,0.93,-0.0,-0.36,0.02,0.668,7.639626000000001,-2.168587,1.527220999999999,False,0.1393443080000001,0.013435681000000014,0.0032108730000000004
669,11.55,-2.82,4.89,0.95,2.93,0.66,-28.38,10.56,-12.37,0.94,-0.0,-0.35,0.03,0.669,5.721738000000001,-2.285934,1.5752999999999986,False,0.14698393400000012,0.011267094000000012,0.004738094000000001
670,9.92,-3.13,9.5,1.16,2.91,0.46,-28.38,10.56,-12.37,0.95,0.01,-0.32,0.04,0.67,2.411623999999998,-2.873284,3.8651539999999986,False,0.15270567200000013,0.00898116000000001,0.006313394000000001
671,9.81,-1.69,11.46,1.22,2.64,0.39,-28.38,10.56,-12.37,0.95,0.01,-0.32,0.04,0.671,1.0150099999999993,-1.5237479999999999,5.359818000000001,False,0.15511729600000013,0.006107876000000009,0.010178548000000003
672,9.81,-1.69,11.46,1.22,2.25,0.43,-28.38,10.56,-12.37,0.95,0.01,-0.31,0.04,0.672,1.2942149999999994,-1.5019709999999997,5.244273999999999,False,0.15613230600000014,0.004584128000000008,0.015538366000000008
673,10.16,-2.11,9.93,1.21,1.81,0.44,-27.56,11.0,-17.56,0.95,0.02,-0.3,0.04,0.673,2.7842759999999993,-2.0553749999999997,4.047957000000002,False,0.15742652100000012,0.0030821570000000064,0.020782640000000012
674,10.16,-2.11,9.93,0.99,1.36,0.42,-27.56,11.0,-17.56,0.95,0.02,-0.3,0.05,0.674,2.819194000000002,-1.920016,4.073617999999998,False,0.16021079700000013,0.0010267820000000047,0.024830597000000017
675,5.66,-3.72,10.2,0.61,0.95,0.38,-27.56,11.0,-17.56,0.96,0.02,-0.29,0.05,0.675,-0.5303239999999994,-3.9401920000000006,1.881759999999998,False,0.16302999100000012,-0.0008932339999999969,0.028904215000000018
676,4.18,-3.46,12.03,0.16,0.69,0.3,-27.56,11.0,-17.56,0.96,0.02,-0.29,0.05,0.676,-2.809975999999999,-3.9277180000000005,2.593647999999998,False,0.16249966700000013,-0.004833426000000001,0.030785975000000017
677,4.18,-3.46,12.03,0.16,0.69,0.3,-27.56,11.0,-17.56,0.96,0.02,-0.29,0.05,0.677,-2.809975999999999,-3.9277180000000005,2.593647999999998,False,0.15968969100000013,-0.008761144000000005,0.03337962300000002
678,4.27,-2.52,10.92,-0.34,0.05,0.26,-27.37,10.0,-22.37,0.96,0.02,-0.29,0.05,0.678,-2.220106,-2.9026760000000005,1.720819999999998,False,0.15687971500000014,-0.012688862000000009,0.035973271000000015
679,4.27,-2.52,10.92,-0.34,0.05,0.26,-27.37,10.0,-22.37,0.96,0.02,-0.29,0.05,0.679,-2.220106,-2.9026760000000005,1.720819999999998,False,0.15465960900000014,-0.015591538000000012,0.03769409100000001
680,7.31,-1.13,6.53,-0.63,-0.83,0.29,-27.37,10.0,-22.37,0.95,0.01,-0.29,0.05,0.68,2.4873640000000004,-0.7733079999999999,-0.40375600000000134,True,0.0,0.0,0.0
681,7.35,-1.4,8.33,-0.64,-1.19,0.15,-27.37,10.0,-22.37,0.95,0.01,-0.3,0.05,0.681,1.3558649999999997,-1.13988,1.1903669999999984,False,0.0024873640000000028,-0.0007733080000000005,-0.0004037560000000017
682,5.86,-1.7,8.76,-0.66,-1.57,0.11,-27.37,10.0,-22.37,0.95,0.01,-0.31,0.05,0.682,-0.2673999999999994,-1.610832,0.7528879999999987,False,0.0038432290000000036,-0.0019131880000000016,0.0007866109999999978
683,4.86,-2.02,8.7,-0.79,-1.89,0.17,-26.87,10.38,-22.75,0.95,0.0,-0.32,0.05,0.683,-1.2213639999999986,-1.841548,0.19213999999999665,False,0.003575829000000004,-0.003524020000000003,0.0015394989999999971
684,4.19,-1.95,8.52,-1.01,-2.21,0.23,-26.87,10.38,-22.75,0.94,-0.0,-0.34,0.05,0.684,-2.055238999999999,-1.8393849999999998,-0.5007920000000023,False,0.0023544650000000044,-0.005365568000000005,0.001731638999999994
685,3.95,-1.36,8.43,-1.21,-2.5,0.27,-26.87,10.38,-22.75,0.94,-0.0,-0.34,0.05,0.685,-2.236891,-1.270832,-0.7436050000000005,False,0.00029922600000000356,-0.007204953000000006,0.001230846999999991
686,3.95,-1.36,8.43,-1.25,-2.79,0.27,-26.87,10.38,-22.75,0.93,-0.01,-0.35,0.05,0.686,-2.456399999999999,-1.0825800000000003,-0.8909399999999987,False,-0.0019376649999999986,-0.008475785000000007,0.00048724199999998995
687,4.16,0.27,8.29,-1.16,-3.04,0.25,-26.87,10.38,-22.75,0.93,-0.02,-0.37,0.05,0.687,-2.7231279999999987,0.7198090000000001,-0.9229129999999994,False,-0.004394065,-0.009558365000000008,-0.0004036980000000096
688,4.37,0.52,8.38,-0.75,-3.46,0.15,-29.06,11.06,-22.19,0.92,-0.02,-0.4,0.05,0.688,-3.233569000000001,0.9669640000000002,-0.8727260000000001,False,-0.007117192999999699,-0.008838556000000088,-0.0013266109999999073
689,4.55,0.55,8.39,-0.75,-3.46,0.15,-29.06,11.06,-22.19,0.92,-0.02,-0.4,0.05,0.689,-3.1200550000000016,1.0164770000000003,-0.7360249999999997,False,-0.010350761999999703,-0.007871592000000087,-0.002199336999999908
690,4.71,0.16,8.41,-0.49,-3.62,0.12,-29.06,11.06,-22.19,0.91,-0.02,-0.41,0.05,0.69,-3.205588999999999,0.626096,-0.7489409999999985,False,-0.013470816999999708,-0.006855115000000085,-0.0029353619999999084
691,4.82,-0.18,7.98,-0.26,-3.77,0.12,-29.06,11.06,-22.19,0.89,-0.02,-0.45,0.05,0.691,-3.5634100000000006,0.26222199999999996,-1.2225459999999995,False,-0.01667640599999971,-0.006229019000000085,-0.0036843029999999075
692,5.07,-0.52,7.8,-0.15,-3.88,0.12,-29.06,11.06,-22.19,0.89,-0.02,-0.45,0.05,0.692,-3.247855,-0.04651400000000004,-1.1018980000000003,False,-0.020239815999999713,-0.005966797000000084,-0.004906848999999908
693,5.54,-1.22,7.57,-0.14,-3.97,0.1,-33.06,13.38,-18.0,0.88,-0.02,-0.48,0.05,0.693,-3.3242140000000004,-0.725326,-0.9054069999999985,False,-0.023487670999999717,-0.0060133110000000845,-0.006008746999999909
694,5.72,-1.33,7.38,-0.25,-4.04,0.07,-33.06,13.38,-18.0,0.88,-0.02,-0.48,0.05,0.694,-3.0582119999999997,-0.8138070000000001,-0.8483099999999997,False,-0.02681188499999972,-0.0067386370000000854,-0.0069141539999999085
695,5.91,-1.29,6.97,-0.42,-4.08,0.05,-33.06,13.38,-18.0,0.87,-0.03,-0.5,0.05,0.695,-3.0249569999999997,-0.5877110000000001,-1.0099470000000004,False,-0.02987009699999972,-0.007552444000000086,-0.007762463999999909
696,6.12,-1.25,6.8,-0.62,-4.09,0.02,-33.06,13.38,-18.0,0.85,-0.03,-0.53,0.05,0.696,-3.3879000000000006,-0.5487839999999999,-1.1704800000000013,False,-0.03289505399999972,-0.008140155000000086,-0.00877241099999991
697,6.43,-1.23,6.74,-0.77,-4.09,-0.06,-33.06,13.38,-18.0,0.85,-0.03,-0.53,0.05,0.697,-3.1983240000000013,-0.492456,-0.9207720000000013,False,-0.03628295399999973,-0.008688939000000086,-0.009942890999999912
698,6.56,-1.17,6.7,-0.9,-4.08,-0.17,-36.19,13.06,-10.75,0.83,-0.03,-0.55,0.05,0.698,-3.5544120000000006,-0.42984,-1.1181840000000012,False,-0.03948127799999973,-0.009181395000000087,-0.010863662999999914
699,6.55,-1.07,6.72,-1.0,-4.06,-0.28,-36.19,13.06,-10.75,0.82,-0.03,-0.56,0.04,0.699,-3.8079810000000003,-0.37301699999999993,-1.2937800000000017,False,-0.04303568999999974,-0.009611235000000088,-0.011981846999999917
700,6.07,-0.23,6.59,-1.09,-3.99,-0.52,-36.19,13.06,-10.75,0.79,-0.04,-0.61,0.03,0.7,-4.833690999999998,0.5306770000000001,-2.2952809999999992,False,-0.04684367099999974,-0.009984252000000087,-0.01327562699999992
701,6.07,-0.23,6.59,-1.09,-3.99,-0.52,-36.19,13.06,-10.75,0.79,-0.04,-0.61,0.03,0.701,-4.833690999999998,0.5306770000000001,-2.2952809999999992,False,-0.05167736199999974,-0.009453575000000087,-0.015570907999999922
702,6.08,-0.07,6.61,-0.9,-3.98,-0.59,-38.56,14.0,-2.0,0.76,-0.04,-0.64,0.02,0.702,-5.4135040000000005,0.6598360000000001,-2.796508000000001,False,-0.05651105299999974,-0.008922898000000087,-0.01786618899999992
703,6.32,0.27,6.19,-0.9,-3.98,-0.59,-38.56,14.0,-2.0,0.75,-0.04,-0.66,0.02,0.703,-5.322256,1.000227,-2.8085570000000013,False,-0.06192455699999975,-0.008263062000000087,-0.020662696999999924
704,6.52,0.55,5.74,-0.75,-3.96,-0.6,-38.56,14.0,-2.0,0.75,-0.04,-0.66,0.02,0.704,-4.844032,1.280575,-2.6916340000000023,False,-0.06724681299999975,-0.0072628350000000855,-0.023471253999999928
705,6.68,0.79,5.16,-0.37,-3.81,-0.63,-38.56,14.0,-2.0,0.73,-0.04,-0.69,0.01,0.705,-4.780793999999998,1.4921669999999998,-2.8576020000000018,False,-0.07209084499999976,-0.005982260000000085,-0.026162887999999933
706,6.88,0.84,4.8,-0.37,-3.81,-0.63,-38.56,14.0,-2.0,0.73,-0.04,-0.69,0.01,0.706,-4.404151999999998,1.540436,-2.679800000000001,False,-0.07687163899999977,-0.004490093000000084,-0.029020489999999937
707,7.42,0.59,4.4,-0.17,-3.67,-0.63,-39.19,13.25,5.06,0.7,-0.04,-0.71,0.01,0.707,-4.44536,1.294772,-2.5505140000000024,False,-0.08127579099999978,-0.0029496570000000825,-0.031700289999999944
708,7.78,0.36,4.14,-0.02,-3.52,-0.6,-39.19,13.25,5.06,0.7,-0.04,-0.71,0.01,0.708,-4.201092,1.08114,-2.172760000000001,False,-0.08572115099999979,-0.0016548850000000814,-0.03425080399999995
709,8.14,0.09,3.86,0.06,-3.35,-0.56,-39.19,13.25,5.06,0.69,-0.04,-0.72,0.01,0.709,-4.1665540000000005,0.828036,-1.9039400000000013,False,-0.08992224299999979,-0.0005737450000000803,-0.03642356399999995
710,8.39,-0.25,3.57,0.02,-3.14,-0.51,-39.19,13.25,5.06,0.67,-0.03,-0.74,0.0,0.71,-4.3716539999999995,0.26713,-1.8359979999999991,False,-0.0940887969999998,0.00025429099999992044,-0.03832750399999995
711,8.13,-0.91,3.02,-0.13,-2.9,-0.45,-39.19,13.25,5.06,0.67,-0.03,-0.74,0.0,0.711,-3.8301499999999993,-0.42361999999999994,-2.0125019999999996,False,-0.0984604509999998,0.0005214209999999206,-0.04016350199999995
712,7.9,-1.03,2.79,-0.37,-2.61,-0.4,-38.69,11.38,10.88,0.65,-0.03,-0.76,-0.0,0.712,-4.021668,-0.5601260000000001,-2.39987,False,-0.1022906009999998,9.780099999992032e-05,-0.04217600399999995
713,7.84,-0.94,2.44,-0.64,-2.29,-0.39,-38.69,11.38,10.88,0.65,-0.03,-0.76,-0.0,0.713,-3.6625119999999995,-0.486584,-2.408059999999999,False,-0.1063122689999998,-0.0004623250000000803,-0.044575873999999946
714,7.84,-0.94,2.44,-0.87,-1.92,-0.38,-38.69,11.38,10.88,0.64,-0.03,-0.76,-0.01,0.714,-3.7379119999999997,-0.5390919999999999,-2.5686080000000002,False,-0.10997478099999981,-0.0009489090000000808,-0.04698393399999995
715,7.49,-0.05,1.9,-1.06,-1.52,-0.35,-38.69,11.38,10.88,0.63,-0.04,-0.77,-0.01,0.715,-3.3023749999999996,0.44262500000000005,-2.91071,False,-0.11371269299999981,-0.0014880010000000812,-0.04955254199999995
716,7.07,0.0,1.74,-1.17,-1.07,-0.32,-38.69,11.38,10.88,0.63,-0.04,-0.77,-0.01,0.716,-3.061871,0.460922,-3.2886800000000003,False,-0.1170150679999998,-0.0010453760000000809,-0.05246325199999995
