Timestamp, AccelX, AccelY, AccelZ, GyroX, GyroY, GyroZ, MagX, MagY, MagZ, QuatW, QuatX, QuatY, QuatZ,Time_s,GlobalAx,GlobalAy,GlobalAz,Stationary,VelX,VelY,VelZ,PosX,PosY,PosZ
0,8.75,-1.56,3.62,0.06,0.05,0.03,-41.37,21.0,14.25,0.83,-0.1,-0.55,0.0,0.0,-0.008160000000001055,0.03243600000000002,-0.1997220000000013,True,0.0,0.0,0.0,0.0,0.0,0.0
1,8.7,-1.54,3.53,0.06,0.05,0.03,-41.37,21.0,14.25,0.83,-0.1,-0.55,0.0,0.001,0.05638999999999905,0.031623999999999874,-0.28256800000000126,True,0.0,0.0,0.0,0.0,0.0,0.0
2,8.7,-1.54,3.55,0.06,0.06,0.02,-41.37,21.0,14.25,0.83,-0.1,-0.55,0.0,0.002,0.03812999999999933,0.034943999999999975,-0.2750400000000024,True,0.0,0.0,0.0,0.0,0.0,0.0
3,8.71,-1.54,3.55,0.06,0.07,0.02,-41.37,21.0,14.25,0.83,-0.1,-0.55,0.0,0.003,0.042094000000000076,0.036044000000000076,-0.26590999999999987,True,0.0,0.0,0.0,0.0,0.0,0.0
4,8.78,-1.54,3.62,0.06,0.05,0.02,-40.56,21.37,14.25,0.83,-0.1,-0.55,0.0,0.004,0.005931999999998716,0.05536399999999997,-0.17565200000000125,True,0.0,0.0,0.0,0.0,0.0,0.0
5,8.77,-1.54,3.67,0.06,0.04,0.02,-40.56,21.37,14.25,0.83,-0.1,-0.55,0.0,0.005,-0.04368200000000089,0.06256399999999995,-0.16596200000000216,True,0.0,0.0,0.0,0.0,0.0,0.0
6,8.75,-1.57,3.68,0.05,0.03,0.02,-40.56,21.37,14.25,0.83,-0.1,-0.55,0.0,0.006,-0.06404000000000076,0.03258200000000011,-0.17547800000000002,True,0.0,0.0,0.0,0.0,0.0,0.0
7,8.75,-1.59,3.67,0.04,0.03,0.03,-40.56,21.37,14.25,0.83,-0.1,-0.55,0.0,0.007,-0.05711000000000066,0.011294000000000026,-0.1759219999999999,True,0.0,0.0,0.0,0.0,0.0,0.0
8,8.74,-1.59,3.63,0.03,0.03,0.03,-40.56,21.37,14.25,0.83,-0.1,-0.55,0.0,0.008,-0.02455400000000063,0.003554000000000057,-0.20010800000000017,True,0.0,0.0,0.0,0.0,0.0,0.0
9,8.74,-1.59,3.63,0.03,0.03,0.03,-41.69,21.37,14.69,0.83,-0.09,-0.55,0.0,0.009,-0.023670000000000968,-0.15586500000000036,-0.2196049999999996,True,0.0,0.0,0.0,0.0,0.0,0.0
10,8.77,-1.57,3.6,0.04,0.03,0.02,-41.69,21.37,14.69,0.83,-0.09,-0.55,0.0,0.01,0.017534999999998746,-0.13771100000000014,-0.20655200000000207,True,0.0,0.0,0.0,0.0,0.0,0.0
11,8.77,-1.55,3.62,0.04,0.04,0.02,-41.69,21.37,14.69,0.83,-0.09,-0.55,0.0,0.011,0.001254999999999118,-0.11505700000000019,-0.20197400000000165,True,0.0,0.0,0.0,0.0,0.0,0.0
12,8.72,-1.53,3.63,0.04,0.04,0.02,-41.69,21.37,14.69,0.83,-0.09,-0.55,0.0,0.012,-0.025620000000000864,-0.09884700000000013,-0.24682899999999997,True,0.0,0.0,0.0,0.0,0.0,0.0
13,8.71,-1.55,3.66,0.04,0.05,0.02,-41.69,21.37,14.69,0.83,-0.09,-0.55,0.0,0.013,-0.05893500000000085,-0.11502100000000004,-0.24162199999999956,True,0.0,0.0,0.0,0.0,0.0,0.0
14,8.69,-1.54,3.69,0.04,0.06,0.01,-24.69,12.69,8.56,0.83,-0.09,-0.55,0.0,0.014,-0.09322500000000122,-0.10268600000000017,-0.2500270000000011,True,0.0,0.0,0.0,0.0,0.0,0.0
15,8.68,-1.57,3.7,0.03,0.06,0.01,-24.69,12.69,8.56,0.83,-0.09,-0.55,0.0,0.015,-0.10927000000000131,-0.13168100000000016,-0.2508920000000021,True,0.0,0.0,0.0,0.0,0.0,0.0
16,8.68,-1.57,3.7,0.03,0.06,0.01,-24.69,12.69,8.56,0.83,-0.09,-0.55,0.0,0.016,-0.10927000000000131,-0.13168100000000016,-0.2508920000000021,True,0.0,0.0,0.0,0.0,0.0,0.0
17,8.67,-1.58,3.73,0.02,0.06,0.01,-24.69,12.69,8.56,0.83,-0.09,-0.55,0.0,0.017,-0.14159500000000103,-0.1380220000000003,-0.24717900000000093,True,0.0,0.0,0.0,0.0,0.0,0.0
18,8.72,-1.58,3.74,0.01,0.06,0.01,-24.69,12.69,8.56,0.83,-0.09,-0.55,0.0,0.018,-0.13100000000000112,-0.1315780000000002,-0.19774599999999865,True,0.0,0.0,0.0,0.0,0.0,0.0
19,8.76,-1.58,3.73,0.0,0.05,0.02,-25.06,12.25,8.56,0.83,-0.09,-0.55,0.0,0.019,-0.10609000000000046,-0.12911200000000034,-0.16500899999999952,True,0.0,0.0,0.0,0.0,0.0,0.0
20,8.76,-1.58,3.77,-0.01,0.06,0.01,-25.06,12.25,8.56,0.83,-0.09,-0.55,0.0,0.02,-0.1426100000000008,-0.12313600000000036,-0.14987700000000004,True,0.0,0.0,0.0,0.0,0.0,0.0
21,8.75,-1.58,3.73,-0.01,0.05,0.01,-25.06,12.25,8.56,0.83,-0.09,-0.55,0.0,0.021,-0.11003500000000033,-0.13010200000000027,-0.17413900000000027,True,0.0,0.0,0.0,0.0,0.0,0.0
22,8.66,-1.52,3.71,-0.01,0.04,0.0,-25.06,12.25,8.56,0.83,-0.09,-0.55,0.0,0.022,-0.12134000000000089,-0.08300200000000013,-0.27283900000000116,True,0.0,0.0,0.0,0.0,0.0,0.0
23,8.66,-1.52,3.71,-0.01,0.04,-0.01,-25.06,12.25,8.56,0.83,-0.09,-0.55,0.0,0.023,-0.12134000000000089,-0.08300200000000013,-0.27283900000000116,True,0.0,0.0,0.0,0.0,0.0,0.0
24,8.62,-1.47,3.7,-0.01,0.03,-0.01,-24.19,12.37,7.37,0.83,-0.09,-0.55,0.0,0.024,-0.12304000000000137,-0.03929100000000019,-0.32061200000000234,True,0.0,0.0,0.0,0.0,0.0,0.0
25,8.62,-1.47,3.7,-0.01,0.03,-0.01,-24.19,12.37,7.37,0.83,-0.09,-0.55,0.0,0.025,-0.12304000000000137,-0.03929100000000019,-0.32061200000000234,True,0.0,0.0,0.0,0.0,0.0,0.0
26,8.66,-1.44,3.82,-0.01,0.03,-0.01,-24.19,12.37,7.37,0.83,-0.09,-0.55,0.0,0.026,-0.21385000000000076,0.012095999999999885,-0.24317800000000034,True,0.0,0.0,0.0,0.0,0.0,0.0
27,8.67,-1.47,3.81,-0.02,0.03,-0.01,-24.19,12.37,7.37,0.83,-0.09,-0.55,0.0,0.027,-0.20374500000000095,-0.017907000000000117,-0.23334900000000225,True,0.0,0.0,0.0,0.0,0.0,0.0
28,8.68,-1.49,3.79,-0.02,0.03,-0.01,-24.19,12.37,7.37,0.83,-0.09,-0.55,0.0,0.028,-0.18352000000000102,-0.039571000000000134,-0.22879700000000014,True,0.0,0.0,0.0,0.0,0.0,0.0
29,8.68,-1.49,3.79,-0.02,0.03,-0.01,-25.06,12.69,7.37,0.83,-0.09,-0.55,0.0,0.029,-0.18352000000000102,-0.039571000000000134,-0.22879700000000014,True,0.0,0.0,0.0,0.0,0.0,0.0
30,8.69,-1.48,3.7,-0.02,0.03,-0.01,-25.06,12.69,7.37,0.83,-0.09,-0.55,0.0,0.03,-0.0964150000000017,-0.042194000000000065,-0.25520800000000143,True,0.0,0.0,0.0,0.0,0.0,0.0
31,8.73,-1.47,3.66,-0.02,0.02,-0.02,-25.06,12.69,7.37,0.83,-0.09,-0.55,0.0,0.031,-0.04312500000000119,-0.03437699999999999,-0.2353140000000007,True,0.0,0.0,0.0,0.0,0.0,0.0
32,8.71,-1.48,3.73,-0.02,0.03,-0.02,-25.06,12.69,7.37,0.83,-0.09,-0.55,0.0,0.032,-0.11591500000000066,-0.035731999999999986,-0.225598999999999,True,0.0,0.0,0.0,0.0,0.0,0.0
33,8.74,-1.5,3.77,-0.01,0.04,-0.02,-25.06,12.69,7.37,0.83,-0.09,-0.55,0.0,0.033,-0.14258000000000104,-0.04645200000000027,-0.1800890000000006,True,0.0,0.0,0.0,0.0,0.0,0.0
34,8.74,-1.51,3.76,-0.01,0.05,-0.03,-24.0,13.06,7.5,0.83,-0.09,-0.55,0.0,0.034,-0.134440000000001,-0.05777900000000025,-0.1823780000000017,True,0.0,0.0,0.0,0.0,0.0,0.0
35,8.74,-1.51,3.76,-0.01,0.05,-0.02,-24.0,13.06,7.5,0.83,-0.09,-0.55,0.0,0.035,-0.134440000000001,-0.05777900000000025,-0.1823780000000017,True,0.0,0.0,0.0,0.0,0.0,0.0
36,8.73,-1.51,3.75,-0.01,0.04,-0.02,-24.0,13.06,7.5,0.83,-0.09,-0.54,0.0,0.036,0.03086999999999973,-0.05951799999999996,-0.299334,True,0.0,0.0,0.0,0.0,0.0,0.0
37,8.68,-1.5,3.76,-0.02,0.03,-0.02,-24.0,13.06,7.5,0.83,-0.09,-0.54,0.0,0.037,0.0026079999999994996,-0.053159999999999985,-0.34175600000000195,True,0.0,0.0,0.0,0.0,0.0,0.0
38,8.68,-1.5,3.76,-0.02,0.02,-0.02,-24.0,13.06,7.5,0.83,-0.09,-0.54,0.0,0.038,0.0026079999999994996,-0.053159999999999985,-0.34175600000000195,True,0.0,0.0,0.0,0.0,0.0,0.0
39,8.67,-1.56,3.79,-0.03,0.02,-0.02,-25.06,12.37,8.25,0.83,-0.09,-0.54,0.0,0.039,-0.03417000000000048,-0.10799399999999992,-0.3300800000000006,True,0.0,0.0,0.0,0.0,0.0,0.0
40,8.67,-1.56,3.79,-0.03,0.02,-0.02,-25.06,12.37,8.25,0.83,-0.09,-0.54,0.0,0.04,-0.03417000000000048,-0.10799399999999992,-0.3300800000000006,True,0.0,0.0,0.0,0.0,0.0,0.0
41,8.63,-1.56,3.76,-0.03,0.03,-0.02,-25.06,12.37,8.25,0.83,-0.09,-0.54,0.0,0.041,-0.023494000000000348,-0.1163639999999998,-0.37761200000000095,True,0.0,0.0,0.0,0.0,0.0,0.0
42,8.65,-1.56,3.73,-0.03,0.03,-0.02,-25.06,12.37,8.25,0.83,-0.09,-0.54,0.0,0.042,0.01150599999999935,-0.11890199999999984,-0.371360000000001,True,0.0,0.0,0.0,0.0,0.0,0.0
43,8.65,-1.52,3.79,-0.03,0.03,-0.03,-25.06,12.37,8.25,0.83,-0.09,-0.54,0.0,0.043,-0.038390000000000146,-0.07104199999999983,-0.3539840000000005,True,0.0,0.0,0.0,0.0,0.0,0.0
44,8.66,-1.5,3.81,-0.03,0.04,-0.03,-24.69,12.37,7.87,0.83,-0.09,-0.54,0.0,0.044,-0.05032000000000014,-0.047633999999999954,-0.34022400000000097,True,0.0,0.0,0.0,0.0,0.0,0.0
45,8.68,-1.52,3.8,-0.02,0.05,-0.03,-24.69,12.37,7.87,0.83,-0.09,-0.54,0.0,0.045,-0.035192000000000334,-0.06663199999999991,-0.3232000000000017,True,0.0,0.0,0.0,0.0,0.0,0.0
46,8.66,-1.48,3.84,-0.03,0.04,-0.03,-24.69,12.37,7.87,0.83,-0.09,-0.54,-0.0,0.046,-0.07526800000000033,-0.02370400000000006,-0.3315360000000016,True,0.0,0.0,0.0,0.0,0.0,0.0
47,8.67,-1.49,3.89,-0.04,0.04,-0.02,-24.69,12.37,7.87,0.83,-0.09,-0.54,-0.0,0.047,-0.11700600000000039,-0.02498599999999984,-0.3016180000000013,True,0.0,0.0,0.0,0.0,0.0,0.0
48,8.67,-1.48,3.86,-0.05,0.02,-0.02,-25.37,12.37,7.87,0.83,-0.09,-0.54,-0.0,0.048,-0.08914200000000028,-0.019744000000000095,-0.31478800000000184,True,0.0,0.0,0.0,0.0,0.0,0.0
49,8.68,-1.47,3.81,-0.05,0.02,-0.02,-25.37,12.37,7.87,0.83,-0.09,-0.54,-0.0,0.049,-0.039296000000000664,-0.016518000000000033,-0.3267780000000009,True,0.0,0.0,0.0,0.0,0.0,0.0
50,8.61,-1.44,3.78,-0.04,0.02,-0.01,-25.37,12.37,7.87,0.83,-0.1,-0.54,-0.0,0.05,-0.03705900000000062,0.1598400000000002,-0.38896200000000114,True,0.0,0.0,0.0,0.0,0.0,0.0
51,8.6,-1.44,3.78,-0.03,0.02,-0.02,-25.37,12.37,7.87,0.83,-0.1,-0.54,-0.0,0.051,-0.04113200000000061,0.15876000000000023,-0.397926,True,0.0,0.0,0.0,0.0,0.0,0.0
52,8.6,-1.44,3.78,-0.02,0.02,-0.02,-25.37,12.37,7.87,0.83,-0.1,-0.54,-0.0,0.052,-0.04113200000000061,0.15876000000000023,-0.397926,True,0.0,0.0,0.0,0.0,0.0,0.0
53,8.63,-1.43,3.83,-0.02,0.03,-0.02,-24.69,12.69,6.69,0.83,-0.1,-0.54,-0.0,0.053,-0.0726530000000003,0.18000500000000041,-0.35332900000000045,True,0.0,0.0,0.0,0.0,0.0,0.0
54,8.63,-1.43,3.83,-0.02,0.03,-0.02,-24.69,12.69,6.69,0.83,-0.1,-0.54,-0.0,0.054,-0.0726530000000003,0.18000500000000041,-0.35332900000000045,True,0.0,0.0,0.0,0.0,0.0,0.0
55,8.65,-1.52,3.79,-0.02,0.05,-0.02,-24.69,12.69,6.69,0.83,-0.1,-0.54,-0.0,0.055,-0.038371000000000155,0.08818000000000037,-0.33595299999999995,True,0.0,0.0,0.0,0.0,0.0,0.0
56,8.64,-1.51,3.83,-0.02,0.05,-0.02,-24.69,12.69,6.69,0.83,-0.1,-0.54,-0.0,0.056,-0.07722000000000051,0.10344500000000023,-0.33108499999999985,True,0.0,0.0,0.0,0.0,0.0,0.0
57,8.6,-1.52,3.85,-0.02,0.05,-0.03,-24.69,12.69,6.69,0.83,-0.1,-0.54,-0.0,0.057,-0.11252000000000084,0.09274000000000027,-0.3575350000000004,True,0.0,0.0,0.0,0.0,0.0,0.0
58,8.61,-1.51,3.84,-0.01,0.05,-0.03,-25.56,12.0,8.0,0.84,-0.1,-0.54,-0.0,0.058,0.003911999999998805,0.08432800000000029,-0.1939680000000017,True,0.0,0.0,0.0,0.0,0.0,0.0
59,8.6,-1.5,3.84,-0.01,0.06,-0.03,-25.56,12.0,8.0,0.84,-0.1,-0.54,-0.0,0.059,0.0007519999999989757,0.0931200000000002,-0.2047200000000018,True,0.0,0.0,0.0,0.0,0.0,0.0
60,8.61,-1.54,3.75,-0.0,0.06,-0.04,-25.56,12.0,8.0,0.84,-0.1,-0.54,-0.0,0.06,0.0823199999999984,0.03959200000000018,-0.2252880000000026,True,0.0,0.0,0.0,0.0,0.0,0.0
61,8.65,-1.54,3.76,-0.01,0.06,-0.03,-25.56,12.0,8.0,0.84,-0.09,-0.54,-0.0,0.061,0.09040499999999918,-0.11392199999999975,-0.20368800000000142,True,0.0,0.0,0.0,0.0,0.0,0.0
62,8.66,-1.58,3.76,-0.01,0.05,-0.03,-25.56,12.0,8.0,0.84,-0.09,-0.54,-0.0,0.062,0.09073799999999865,-0.1525139999999997,-0.18856800000000185,True,0.0,0.0,0.0,0.0,0.0,0.0
63,8.71,-1.58,3.79,-0.02,0.05,-0.03,-24.69,13.06,8.75,0.84,-0.09,-0.54,-0.0,0.063,0.0846269999999989,-0.14311799999999963,-0.13103100000000012,True,0.0,0.0,0.0,0.0,0.0,0.0
64,8.72,-1.65,3.83,-0.02,0.04,-0.02,-24.69,13.06,8.75,0.84,-0.09,-0.54,-0.0,0.064,0.04575599999999902,-0.2053349999999996,-0.09513900000000142,True,0.0,0.0,0.0,0.0,0.0,0.0
65,8.69,-1.66,3.84,-0.02,0.04,-0.02,-24.69,13.06,8.75,0.84,-0.1,-0.54,-0.0,0.065,0.02163199999999854,-0.05511199999999972,-0.09619200000000205,True,0.0,0.0,0.0,0.0,0.0,0.0
66,8.65,-1.64,3.88,-0.01,0.05,-0.03,-24.69,13.06,8.75,0.84,-0.1,-0.54,-0.0,0.066,-0.029456000000000593,-0.03296799999999944,-0.11968000000000067,True,0.0,0.0,0.0,0.0,0.0,0.0
67,8.65,-1.64,3.88,0.0,0.06,-0.04,-24.69,13.06,8.75,0.84,-0.09,-0.54,-0.0,0.067,-0.028179000000001064,-0.19468799999999964,-0.13986000000000054,True,0.0,0.0,0.0,0.0,0.0,0.0
68,8.46,-1.58,3.84,0.02,0.08,-0.06,-25.5,12.69,7.5,0.84,-0.09,-0.54,-0.0,0.068,-0.06625800000000082,-0.1598579999999996,-0.33753600000000006,True,0.0,0.0,0.0,0.0,0.0,0.0
69,8.46,-1.58,3.84,0.03,0.11,-0.08,-25.5,12.69,7.5,0.84,-0.09,-0.54,-0.0,0.069,-0.06625800000000082,-0.1598579999999996,-0.33753600000000006,True,0.0,0.0,0.0,0.0,0.0,0.0
70,8.51,-1.54,3.83,0.05,0.13,-0.09,-25.5,12.69,7.5,0.84,-0.09,-0.54,-0.0,0.07,-0.032193000000000804,-0.11694599999999977,-0.30228300000000097,True,0.0,0.0,0.0,0.0,0.0,0.0
71,8.67,-1.47,3.91,0.06,0.14,-0.1,-25.5,12.69,7.5,0.84,-0.09,-0.54,-0.0,0.071,-0.03042900000000115,-0.020060999999999773,-0.1352430000000009,True,0.0,0.0,0.0,0.0,0.0,0.0
72,8.73,-1.44,3.96,0.07,0.14,-0.11,-25.5,12.69,7.5,0.84,-0.09,-0.54,-0.0,0.072,-0.047547000000001116,0.023004000000000246,-0.06505199999999967,True,0.0,0.0,0.0,0.0,0.0,0.0
73,8.73,-1.44,3.96,0.07,0.13,-0.1,-24.69,12.69,7.19,0.84,-0.09,-0.54,-0.01,0.073,-0.06548400000000054,-0.08074799999999971,-0.0644940000000016,True,0.0,0.0,0.0,0.0,0.0,0.0
74,8.71,-1.45,4.09,0.06,0.1,-0.09,-24.69,12.69,7.19,0.84,-0.09,-0.54,-0.01,0.074,-0.19276600000000066,-0.07118599999999975,-0.028489999999999682,True,0.0,0.0,0.0,0.0,0.0,0.0
75,8.65,-1.52,4.13,0.05,0.07,-0.07,-24.69,12.69,7.19,0.84,-0.09,-0.54,-0.01,0.075,-0.2622820000000008,-0.13875999999999955,-0.0569620000000004,True,0.0,0.0,0.0,0.0,0.0,0.0
76,8.53,-1.6,4.14,0.03,0.06,-0.05,-24.69,12.69,7.19,0.84,-0.09,-0.54,-0.01,0.076,-0.33109600000000095,-0.22590799999999978,-0.15075000000000216,True,0.0,0.0,0.0,0.0,0.0,0.0
77,8.44,-1.7,4.16,0.01,0.06,-0.04,-24.69,12.69,7.19,0.84,-0.09,-0.54,-0.01,0.077,-0.3985840000000014,-0.32880399999999965,-0.2104000000000017,True,0.0,0.0,0.0,0.0,0.0,0.0
78,8.49,-1.76,4.17,-0.01,0.06,-0.03,-25.06,12.0,7.87,0.84,-0.09,-0.54,-0.01,0.078,-0.39337800000000067,-0.38250399999999973,-0.15246600000000043,True,0.0,0.0,0.0,0.0,0.0,0.0
79,8.54,-1.76,4.16,-0.03,0.06,-0.04,-25.06,12.0,7.87,0.84,-0.09,-0.54,-0.01,0.079,-0.36322400000000155,-0.38010399999999955,-0.11107600000000062,True,0.0,0.0,0.0,0.0,0.0,0.0
80,8.54,-1.74,4.2,-0.05,0.03,-0.05,-25.06,12.0,7.87,0.84,-0.09,-0.53,-0.01,0.08,-0.23209000000000168,-0.3514379999999998,-0.19582800000000233,True,0.0,0.0,0.0,0.0,0.0,0.0
81,8.46,-1.48,4.2,-0.06,0.0,-0.05,-25.06,12.0,7.87,0.84,-0.09,-0.53,-0.01,0.081,-0.23753400000000102,-0.1033679999999998,-0.3037600000000005,True,0.0,0.0,0.0,0.0,0.0,0.0
82,8.46,-1.48,4.2,-0.08,-0.02,-0.06,-25.06,12.0,7.87,0.84,-0.09,-0.53,-0.01,0.082,-0.23753400000000102,-0.1033679999999998,-0.3037600000000005,True,0.0,0.0,0.0,0.0,0.0,0.0
83,8.4,-1.25,4.12,-0.07,-0.03,-0.06,-25.06,12.0,7.06,0.84,-0.09,-0.53,-0.01,0.083,-0.16660200000000103,0.1039810000000001,-0.4229660000000006,True,0.0,0.0,0.0,0.0,0.0,0.0
84,8.4,-1.25,4.12,-0.06,-0.04,-0.06,-25.06,12.0,7.06,0.84,-0.09,-0.54,-0.01,0.084,-0.327948000000001,0.10655000000000037,-0.3261800000000008,True,0.0,0.0,0.0,0.0,0.0,0.0
85,8.38,-1.18,4.28,-0.05,-0.03,-0.05,-25.06,12.0,7.06,0.84,-0.09,-0.54,-0.01,0.085,-0.473272000000001,0.2000920000000005,-0.2892279999999996,True,0.0,0.0,0.0,0.0,0.0,0.0
86,8.43,-1.24,4.36,-0.04,-0.02,-0.04,-25.06,12.0,7.06,0.84,-0.09,-0.54,-0.01,0.086,-0.5314440000000014,0.1577320000000002,-0.20287400000000133,True,0.0,0.0,0.0,0.0,0.0,0.0
87,8.43,-1.24,4.36,-0.04,-0.01,-0.02,-25.06,12.0,7.06,0.84,-0.09,-0.54,-0.01,0.087,-0.5314440000000014,0.1577320000000002,-0.20287400000000133,True,0.0,0.0,0.0,0.0,0.0,0.0
88,8.63,-1.56,4.39,-0.06,-0.01,0.02,-26.06,11.25,7.06,0.84,-0.09,-0.53,-0.01,0.088,-0.3417850000000002,-0.13752799999999998,-0.06166499999999964,True,0.0,0.0,0.0,0.0,0.0,0.0
89,8.63,-1.56,4.39,-0.07,-0.02,0.03,-26.06,11.25,7.06,0.84,-0.09,-0.54,-0.01,0.089,-0.5106860000000006,-0.1378079999999997,0.03603399999999901,True,0.0,0.0,0.0,0.0,0.0,0.0
90,8.62,-1.66,4.2,-0.07,-0.03,0.04,-26.06,11.25,7.06,0.84,-0.09,-0.54,-0.01,0.09,-0.3542800000000015,-0.26829199999999975,-0.03615600000000185,True,0.0,0.0,0.0,0.0,0.0,0.0
91,8.61,-1.59,4.05,-0.06,-0.03,0.04,-26.06,11.25,7.06,0.84,-0.09,-0.54,-0.01,0.091,-0.21471000000000107,-0.22416599999999975,-0.11597400000000135,True,0.0,0.0,0.0,0.0,0.0,0.0
92,8.63,-1.51,4.02,-0.04,-0.01,0.05,-25.88,11.56,6.75,0.84,-0.09,-0.54,-0.01,0.092,-0.16998800000000047,-0.1482979999999997,-0.12120600000000081,True,0.0,0.0,0.0,0.0,0.0,0.0
93,8.65,-1.39,4.02,-0.03,0.01,0.04,-25.88,11.56,6.75,0.84,-0.09,-0.54,-0.01,0.093,-0.14786800000000033,-0.028009999999999535,-0.11987400000000115,True,0.0,0.0,0.0,0.0,0.0,0.0
94,8.65,-1.39,4.02,0.01,0.03,0.05,-25.88,11.56,6.75,0.84,-0.09,-0.54,-0.01,0.094,-0.14786800000000033,-0.028009999999999535,-0.11987400000000115,True,0.0,0.0,0.0,0.0,0.0,0.0
95,8.8,-1.04,4.05,0.06,0.03,0.04,-25.88,11.56,6.75,0.84,-0.09,-0.53,-0.01,0.095,0.09224199999999971,0.3295380000000001,-0.12478100000000047,True,0.0,0.0,0.0,0.0,0.0,0.0
96,8.87,-0.94,4.11,0.1,0.03,0.05,-25.88,11.56,6.75,0.84,-0.09,-0.53,-0.01,0.096,0.08043499999999826,0.44257800000000014,-0.05138500000000157,True,0.0,0.0,0.0,0.0,0.0,0.0
97,8.93,-0.9,4.12,0.11,0.01,0.08,-24.87,11.69,7.56,0.84,-0.09,-0.53,-0.01,0.097,0.10199899999999884,0.48804400000000003,0.0006899999999987472,True,0.0,0.0,0.0,0.0,0.0,0.0
98,9.0,-0.98,4.17,0.1,-0.0,0.12,-24.87,11.69,7.56,0.84,-0.09,-0.53,-0.01,0.098,0.07888199999999879,0.4233720000000001,0.0952269999999995,True,0.0,0.0,0.0,0.0,0.0,0.0
99,9.0,-0.98,4.17,0.1,-0.0,0.12,-24.87,11.69,7.56,0.84,-0.09,-0.53,-0.01,0.099,0.07888199999999879,0.4233720000000001,0.0952269999999995,True,0.0,0.0,0.0,0.0,0.0,0.0
100,9.03,-1.17,4.21,0.1,-0.05,0.22,-24.87,11.69,7.56,0.84,-0.09,-0.54,-0.0,0.1,-0.12147300000000127,0.35702100000000037,0.2677589999999981,True,0.0,0.0,0.0,0.0,0.0,0.0
101,8.9,-1.19,4.04,0.12,-0.07,0.24,-25.25,11.56,7.19,0.84,-0.09,-0.54,-0.0,0.101,-0.02406600000000081,0.29889900000000025,0.08384399999999914,True,0.0,0.0,0.0,0.0,0.0,0.0
102,8.81,-1.2,3.93,0.14,-0.07,0.24,-25.25,11.56,7.19,0.84,-0.09,-0.54,0.0,0.102,0.03676499999999905,0.2636280000000004,-0.040941000000000116,True,0.0,0.0,0.0,0.0,0.0,0.0
103,8.73,-1.15,3.81,0.18,-0.06,0.24,-25.25,11.56,7.19,0.84,-0.09,-0.54,0.0,0.103,0.11672099999999919,0.2871630000000004,-0.16978500000000096,True,0.0,0.0,0.0,0.0,0.0,0.0
104,8.74,-0.99,3.71,0.22,-0.04,0.22,-25.25,11.56,7.19,0.84,-0.09,-0.54,0.0,0.104,0.22721399999999914,0.4312710000000002,-0.22549500000000045,True,0.0,0.0,0.0,0.0,0.0,0.0
105,8.83,-1.0,3.7,0.27,-0.01,0.21,-25.25,11.56,7.19,0.84,-0.09,-0.54,0.0,0.105,0.27330299999999896,0.4286160000000002,-0.1463940000000008,True,0.0,0.0,0.0,0.0,0.0,0.0
106,8.83,-1.0,3.7,0.31,0.02,0.21,-24.87,12.69,7.56,0.84,-0.09,-0.54,0.01,0.106,0.2825599999999988,0.5371000000000002,-0.1511180000000003,False,0.0002733029999999992,0.0004286160000000006,-0.00014639400000000094,0.0,0.0,0.0
107,8.96,-1.15,3.83,0.33,0.03,0.21,-24.87,12.69,7.56,0.84,-0.09,-0.53,0.01,0.107,0.3694759999999988,0.41876500000000016,-0.06611300000000142,True,0.0,0.0,0.0,2.7330299999999944e-07,4.28616000000001e-07,-1.4639400000000107e-07
108,8.99,-1.39,3.94,0.33,0.02,0.22,-24.87,12.69,7.56,0.84,-0.09,-0.53,0.01,0.108,0.2654509999999992,0.20280500000000024,0.04521399999999787,True,0.0,0.0,0.0,2.7330299999999944e-07,4.28616000000001e-07,-1.4639400000000107e-07
109,8.99,-1.39,3.94,0.33,0.02,0.22,-24.87,12.69,7.56,0.84,-0.09,-0.53,0.01,0.109,0.2654509999999992,0.20280500000000024,0.04521399999999787,True,0.0,0.0,0.0,2.7330299999999944e-07,4.28616000000001e-07,-1.4639400000000107e-07
110,8.88,-1.67,3.94,0.34,0.01,0.22,-24.87,12.69,7.56,0.84,-0.09,-0.53,0.01,0.11,0.19584599999999908,-0.08346099999999979,-0.007227999999999568,True,0.0,0.0,0.0,2.7330299999999944e-07,4.28616000000001e-07,-1.4639400000000107e-07
111,8.88,-1.67,3.94,0.34,0.01,0.22,-25.25,12.69,7.56,0.84,-0.09,-0.53,0.01,0.111,0.19584599999999908,-0.08346099999999979,-0.007227999999999568,True,0.0,0.0,0.0,2.7330299999999944e-07,4.28616000000001e-07,-1.4639400000000107e-07
112,8.79,-1.61,3.82,0.4,0.05,0.18,-25.25,12.69,7.56,0.84,-0.09,-0.53,0.02,0.112,0.2862179999999981,0.05592999999999987,-0.14452400000000232,True,0.0,0.0,0.0,2.7330299999999944e-07,4.28616000000001e-07,-1.4639400000000107e-07
113,8.81,-1.46,3.76,0.43,0.06,0.15,-25.25,12.69,7.56,0.84,-0.09,-0.53,0.02,0.113,0.35777599999999854,0.19740999999999997,-0.17766800000000238,True,0.0,0.0,0.0,2.7330299999999944e-07,4.28616000000001e-07,-1.4639400000000107e-07
114,8.78,-1.38,3.79,0.44,0.08,0.14,-25.25,12.69,7.56,0.84,-0.08,-0.53,0.02,0.114,0.32414599999999805,0.11659400000000009,-0.21878300000000017,True,0.0,0.0,0.0,2.7330299999999944e-07,4.28616000000001e-07,-1.4639400000000107e-07
115,8.98,-1.26,3.84,0.44,0.1,0.13,-25.25,12.69,7.56,0.84,-0.08,-0.53,0.02,0.115,0.3717499999999987,0.263498,-0.039080000000000226,True,0.0,0.0,0.0,2.7330299999999944e-07,4.28616000000001e-07,-1.4639400000000107e-07
116,9.08,-1.28,3.91,0.43,0.08,0.14,-25.69,12.69,7.56,0.84,-0.08,-0.53,0.02,0.116,0.35124399999999856,0.263668,0.0820609999999995,True,0.0,0.0,0.0,2.7330299999999944e-07,4.28616000000001e-07,-1.4639400000000107e-07
117,9.09,-1.35,4.0,0.41,0.06,0.15,-25.69,12.69,7.56,0.84,-0.08,-0.53,0.02,0.117,0.27154299999999854,0.2064609999999999,0.1395079999999993,True,0.0,0.0,0.0,2.7330299999999944e-07,4.28616000000001e-07,-1.4639400000000107e-07
118,9.09,-1.35,4.0,0.38,0.02,0.18,-25.69,12.69,7.56,0.84,-0.08,-0.53,0.03,0.118,0.28327799999999836,0.31744799999999984,0.14127399999999923,True,0.0,0.0,0.0,2.7330299999999944e-07,4.28616000000001e-07,-1.4639400000000107e-07
119,9.09,-1.48,4.01,0.35,0.01,0.2,-25.69,12.69,7.56,0.84,-0.08,-0.53,0.03,0.119,0.2698539999999987,0.19117799999999996,0.16707199999999922,True,0.0,0.0,0.0,2.7330299999999944e-07,4.28616000000001e-07,-1.4639400000000107e-07
120,9.08,-1.53,3.99,0.33,0.01,0.23,-25.69,12.69,7.56,0.84,-0.08,-0.53,0.03,0.12,0.2817359999999982,0.13881399999999988,0.15814199999999978,True,0.0,0.0,0.0,2.7330299999999944e-07,4.28616000000001e-07,-1.4639400000000107e-07
121,9.03,-1.51,4.01,0.32,0.03,0.24,-24.87,13.19,6.69,0.84,-0.08,-0.53,0.03,0.121,0.24300999999999773,0.15368999999999977,0.11892199999999775,True,0.0,0.0,0.0,2.7330299999999944e-07,4.28616000000001e-07,-1.4639400000000107e-07
122,8.89,-1.49,4.0,0.32,0.02,0.24,-24.87,13.19,6.69,0.84,-0.08,-0.53,0.03,0.122,0.19242199999999876,0.15332,-0.01257800000000131,True,0.0,0.0,0.0,2.7330299999999944e-07,4.28616000000001e-07,-1.4639400000000107e-07
123,8.85,-1.47,4.0,0.32,0.01,0.23,-24.87,13.19,6.69,0.84,-0.07,-0.53,0.04,0.123,0.19350999999999896,0.11159000000000041,-0.05872000000000277,True,0.0,0.0,0.0,2.7330299999999944e-07,4.28616000000001e-07,-1.4639400000000107e-07
124,8.81,-1.47,4.09,0.34,-0.0,0.21,-24.87,13.19,6.69,0.84,-0.07,-0.53,0.04,0.124,0.09574999999999934,0.11270200000000052,-0.05618600000000029,True,0.0,0.0,0.0,2.7330299999999944e-07,4.28616000000001e-07,-1.4639400000000107e-07
125,8.73,-1.54,4.19,0.35,-0.01,0.2,-24.87,13.19,6.69,0.84,-0.07,-0.53,0.04,0.125,-0.02858000000000116,0.04031000000000057,-0.07362999999999964,True,0.0,0.0,0.0,2.7330299999999944e-07,4.28616000000001e-07,-1.4639400000000107e-07
126,8.72,-1.65,4.22,0.35,0.0,0.19,-24.87,13.5,7.19,0.84,-0.07,-0.53,0.04,0.126,-0.060510000000001174,-0.06664799999999937,-0.05223600000000239,True,0.0,0.0,0.0,2.7330299999999944e-07,4.28616000000001e-07,-1.4639400000000107e-07
127,8.72,-1.65,4.22,0.35,0.02,0.18,-24.87,13.5,7.19,0.84,-0.07,-0.53,0.04,0.127,-0.060510000000001174,-0.06664799999999937,-0.05223600000000239,True,0.0,0.0,0.0,2.7330299999999944e-07,4.28616000000001e-07,-1.4639400000000107e-07
128,8.63,-1.78,4.13,0.33,0.02,0.19,-24.87,13.5,7.19,0.84,-0.07,-0.53,0.04,0.128,-0.019300000000000317,-0.21354199999999934,-0.14899400000000185,True,0.0,0.0,0.0,2.7330299999999944e-07,4.28616000000001e-07,-1.4639400000000107e-07
129,8.72,-1.89,4.06,0.31,0.02,0.19,-24.87,13.5,7.19,0.84,-0.07,-0.53,0.04,0.129,0.0811699999999993,-0.31387999999999927,-0.08126000000000211,True,0.0,0.0,0.0,2.7330299999999944e-07,4.28616000000001e-07,-1.4639400000000107e-07
130,8.72,-1.89,4.06,0.31,0.02,0.19,-24.87,13.5,7.19,0.84,-0.07,-0.53,0.05,0.13,0.0993899999999992,-0.20871899999999982,-0.06978000000000151,True,0.0,0.0,0.0,2.7330299999999944e-07,4.28616000000001e-07,-1.4639400000000107e-07
131,8.89,-1.85,4.15,0.28,0.03,0.16,-24.5,13.25,5.56,0.84,-0.07,-0.53,0.05,0.131,0.090838999999999,-0.13684699999999983,0.11158099999999926,True,0.0,0.0,0.0,2.7330299999999944e-07,4.28616000000001e-07,-1.4639400000000107e-07
132,8.89,-1.85,4.15,0.28,0.03,0.16,-24.5,13.25,5.56,0.84,-0.07,-0.53,0.05,0.132,0.090838999999999,-0.13684699999999983,0.11158099999999926,True,0.0,0.0,0.0,2.7330299999999944e-07,4.28616000000001e-07,-1.4639400000000107e-07
133,9.01,-1.46,4.18,0.28,0.03,0.13,-24.5,13.25,5.56,0.84,-0.07,-0.53,0.05,0.133,0.11134699999999897,0.2659240000000001,0.16372399999999843,True,0.0,0.0,0.0,2.7330299999999944e-07,4.28616000000001e-07,-1.4639400000000107e-07
134,8.97,-1.35,4.17,0.28,0.02,0.12,-24.5,13.25,5.56,0.84,-0.07,-0.53,0.05,0.134,0.10215899999999944,0.3666510000000003,0.10539899999999847,True,0.0,0.0,0.0,2.7330299999999944e-07,4.28616000000001e-07,-1.4639400000000107e-07
135,8.93,-1.32,4.14,0.27,0.01,0.13,-24.5,13.25,5.56,0.84,-0.07,-0.53,0.05,0.135,0.111702999999999,0.3877579999999998,0.0522759999999991,True,0.0,0.0,0.0,2.7330299999999944e-07,4.28616000000001e-07,-1.4639400000000107e-07
136,8.81,-1.38,4.04,0.25,-0.0,0.14,-24.87,14.5,4.69,0.84,-0.06,-0.53,0.05,0.136,0.15799399999999952,0.14051600000000028,-0.09484800000000249,True,0.0,0.0,0.0,2.7330299999999944e-07,4.28616000000001e-07,-1.4639400000000107e-07
137,8.79,-1.51,4.02,0.21,-0.0,0.16,-24.87,14.5,4.69,0.84,-0.06,-0.53,0.06,0.137,0.18093299999999957,0.11587700000000004,-0.09113400000000205,True,0.0,0.0,0.0,2.7330299999999944e-07,4.28616000000001e-07,-1.4639400000000107e-07
138,8.74,-1.6,3.98,0.17,-0.0,0.18,-24.87,14.5,4.69,0.84,-0.06,-0.53,0.06,0.138,0.19894999999999952,0.01803200000000002,-0.13748600000000089,True,0.0,0.0,0.0,2.7330299999999944e-07,4.28616000000001e-07,-1.4639400000000107e-07
139,8.74,-1.6,3.98,0.14,0.01,0.19,-24.87,14.5,4.69,0.84,-0.06,-0.53,0.06,0.139,0.19894999999999952,0.01803200000000002,-0.13748600000000089,True,0.0,0.0,0.0,2.7330299999999944e-07,4.28616000000001e-07,-1.4639400000000107e-07
140,8.85,-1.88,4.06,0.11,0.0,0.2,-24.87,14.5,4.69,0.84,-0.06,-0.53,0.06,0.14,0.18427499999999952,-0.23511199999999968,0.03967399999999799,True,0.0,0.0,0.0,2.7330299999999944e-07,4.28616000000001e-07,-1.4639400000000107e-07
141,8.85,-1.88,4.06,0.11,0.0,0.2,-24.56,15.25,4.87,0.84,-0.06,-0.53,0.06,0.141,0.18427499999999952,-0.23511199999999968,0.03967399999999799,True,0.0,0.0,0.0,2.7330299999999944e-07,4.28616000000001e-07,-1.4639400000000107e-07
142,8.89,-1.92,4.16,0.08,-0.02,0.18,-24.56,15.25,4.87,0.84,-0.06,-0.53,0.06,0.142,0.11299099999999918,-0.2639879999999997,0.12404799999999838,True,0.0,0.0,0.0,2.7330299999999944e-07,4.28616000000001e-07,-1.4639400000000107e-07
143,8.85,-1.84,4.22,0.08,-0.03,0.16,-24.56,15.25,4.87,0.84,-0.06,-0.53,0.06,0.143,0.03917099999999962,-0.1899879999999999,0.1010499999999972,True,0.0,0.0,0.0,2.7330299999999944e-07,4.28616000000001e-07,-1.4639400000000107e-07
144,8.8,-1.77,4.26,0.08,-0.04,0.15,-24.56,15.25,4.87,0.84,-0.06,-0.53,0.06,0.144,-0.02057200000000048,-0.12816899999999978,0.062369999999997816,True,0.0,0.0,0.0,2.7330299999999944e-07,4.28616000000001e-07,-1.4639400000000107e-07
145,8.88,-1.62,4.18,0.06,-0.04,0.13,-24.0,16.0,6.19,0.84,-0.06,-0.53,0.06,0.145,0.0796319999999997,0.02890200000000004,0.07438999999999929,True,0.0,0.0,0.0,2.7330299999999944e-07,4.28616000000001e-07,-1.4639400000000107e-07
146,8.88,-1.62,4.18,0.06,-0.04,0.13,-24.0,16.0,6.19,0.84,-0.06,-0.53,0.06,0.146,0.0796319999999997,0.02890200000000004,0.07438999999999929,True,0.0,0.0,0.0,2.7330299999999944e-07,4.28616000000001e-07,-1.4639400000000107e-07
147,8.86,-1.65,4.12,0.02,-0.06,0.13,-24.0,16.0,6.19,0.84,-0.06,-0.53,0.06,0.147,0.12610999999999883,-0.005996999999999947,0.03617599999999754,True,0.0,0.0,0.0,2.7330299999999944e-07,4.28616000000001e-07,-1.4639400000000107e-07
148,8.86,-1.65,4.12,0.0,-0.08,0.13,-24.0,16.0,6.19,0.84,-0.06,-0.53,0.07,0.148,0.13736799999999905,0.10132400000000039,0.04838999999999949,True,0.0,0.0,0.0,2.7330299999999944e-07,4.28616000000001e-07,-1.4639400000000107e-07
149,8.63,-1.79,4.01,-0.0,-0.09,0.12,-24.0,16.0,6.19,0.84,-0.06,-0.53,0.07,0.149,0.1464139999999996,-0.0801979999999996,-0.1768300000000007,True,0.0,0.0,0.0,2.7330299999999944e-07,4.28616000000001e-07,-1.4639400000000107e-07
150,8.63,-1.79,4.01,-0.0,-0.09,0.12,-23.75,16.56,6.69,0.84,-0.07,-0.53,0.07,0.15,0.1330449999999992,0.08097500000000041,-0.1640530000000009,True,0.0,0.0,0.0,2.7330299999999944e-07,4.28616000000001e-07,-1.4639400000000107e-07
151,8.59,-1.86,4.02,0.01,-0.04,0.1,-23.75,16.56,6.69,0.84,-0.07,-0.53,0.07,0.151,0.11009299999999911,0.00536800000000015,-0.18160400000000188,True,0.0,0.0,0.0,2.7330299999999944e-07,4.28616000000001e-07,-1.4639400000000107e-07
152,8.59,-1.86,4.02,0.03,0.0,0.08,-23.75,16.56,6.69,0.84,-0.07,-0.53,0.07,0.152,0.11009299999999911,0.00536800000000015,-0.18160400000000188,True,0.0,0.0,0.0,2.7330299999999944e-07,4.28616000000001e-07,-1.4639400000000107e-07
153,8.76,-1.85,4.12,0.04,0.03,0.06,-23.75,16.56,6.69,0.84,-0.07,-0.53,0.07,0.153,0.09183799999999875,0.052081000000000155,0.008649999999997604,True,0.0,0.0,0.0,2.7330299999999944e-07,4.28616000000001e-07,-1.4639400000000107e-07
154,8.81,-1.82,4.17,0.05,0.04,0.04,-23.75,16.56,6.69,0.84,-0.07,-0.53,0.07,0.154,0.06676099999999874,0.09314200000000039,0.06816099999999814,True,0.0,0.0,0.0,2.7330299999999944e-07,4.28616000000001e-07,-1.4639400000000107e-07
155,8.82,-1.74,4.2,0.05,0.02,0.04,-24.56,16.87,5.87,0.84,-0.07,-0.53,0.07,0.155,0.04052999999999862,0.17449800000000024,0.07436399999999921,True,0.0,0.0,0.0,2.7330299999999944e-07,4.28616000000001e-07,-1.4639400000000107e-07
156,8.74,-1.71,4.21,0.05,0.0,0.04,-24.56,16.87,5.87,0.84,-0.07,-0.53,0.07,0.156,-0.0037500000000014744,0.18888900000000047,0.002408999999998329,True,0.0,0.0,0.0,2.7330299999999944e-07,4.28616000000001e-07,-1.4639400000000107e-07
157,8.7,-1.71,4.19,0.04,-0.01,0.05,-24.56,16.87,5.87,0.84,-0.07,-0.53,0.07,0.157,-0.0027340000000020126,0.18034900000000012,-0.041309000000001816,True,0.0,0.0,0.0,2.7330299999999944e-07,4.28616000000001e-07,-1.4639400000000107e-07
158,8.66,-1.78,4.18,0.02,-0.01,0.06,-24.56,16.87,5.87,0.84,-0.07,-0.53,0.07,0.158,-0.007682000000000855,0.10387400000000052,-0.06735400000000169,True,0.0,0.0,0.0,2.7330299999999944e-07,4.28616000000001e-07,-1.4639400000000107e-07
159,8.66,-1.78,4.18,0.0,-0.01,0.06,-24.56,16.87,5.87,0.84,-0.07,-0.53,0.07,0.159,-0.007682000000000855,0.10387400000000052,-0.06735400000000169,True,0.0,0.0,0.0,2.7330299999999944e-07,4.28616000000001e-07,-1.4639400000000107e-07
160,8.7,-1.94,4.18,-0.01,-0.0,0.06,-24.5,16.5,5.56,0.84,-0.07,-0.53,0.07,0.16,0.016249999999998543,-0.044725999999999766,-0.0014420000000026079,True,0.0,0.0,0.0,2.7330299999999944e-07,4.28616000000001e-07,-1.4639400000000107e-07
161,8.7,-1.94,4.18,-0.01,-0.0,0.06,-24.5,16.5,5.56,0.84,-0.07,-0.53,0.07,0.161,0.016249999999998543,-0.044725999999999766,-0.0014420000000026079,True,0.0,0.0,0.0,2.7330299999999944e-07,4.28616000000001e-07,-1.4639400000000107e-07
162,8.71,-1.92,4.21,0.0,0.0,0.03,-24.5,16.5,5.56,0.84,-0.07,-0.53,0.07,0.162,-0.007377000000001299,-0.021971999999999492,0.016268999999999423,True,0.0,0.0,0.0,2.7330299999999944e-07,4.28616000000001e-07,-1.4639400000000107e-07
163,8.75,-1.85,4.21,0.0,0.0,0.02,-24.5,16.5,5.56,0.84,-0.07,-0.53,0.07,0.163,0.006572999999998608,0.05406900000000031,0.038066999999998075,True,0.0,0.0,0.0,2.7330299999999944e-07,4.28616000000001e-07,-1.4639400000000107e-07
164,8.76,-1.86,4.23,0.0,0.0,0.01,-24.5,16.5,5.56,0.84,-0.07,-0.53,0.07,0.164,-0.006750000000002032,0.0470880000000001,0.057284999999998476,True,0.0,0.0,0.0,2.7330299999999944e-07,4.28616000000001e-07,-1.4639400000000107e-07
165,8.73,-1.85,4.19,-0.0,0.01,0.01,-25.19,16.25,6.5,0.84,-0.07,-0.53,0.07,0.165,0.016082999999998737,0.04936500000000035,0.011960999999997668,True,0.0,0.0,0.0,2.7330299999999944e-07,4.28616000000001e-07,-1.4639400000000107e-07
166,8.73,-1.82,4.23,-0.01,0.01,0.01,-25.19,16.25,6.5,0.84,-0.07,-0.53,0.07,0.166,-0.021227000000001883,0.08040200000000039,0.02319499999999941,True,0.0,0.0,0.0,2.7330299999999944e-07,4.28616000000001e-07,-1.4639400000000107e-07
167,8.74,-1.84,4.17,-0.01,0.01,0.01,-25.19,16.25,6.5,0.84,-0.07,-0.53,0.07,0.167,0.03789999999999871,0.06018200000000051,0.010354999999998782,True,0.0,0.0,0.0,2.7330299999999944e-07,4.28616000000001e-07,-1.4639400000000107e-07
168,8.74,-1.84,4.17,-0.02,0.0,0.01,-25.19,16.25,6.5,0.84,-0.07,-0.53,0.07,0.168,0.03789999999999871,0.06018200000000051,0.010354999999998782,True,0.0,0.0,0.0,2.7330299999999944e-07,4.28616000000001e-07,-1.4639400000000107e-07
169,8.72,-1.87,4.24,-0.02,0.0,0.01,-25.19,16.25,6.5,0.84,-0.07,-0.53,0.07,0.169,-0.0323060000000015,0.030083000000000554,0.028225999999998308,True,0.0,0.0,0.0,2.7330299999999944e-07,4.28616000000001e-07,-1.4639400000000107e-07
170,8.72,-1.87,4.24,-0.02,0.02,0.01,-24.5,17.06,6.87,0.84,-0.07,-0.53,0.07,0.17,-0.0323060000000015,0.030083000000000554,0.028225999999998308,True,0.0,0.0,0.0,2.7330299999999944e-07,4.28616000000001e-07,-1.4639400000000107e-07
171,8.73,-1.88,4.26,-0.02,0.03,0.0,-24.5,17.06,6.87,0.84,-0.07,-0.53,0.07,0.171,-0.04562900000000081,0.02310200000000054,0.04744399999999693,True,0.0,0.0,0.0,2.7330299999999944e-07,4.28616000000001e-07,-1.4639400000000107e-07
172,8.74,-1.88,4.19,-0.02,0.03,-0.01,-24.5,17.06,6.87,0.84,-0.07,-0.53,0.07,0.172,0.02163199999999854,0.02198200000000064,0.02652099999999713,True,0.0,0.0,0.0,2.7330299999999944e-07,4.28616000000001e-07,-1.4639400000000107e-07
173,8.75,-1.85,4.17,-0.02,0.03,-0.01,-24.5,17.06,6.87,0.84,-0.07,-0.53,0.07,0.173,0.04258099999999887,0.052333000000000296,0.021078999999998516,True,0.0,0.0,0.0,2.7330299999999944e-07,4.28616000000001e-07,-1.4639400000000107e-07
174,8.69,-1.78,4.15,-0.01,0.02,-0.02,-24.5,17.06,6.87,0.84,-0.07,-0.53,0.07,0.174,0.03206499999999801,0.10832600000000037,-0.053677000000002195,True,0.0,0.0,0.0,2.7330299999999944e-07,4.28616000000001e-07,-1.4639400000000107e-07
175,8.66,-1.77,4.17,-0.01,0.01,-0.03,-24.87,16.25,6.5,0.84,-0.07,-0.53,0.07,0.175,0.0008859999999986101,0.11320700000000039,-0.073519000000001,True,0.0,0.0,0.0,2.7330299999999944e-07,4.28616000000001e-07,-1.4639400000000107e-07
176,8.67,-1.79,4.18,-0.01,0.02,-0.03,-24.87,16.25,6.5,0.84,-0.07,-0.53,0.07,0.176,-0.0030010000000011416,0.0960250000000003,-0.05663000000000196,True,0.0,0.0,0.0,2.7330299999999944e-07,4.28616000000001e-07,-1.4639400000000107e-07
177,8.73,-1.88,4.23,-0.01,0.02,-0.02,-24.87,16.25,6.5,0.84,-0.07,-0.53,0.07,0.177,-0.01862300000000161,0.02180000000000057,0.034702999999998596,True,0.0,0.0,0.0,2.7330299999999944e-07,4.28616000000001e-07,-1.4639400000000107e-07
178,8.72,-1.91,4.24,-0.03,0.03,-0.01,-24.87,16.25,6.5,0.84,-0.07,-0.53,0.07,0.178,-0.03057000000000132,-0.008984999999999327,0.03589799999999954,True,0.0,0.0,0.0,2.7330299999999944e-07,4.28616000000001e-07,-1.4639400000000107e-07
179,8.75,-1.91,4.26,-0.04,0.04,-0.01,-24.87,16.25,6.5,0.84,-0.07,-0.53,0.07,0.179,-0.035833000000001114,-0.002362999999999532,0.07080999999999982,True,0.0,0.0,0.0,2.7330299999999944e-07,4.28616000000001e-07,-1.4639400000000107e-07
180,8.73,-1.92,4.28,-0.05,0.03,-0.0,-25.06,16.56,5.56,0.84,-0.07,-0.53,0.07,0.18,-0.06189700000000142,-0.015097999999999556,0.06360999999999883,True,0.0,0.0,0.0,2.7330299999999944e-07,4.28616000000001e-07,-1.4639400000000107e-07
181,8.73,-1.92,4.28,-0.05,0.02,-0.02,-25.06,16.56,5.56,0.84,-0.07,-0.53,0.07,0.181,-0.06189700000000142,-0.015097999999999556,0.06360999999999883,True,0.0,0.0,0.0,2.7330299999999944e-07,4.28616000000001e-07,-1.4639400000000107e-07
182,8.71,-1.84,4.17,-0.04,0.01,-0.02,-25.06,16.56,5.56,0.84,-0.07,-0.53,0.07,0.182,0.025158999999999043,0.054428000000000476,-0.016063000000000827,True,0.0,0.0,0.0,2.7330299999999944e-07,4.28616000000001e-07,-1.4639400000000107e-07
183,8.7,-1.79,4.17,-0.03,-0.0,-0.03,-25.06,16.56,5.56,0.84,-0.07,-0.53,0.07,0.183,0.01874199999999826,0.10134500000000013,-0.034459000000001794,True,0.0,0.0,0.0,2.7330299999999944e-07,4.28616000000001e-07,-1.4639400000000107e-07
184,8.69,-1.75,4.21,-0.02,0.01,-0.03,-25.06,16.56,5.56,0.84,-0.07,-0.53,0.07,0.184,-0.02324900000000163,0.14023100000000038,-0.03394900000000156,True,0.0,0.0,0.0,2.7330299999999944e-07,4.28616000000001e-07,-1.4639400000000107e-07
185,8.71,-1.75,4.22,-0.02,0.01,-0.04,-24.87,16.56,6.87,0.84,-0.07,-0.53,0.07,0.185,-0.023757000000000694,0.14450100000000055,-0.012090000000002377,True,0.0,0.0,0.0,2.7330299999999944e-07,4.28616000000001e-07,-1.4639400000000107e-07
186,8.71,-1.76,4.27,-0.01,0.03,-0.04,-24.87,16.56,6.87,0.84,-0.07,-0.53,0.07,0.186,-0.06833300000000042,0.13690400000000044,0.011062999999998269,True,0.0,0.0,0.0,2.7330299999999944e-07,4.28616000000001e-07,-1.4639400000000107e-07
187,8.73,-1.78,4.28,-0.01,0.04,-0.04,-24.87,16.56,6.87,0.84,-0.07,-0.53,0.07,0.187,-0.06797300000000117,0.12164000000000047,0.03675799999999896,True,0.0,0.0,0.0,2.7330299999999944e-07,4.28616000000001e-07,-1.4639400000000107e-07
188,8.73,-1.78,4.28,-0.01,0.02,-0.04,-24.87,16.56,6.87,0.84,-0.07,-0.53,0.07,0.188,-0.06797300000000117,0.12164000000000047,0.03675799999999896,True,0.0,0.0,0.0,2.7330299999999944e-07,4.28616000000001e-07,-1.4639400000000107e-07
189,8.77,-1.76,4.35,-0.04,-0.05,-0.01,-24.87,16.87,6.87,0.84,-0.07,-0.53,0.07,0.189,-0.11486700000000116,0.1518840000000003,0.0978749999999966,True,0.0,0.0,0.0,2.7330299999999944e-07,4.28616000000001e-07,-1.4639400000000107e-07
190,8.77,-1.76,4.35,-0.04,-0.05,-0.01,-24.87,16.87,6.87,0.84,-0.07,-0.53,0.07,0.19,-0.11486700000000116,0.1518840000000003,0.0978749999999966,True,0.0,0.0,0.0,2.7330299999999944e-07,4.28616000000001e-07,-1.4639400000000107e-07
191,8.66,-1.79,4.28,-0.05,-0.06,0.01,-24.87,16.87,6.87,0.84,-0.07,-0.53,0.07,0.191,-0.09726800000000146,0.09844700000000045,-0.02296600000000204,True,0.0,0.0,0.0,2.7330299999999944e-07,4.28616000000001e-07,-1.4639400000000107e-07
192,8.64,-1.82,4.37,-0.04,-0.04,0.01,-24.87,16.87,6.87,0.84,-0.07,-0.53,0.07,0.192,-0.18547800000000159,0.06921600000000047,0.00339899999999993,True,0.0,0.0,0.0,2.7330299999999944e-07,4.28616000000001e-07,-1.4639400000000107e-07
193,8.73,-1.83,4.34,-0.03,-0.02,0.01,-24.87,16.87,6.87,0.84,-0.07,-0.53,0.07,0.193,-0.11981500000000089,0.07540900000000028,0.0718299999999985,True,0.0,0.0,0.0,2.7330299999999944e-07,4.28616000000001e-07,-1.4639400000000107e-07
194,8.75,-1.86,4.36,0.0,0.0,0.01,-24.5,16.06,7.0,0.84,-0.07,-0.53,0.07,0.194,-0.12802300000000155,0.05081200000000022,0.1036899999999985,True,0.0,0.0,0.0,2.7330299999999944e-07,4.28616000000001e-07,-1.4639400000000107e-07
195,8.78,-1.86,4.44,0.02,0.01,0.01,-24.5,16.06,7.0,0.84,-0.07,-0.53,0.07,0.195,-0.18729800000000196,0.060038000000000036,0.16408399999999723,True,0.0,0.0,0.0,2.7330299999999944e-07,4.28616000000001e-07,-1.4639400000000107e-07
196,8.91,-1.86,4.48,0.02,-0.02,0.01,-24.5,16.06,7.0,0.84,-0.07,-0.53,0.07,0.196,-0.16809500000000144,0.08670800000000028,0.29554999999999687,True,0.0,0.0,0.0,2.7330299999999944e-07,4.28616000000001e-07,-1.4639400000000107e-07
197,8.91,-1.86,4.48,0.01,-0.06,0.02,-24.5,16.06,7.0,0.84,-0.07,-0.53,0.07,0.197,-0.16809500000000144,0.08670800000000028,0.29554999999999687,True,0.0,0.0,0.0,2.7330299999999944e-07,4.28616000000001e-07,-1.4639400000000107e-07
198,8.87,-1.69,4.2,-0.01,-0.09,0.03,-24.5,16.06,7.0,0.84,-0.07,-0.53,0.07,0.198,0.05959499999999851,0.2329230000000004,0.10880399999999746,True,0.0,0.0,0.0,2.7330299999999944e-07,4.28616000000001e-07,-1.4639400000000107e-07
199,8.87,-1.69,4.2,-0.01,-0.09,0.03,-24.5,16.87,7.0,0.84,-0.07,-0.53,0.07,0.199,0.05959499999999851,0.2329230000000004,0.10880399999999746,True,0.0,0.0,0.0,2.7330299999999944e-07,4.28616000000001e-07,-1.4639400000000107e-07
200,8.55,-1.71,3.77,-0.01,-0.09,0.04,-24.5,16.87,7.0,0.84,-0.07,-0.53,0.07,0.2,0.31164499999999906,0.13335100000000039,-0.35177300000000145,True,0.0,0.0,0.0,2.7330299999999944e-07,4.28616000000001e-07,-1.4639400000000107e-07
201,8.63,-1.71,3.94,0.02,-0.05,0.03,-24.5,16.87,7.0,0.84,-0.07,-0.53,0.07,0.201,0.19258699999999918,0.1560730000000004,-0.20912600000000126,True,0.0,0.0,0.0,2.7330299999999944e-07,4.28616000000001e-07,-1.4639400000000107e-07
202,8.73,-1.7,4.16,0.03,0.01,0.03,-24.5,16.87,7.0,0.84,-0.07,-0.53,0.07,0.202,0.03657899999999881,0.19456800000000046,-0.029550000000002186,True,0.0,0.0,0.0,2.7330299999999944e-07,4.28616000000001e-07,-1.4639400000000107e-07
203,8.86,-1.7,4.33,0.04,0.04,0.04,-25.0,16.87,6.5,0.84,-0.07,-0.53,0.07,0.203,-0.061244000000001186,0.22688000000000025,0.15712699999999913,True,0.0,0.0,0.0,2.7330299999999944e-07,4.28616000000001e-07,-1.4639400000000107e-07
204,8.87,-1.76,4.52,0.03,0.03,0.05,-25.0,16.87,6.5,0.84,-0.07,-0.53,0.07,0.204,-0.22543100000000127,0.17844200000000027,0.2581339999999983,True,0.0,0.0,0.0,2.7330299999999944e-07,4.28616000000001e-07,-1.4639400000000107e-07
205,8.83,-1.78,4.47,0.03,-0.01,0.06,-25.0,16.87,6.5,0.84,-0.07,-0.53,0.07,0.205,-0.19654100000000074,0.14906600000000045,0.20551099999999778,True,0.0,0.0,0.0,2.7330299999999944e-07,4.28616000000001e-07,-1.4639400000000107e-07
206,8.75,-1.77,4.34,0.04,-0.06,0.06,-25.0,16.87,6.5,0.84,-0.07,-0.53,0.07,0.206,-0.11392500000000139,0.13784700000000027,0.07793399999999906,True,0.0,0.0,0.0,2.7330299999999944e-07,4.28616000000001e-07,-1.4639400000000107e-07
207,8.57,-1.78,4.11,0.04,-0.09,0.05,-25.0,16.87,6.5,0.84,-0.07,-0.53,0.07,0.207,0.01710899999999871,0.08357400000000043,-0.17633700000000196,True,0.0,0.0,0.0,2.7330299999999944e-07,4.28616000000001e-07,-1.4639400000000107e-07
208,8.57,-1.78,4.11,0.05,-0.08,0.04,-25.25,16.06,6.5,0.84,-0.07,-0.53,0.07,0.208,0.01710899999999871,0.08357400000000043,-0.17633700000000196,True,0.0,0.0,0.0,2.7330299999999944e-07,4.28616000000001e-07,-1.4639400000000107e-07
209,8.48,-1.78,4.01,0.06,-0.05,0.03,-25.25,16.06,6.5,0.84,-0.07,-0.53,0.07,0.209,0.06890599999999925,0.06197200000000053,-0.29806100000000235,True,0.0,0.0,0.0,2.7330299999999944e-07,4.28616000000001e-07,-1.4639400000000107e-07
210,8.49,-1.81,3.96,0.06,-0.02,0.02,-25.25,16.06,6.5,0.84,-0.07,-0.53,0.07,0.21,0.1194649999999986,0.03241900000000039,-0.3047360000000019,True,0.0,0.0,0.0,2.7330299999999944e-07,4.28616000000001e-07,-1.4639400000000107e-07
211,8.49,-1.81,3.96,0.05,0.0,0.01,-25.25,16.06,6.5,0.84,-0.07,-0.53,0.07,0.211,0.1194649999999986,0.03241900000000039,-0.3047360000000019,True,0.0,0.0,0.0,2.7330299999999944e-07,4.28616000000001e-07,-1.4639400000000107e-07
212,8.74,-1.82,4.12,0.03,-0.01,0.02,-25.25,16.06,6.5,0.84,-0.07,-0.53,0.07,0.212,0.08204199999999862,0.07754600000000045,-0.014716000000001728,True,0.0,0.0,0.0,2.7330299999999944e-07,4.28616000000001e-07,-1.4639400000000107e-07
213,8.74,-1.82,4.12,0.01,-0.02,0.02,-24.19,16.37,6.5,0.84,-0.07,-0.53,0.07,0.213,0.08204199999999862,0.07754600000000045,-0.014716000000001728,True,0.0,0.0,0.0,2.7330299999999944e-07,4.28616000000001e-07,-1.4639400000000107e-07
214,8.96,-1.93,4.16,-0.0,-0.03,0.03,-24.19,16.37,6.5,0.84,-0.07,-0.53,0.07,0.214,0.14424199999999887,0.014041000000000803,0.2171019999999988,True,0.0,0.0,0.0,2.7330299999999944e-07,4.28616000000001e-07,-1.4639400000000107e-07
215,8.99,-1.94,4.15,-0.01,-0.03,0.03,-24.19,16.37,6.5,0.84,-0.07,-0.53,0.07,0.215,0.1664189999999981,0.009594000000000547,0.24119099999999882,True,0.0,0.0,0.0,2.7330299999999944e-07,4.28616000000001e-07,-1.4639400000000107e-07
216,8.99,-1.94,4.15,-0.01,-0.03,0.03,-24.19,16.37,6.5,0.84,-0.07,-0.53,0.07,0.216,0.1664189999999981,0.009594000000000547,0.24119099999999882,True,0.0,0.0,0.0,2.7330299999999944e-07,4.28616000000001e-07,-1.4639400000000107e-07
217,8.98,-1.91,4.21,-0.01,-0.03,0.03,-24.19,16.37,6.5,0.84,-0.07,-0.53,0.07,0.217,0.10685799999999857,0.03958100000000048,0.2521129999999996,True,0.0,0.0,0.0,2.7330299999999944e-07,4.28616000000001e-07,-1.4639400000000107e-07
218,8.98,-1.91,4.21,0.0,-0.0,0.01,-24.87,16.37,6.5,0.84,-0.07,-0.53,0.07,0.218,0.10685799999999857,0.03958100000000048,0.2521129999999996,True,0.0,0.0,0.0,2.7330299999999944e-07,4.28616000000001e-07,-1.4639400000000107e-07
219,8.91,-1.74,4.21,0.01,0.01,0.0,-24.87,16.37,6.5,0.84,-0.07,-0.53,0.07,0.219,0.06975099999999834,0.19219400000000036,0.15786499999999748,True,0.0,0.0,0.0,2.7330299999999944e-07,4.28616000000001e-07,-1.4639400000000107e-07
220,8.86,-1.73,4.12,0.02,0.02,0.0,-24.87,16.37,6.5,0.84,-0.07,-0.53,0.07,0.22,0.12909999999999888,0.18846500000000022,0.07369399999999793,True,0.0,0.0,0.0,2.7330299999999944e-07,4.28616000000001e-07,-1.4639400000000107e-07
221,8.86,-1.71,4.08,0.02,0.02,0.01,-24.87,16.37,6.5,0.84,-0.07,-0.53,0.07,0.221,0.1642399999999986,0.20626300000000017,0.05286999999999864,True,0.0,0.0,0.0,2.7330299999999944e-07,4.28616000000001e-07,-1.4639400000000107e-07
222,8.84,-1.73,4.02,0.0,0.0,0.02,-24.87,16.37,6.5,0.84,-0.07,-0.53,0.07,0.222,0.2106259999999991,0.18028900000000025,0.013611999999998403,True,0.0,0.0,0.0,2.7330299999999944e-07,4.28616000000001e-07,-1.4639400000000107e-07
223,8.84,-1.78,3.97,-0.02,-0.02,0.04,-23.75,16.0,7.0,0.84,-0.07,-0.53,0.07,0.223,0.2578059999999982,0.12928400000000032,0.0019669999999987198,True,0.0,0.0,0.0,2.7330299999999944e-07,4.28616000000001e-07,-1.4639400000000107e-07
224,8.87,-1.86,3.92,-0.04,-0.04,0.06,-23.75,16.0,7.0,0.84,-0.07,-0.53,0.07,0.224,0.3190289999999987,0.05473200000000014,0.022493999999998238,True,0.0,0.0,0.0,2.7330299999999944e-07,4.28616000000001e-07,-1.4639400000000107e-07
225,8.92,-1.92,3.87,-0.06,-0.05,0.07,-23.75,16.0,7.0,0.84,-0.07,-0.53,0.07,0.225,0.3878779999999984,0.003550000000000303,0.056796999999997766,True,0.0,0.0,0.0,2.7330299999999944e-07,4.28616000000001e-07,-1.4639400000000107e-07
226,8.93,-1.92,3.91,-0.06,-0.06,0.07,-23.75,16.0,7.0,0.84,-0.07,-0.53,0.07,0.226,0.35611699999999846,0.0072040000000004045,0.08259099999999897,True,0.0,0.0,0.0,2.7330299999999944e-07,4.28616000000001e-07,-1.4639400000000107e-07
227,8.95,-1.89,3.93,-0.06,-0.05,0.06,-23.75,16.0,7.0,0.84,-0.07,-0.53,0.07,0.227,0.3453049999999984,0.041209000000000384,0.10294299999999623,True,0.0,0.0,0.0,2.7330299999999944e-07,4.28616000000001e-07,-1.4639400000000107e-07
228,9.04,-1.87,3.9,-0.05,-0.06,0.05,-24.5,16.06,7.25,0.84,-0.07,-0.53,0.07,0.228,0.4096659999999983,0.07670300000000019,0.165619999999997,True,0.0,0.0,0.0,2.7330299999999944e-07,4.28616000000001e-07,-1.4639400000000107e-07
229,9.04,-1.87,3.9,-0.06,-0.07,0.04,-24.5,16.06,7.25,0.84,-0.07,-0.53,0.07,0.229,0.4096659999999983,0.07670300000000019,0.165619999999997,True,0.0,0.0,0.0,2.7330299999999944e-07,4.28616000000001e-07,-1.4639400000000107e-07
230,9.01,-1.97,3.83,-0.07,-0.09,0.05,-24.5,16.06,7.25,0.84,-0.07,-0.54,0.07,0.23,0.3007699999999982,-0.043585999999999486,0.24179799999999751,True,0.0,0.0,0.0,2.7330299999999944e-07,4.28616000000001e-07,-1.4639400000000107e-07
231,8.99,-1.98,3.8,-0.09,-0.09,0.05,-24.5,16.06,7.25,0.84,-0.07,-0.54,0.07,0.231,0.32041999999999904,-0.058583999999999525,0.21336200000000005,True,0.0,0.0,0.0,2.7330299999999944e-07,4.28616000000001e-07,-1.4639400000000107e-07
232,9.18,-2.04,3.94,-0.11,-0.05,0.05,-24.5,16.06,7.25,0.84,-0.07,-0.54,0.07,0.232,0.27321999999999846,-0.07523999999999961,0.4534199999999995,True,0.0,0.0,0.0,2.7330299999999944e-07,4.28616000000001e-07,-1.4639400000000107e-07
233,9.18,-2.04,3.94,-0.12,0.07,0.04,-24.19,16.87,7.25,0.84,-0.07,-0.54,0.07,0.233,0.27321999999999846,-0.07523999999999961,0.4534199999999995,True,0.0,0.0,0.0,2.7330299999999944e-07,4.28616000000001e-07,-1.4639400000000107e-07
234,9.37,-2.3,3.83,-0.14,0.22,0.05,-24.19,16.87,7.25,0.84,-0.07,-0.53,0.07,0.234,0.6314929999999985,-0.28302199999999955,0.5089629999999978,True,0.0,0.0,0.0,2.7330299999999944e-07,4.28616000000001e-07,-1.4639400000000107e-07
235,9.45,-2.33,3.76,-0.12,0.32,0.04,-24.19,16.87,7.25,0.84,-0.07,-0.53,0.07,0.235,0.7297849999999988,-0.30001699999999976,0.5554359999999985,True,0.0,0.0,0.0,2.7330299999999944e-07,4.28616000000001e-07,-1.4639400000000107e-07
236,9.45,-2.33,3.76,-0.04,0.32,0.0,-24.19,16.87,7.25,0.84,-0.07,-0.53,0.07,0.236,0.7297849999999988,-0.30001699999999976,0.5554359999999985,True,0.0,0.0,0.0,2.7330299999999944e-07,4.28616000000001e-07,-1.4639400000000107e-07
237,9.26,-2.09,3.96,0.06,0.25,-0.05,-24.19,16.87,7.25,0.84,-0.07,-0.53,0.07,0.237,0.45863599999999893,-0.09337099999999945,0.42702999999999847,True,0.0,0.0,0.0,2.7330299999999944e-07,4.28616000000001e-07,-1.4639400000000107e-07
238,9.26,-2.09,3.96,0.06,0.25,-0.05,-23.75,16.5,6.5,0.84,-0.07,-0.53,0.07,0.238,0.45863599999999893,-0.09337099999999945,0.42702999999999847,True,0.0,0.0,0.0,2.7330299999999944e-07,4.28616000000001e-07,-1.4639400000000107e-07
239,9.21,-1.63,3.89,0.19,0.06,-0.13,-23.75,16.5,6.5,0.84,-0.07,-0.53,0.07,0.239,0.48045099999999863,0.3432830000000007,0.2650429999999986,True,0.0,0.0,0.0,2.7330299999999944e-07,4.28616000000001e-07,-1.4639400000000107e-07
240,9.31,-1.61,3.81,0.19,-0.0,-0.13,-23.75,16.5,6.5,0.84,-0.07,-0.53,0.07,0.24,0.5940689999999993,0.37852500000000044,0.31529099999999843,True,0.0,0.0,0.0,2.7330299999999944e-07,4.28616000000001e-07,-1.4639400000000107e-07
241,9.42,-1.59,3.74,0.16,-0.06,-0.12,-23.75,16.5,6.5,0.84,-0.07,-0.53,0.07,0.241,0.7029319999999979,0.41611900000000024,0.3785919999999994,True,0.0,0.0,0.0,2.7330299999999944e-07,4.28616000000001e-07,-1.4639400000000107e-07
242,9.51,-1.6,3.66,0.1,-0.11,-0.09,-23.75,16.5,6.5,0.84,-0.07,-0.53,0.07,0.242,0.8136049999999986,0.42014200000000024,0.42578799999999717,True,0.0,0.0,0.0,2.7330299999999944e-07,4.28616000000001e-07,-1.4639400000000107e-07
243,9.55,-1.65,3.67,0.04,-0.17,-0.05,-24.87,16.5,6.5,0.84,-0.07,-0.53,0.07,0.243,0.8237609999999989,0.3794130000000006,0.47484899999999897,True,0.0,0.0,0.0,2.7330299999999944e-07,4.28616000000001e-07,-1.4639400000000107e-07
244,9.4,-1.79,3.74,-0.02,-0.24,0.06,-24.87,16.5,6.5,0.84,-0.07,-0.53,0.07,0.244,0.703117999999999,0.2169430000000004,0.3993400000000005,True,0.0,0.0,0.0,2.7330299999999944e-07,4.28616000000001e-07,-1.4639400000000107e-07
245,9.4,-1.79,3.74,-0.01,-0.26,0.1,-24.87,16.5,6.5,0.84,-0.07,-0.54,0.07,0.245,0.5371999999999986,0.2057140000000005,0.5197479999999999,True,0.0,0.0,0.0,2.7330299999999944e-07,4.28616000000001e-07,-1.4639400000000107e-07
246,9.06,-1.94,3.69,0.0,-0.27,0.1,-24.87,16.5,6.5,0.84,-0.07,-0.54,0.07,0.246,0.44858999999999893,-0.010183999999999443,0.2229119999999991,True,0.0,0.0,0.0,2.7330299999999944e-07,4.28616000000001e-07,-1.4639400000000107e-07
247,9.06,-1.94,3.69,0.02,-0.3,0.09,-25.19,15.75,7.0,0.84,-0.07,-0.54,0.07,0.247,0.44858999999999893,-0.010183999999999443,0.2229119999999991,True,0.0,0.0,0.0,2.7330299999999944e-07,4.28616000000001e-07,-1.4639400000000107e-07
248,9.08,-1.97,3.52,0.02,-0.34,0.06,-25.19,15.75,7.0,0.84,-0.07,-0.54,0.07,0.248,0.6140199999999987,-0.04308199999999959,0.17627599999999788,True,0.0,0.0,0.0,2.7330299999999944e-07,4.28616000000001e-07,-1.4639400000000107e-07
249,9.18,-1.94,3.22,0.0,-0.4,0.02,-25.19,15.75,7.0,0.84,-0.07,-0.54,0.07,0.249,0.9292599999999984,-0.006739999999999552,0.13601999999999848,True,0.0,0.0,0.0,2.7330299999999944e-07,4.28616000000001e-07,-1.4639400000000107e-07
250,9.18,-1.94,3.22,0.0,-0.4,0.02,-25.19,15.75,7.0,0.83,-0.07,-0.54,0.07,0.25,0.8080139999999991,0.008298000000000277,-0.019614000000000686,True,0.0,0.0,0.0,2.7330299999999944e-07,4.28616000000001e-07,-1.4639400000000107e-07
251,9.18,-1.91,3.05,-0.08,-0.55,-0.0,-25.19,15.75,7.0,0.83,-0.07,-0.55,0.07,0.251,0.8074839999999992,0.018280000000000393,0.028907999999997713,True,0.0,0.0,0.0,2.7330299999999944e-07,4.28616000000001e-07,-1.4639400000000107e-07
252,9.18,-1.91,3.05,-0.08,-0.55,-0.0,-24.5,16.5,7.69,0.83,-0.07,-0.55,0.07,0.252,0.8074839999999992,0.018280000000000393,0.028907999999997713,True,0.0,0.0,0.0,2.7330299999999944e-07,4.28616000000001e-07,-1.4639400000000107e-07
253,8.95,-1.91,2.98,-0.11,-0.67,0.04,-24.5,16.5,7.69,0.83,-0.07,-0.55,0.07,0.253,0.7832079999999988,-0.028899999999999745,-0.20587600000000172,True,0.0,0.0,0.0,2.7330299999999944e-07,4.28616000000001e-07,-1.4639400000000107e-07
254,8.89,-1.93,3.06,-0.12,-0.67,0.06,-24.5,16.5,7.69,0.83,-0.07,-0.55,0.07,0.254,0.6869839999999989,-0.056987999999999206,-0.22529200000000138,True,0.0,0.0,0.0,2.7330299999999944e-07,4.28616000000001e-07,-1.4639400000000107e-07
255,8.85,-1.95,3.14,-0.11,-0.62,0.08,-24.5,16.5,7.69,0.82,-0.07,-0.56,0.07,0.255,0.331811999999998,-0.07947399999999959,-0.2655180000000019,True,0.0,0.0,0.0,2.7330299999999944e-07,4.28616000000001e-07,-1.4639400000000107e-07
256,8.9,-1.97,3.23,-0.1,-0.55,0.09,-24.5,16.5,7.69,0.82,-0.07,-0.56,0.07,0.256,0.26694199999999846,-0.0860619999999997,-0.1839320000000022,True,0.0,0.0,0.0,2.7330299999999944e-07,4.28616000000001e-07,-1.4639400000000107e-07
257,8.99,-1.94,3.25,-0.09,-0.49,0.08,-24.25,16.87,9.0,0.82,-0.07,-0.56,0.07,0.257,0.2795779999999981,-0.038659999999999584,-0.10077800000000003,True,0.0,0.0,0.0,2.7330299999999944e-07,4.28616000000001e-07,-1.4639400000000107e-07
258,9.06,-1.91,3.19,-0.07,-0.46,0.06,-24.25,16.87,9.0,0.82,-0.07,-0.56,0.07,0.258,0.35929399999999845,0.0019660000000004257,-0.06450000000000067,True,0.0,0.0,0.0,2.7330299999999944e-07,4.28616000000001e-07,-1.4639400000000107e-07
259,9.27,-1.87,3.11,-0.06,-0.46,0.04,-24.25,16.87,9.0,0.82,-0.07,-0.57,0.07,0.259,0.3490690000000001,0.0661670000000002,0.20937699999999637,True,0.0,0.0,0.0,2.7330299999999944e-07,4.28616000000001e-07,-1.4639400000000107e-07
260,9.29,-1.86,3.07,-0.07,-0.5,0.04,-24.25,16.87,9.0,0.82,-0.07,-0.57,0.07,0.26,0.3934529999999996,0.07853400000000006,0.21203099999999608,True,0.0,0.0,0.0,2.7330299999999944e-07,4.28616000000001e-07,-1.4639400000000107e-07
261,9.32,-1.81,3.1,-0.07,-0.53,0.04,-24.25,16.87,9.0,0.82,-0.07,-0.57,0.07,0.261,0.3737899999999992,0.13479700000000025,0.24047599999999747,True,0.0,0.0,0.0,2.7330299999999944e-07,4.28616000000001e-07,-1.4639400000000107e-07
262,9.39,-1.82,3.1,-0.08,-0.55,0.05,-24.87,16.5,7.69,0.82,-0.07,-0.57,0.07,0.262,0.3984649999999994,0.1385440000000002,0.3071719999999978,True,0.0,0.0,0.0,2.7330299999999944e-07,4.28616000000001e-07,-1.4639400000000107e-07
263,9.39,-1.82,3.1,-0.09,-0.56,0.06,-24.87,16.5,7.69,0.81,-0.07,-0.57,0.07,0.263,0.27820000000000134,0.1507240000000001,0.14704799999999985,True,0.0,0.0,0.0,2.7330299999999944e-07,4.28616000000001e-07,-1.4639400000000107e-07
264,9.48,-1.85,3.2,-0.09,-0.55,0.07,-24.87,16.5,7.69,0.81,-0.07,-0.57,0.07,0.264,0.21569600000000122,0.14233600000000024,0.2681880000000003,True,0.0,0.0,0.0,2.7330299999999944e-07,4.28616000000001e-07,-1.4639400000000107e-07
265,9.48,-1.87,3.26,-0.09,-0.52,0.09,-24.87,16.5,7.69,0.81,-0.07,-0.58,0.08,0.265,0.007436000000001997,0.2306960000000005,0.4239379999999997,True,0.0,0.0,0.0,2.7330299999999944e-07,4.28616000000001e-07,-1.4639400000000107e-07
266,9.42,-1.84,3.33,-0.07,-0.51,0.09,-24.87,16.5,7.69,0.81,-0.07,-0.58,0.08,0.266,-0.0796639999999984,0.24892600000000034,0.3845320000000001,True,0.0,0.0,0.0,2.7330299999999944e-07,4.28616000000001e-07,-1.4639400000000107e-07
267,9.37,-1.78,3.25,-0.05,-0.51,0.09,-24.37,17.5,10.88,0.81,-0.07,-0.58,0.08,0.267,-0.0224139999999986,0.29561000000000015,0.30004399999999976,True,0.0,0.0,0.0,2.7330299999999944e-07,4.28616000000001e-07,-1.4639400000000107e-07
268,9.34,-1.71,3.17,-0.01,-0.54,0.08,-24.37,17.5,10.88,0.81,-0.07,-0.58,0.08,0.268,0.04071600000000153,0.35632200000000036,0.2320619999999991,True,0.0,0.0,0.0,2.7330299999999944e-07,4.28616000000001e-07,-1.4639400000000107e-07
269,9.33,-1.65,3.06,0.01,-0.59,0.06,-24.37,17.5,10.88,0.8,-0.07,-0.58,0.08,0.269,0.021861000000001685,0.41817299999999985,0.015270000000001005,True,0.0,0.0,0.0,2.7330299999999944e-07,4.28616000000001e-07,-1.4639400000000107e-07
270,9.23,-1.62,2.77,0.03,-0.62,0.05,-24.37,17.5,10.88,0.8,-0.07,-0.59,0.08,0.27,0.10803600000000202,0.410174,-0.053170000000001494,True,0.0,0.0,0.0,2.7330299999999944e-07,4.28616000000001e-07,-1.4639400000000107e-07
271,9.16,-1.66,2.67,0.05,-0.63,0.04,-24.37,17.5,10.88,0.8,-0.07,-0.59,0.08,0.271,0.18504400000000176,0.35460000000000014,-0.13954999999999984,True,0.0,0.0,0.0,2.7330299999999944e-07,4.28616000000001e-07,-1.4639400000000107e-07
272,9.1,-1.79,2.6,0.06,-0.64,0.04,-25.25,17.5,11.06,0.8,-0.07,-0.59,0.08,0.272,0.24038600000000132,0.21374799999999985,-0.18922400000000117,True,0.0,0.0,0.0,2.7330299999999944e-07,4.28616000000001e-07,-1.4639400000000107e-07
273,9.06,-1.91,2.59,0.06,-0.63,0.05,-25.25,17.5,11.06,0.8,-0.07,-0.59,0.08,0.273,0.24377000000000182,0.0879320000000001,-0.20470199999999927,True,0.0,0.0,0.0,2.7330299999999944e-07,4.28616000000001e-07,-1.4639400000000107e-07
274,9.06,-1.91,2.59,0.07,-0.59,0.07,-25.25,17.5,11.06,0.8,-0.07,-0.6,0.08,0.274,0.09184200000000153,0.073743,-0.08750700000000045,True,0.0,0.0,0.0,2.7330299999999944e-07,4.28616000000001e-07,-1.4639400000000107e-07
275,8.99,-2.13,2.86,0.08,-0.53,0.09,-25.25,17.5,11.06,0.79,-0.07,-0.6,0.08,0.275,-0.29222599999999854,-0.1388119999999998,-0.18849400000000038,True,0.0,0.0,0.0,2.7330299999999944e-07,4.28616000000001e-07,-1.4639400000000107e-07
276,9.01,-2.14,3.03,0.1,-0.47,0.1,-25.25,17.5,11.06,0.79,-0.07,-0.6,0.08,0.276,-0.4496139999999986,-0.1418500000000002,-0.12254000000000076,True,0.0,0.0,0.0,2.7330299999999944e-07,4.28616000000001e-07,-1.4639400000000107e-07
277,9.16,-2.06,3.22,0.14,-0.43,0.1,-25.0,17.06,11.0,0.79,-0.07,-0.6,0.08,0.277,-0.5958639999999988,-0.02969200000000005,0.051916000000000295,True,0.0,0.0,0.0,2.7330299999999944e-07,4.28616000000001e-07,-1.4639400000000107e-07
278,9.21,-2.05,3.19,0.18,-0.43,0.08,-25.0,17.06,11.0,0.79,-0.07,-0.6,0.08,0.278,-0.5543819999999982,-0.009881999999999565,0.08872200000000063,True,0.0,0.0,0.0,2.7330299999999944e-07,4.28616000000001e-07,-1.4639400000000107e-07
279,9.18,-2.03,3.05,0.2,-0.48,0.05,-25.0,17.06,11.0,0.79,-0.07,-0.61,0.08,0.279,-0.5909299999999988,-0.01537299999999979,0.13068900000000028,True,0.0,0.0,0.0,2.7330299999999944e-07,4.28616000000001e-07,-1.4639400000000107e-07
280,9.18,-1.99,2.95,0.2,-0.54,0.04,-25.0,17.06,11.0,0.79,-0.07,-0.61,0.08,0.28,-0.49506999999999923,0.02272299999999998,0.09701100000000018,True,0.0,0.0,0.0,2.7330299999999944e-07,4.28616000000001e-07,-1.4639400000000107e-07
281,9.01,-1.97,2.71,0.19,-0.59,0.03,-25.0,17.06,11.0,0.79,-0.07,-0.61,0.09,0.281,-0.29245999999999883,0.1159399999999996,-0.11390800000000034,True,0.0,0.0,0.0,2.7330299999999944e-07,4.28616000000001e-07,-1.4639400000000107e-07
282,9.12,-1.86,2.62,0.16,-0.61,0.05,-27.0,17.19,12.0,0.78,-0.07,-0.61,0.09,0.282,-0.2980319999999992,0.2581739999999996,-0.2114900000000013,True,0.0,0.0,0.0,2.7330299999999944e-07,4.28616000000001e-07,-1.4639400000000107e-07
283,9.07,-2.08,2.44,0.12,-0.56,0.05,-27.0,17.19,12.0,0.78,-0.07,-0.61,0.09,0.283,-0.12403099999999911,0.03414200000000009,-0.2533700000000003,True,0.0,0.0,0.0,2.7330299999999944e-07,4.28616000000001e-07,-1.4639400000000107e-07
284,8.92,-2.22,2.29,0.12,-0.49,0.02,-27.0,17.19,12.0,0.78,-0.07,-0.62,0.09,0.284,-0.15521399999999952,-0.15402800000000028,-0.2845039999999983,True,0.0,0.0,0.0,2.7330299999999944e-07,4.28616000000001e-07,-1.4639400000000107e-07
285,8.96,-2.23,2.3,0.12,-0.49,0.03,-27.0,17.19,12.0,0.78,-0.07,-0.62,0.09,0.285,-0.15564399999999923,-0.1547619999999996,-0.24183999999999806,True,0.0,0.0,0.0,2.7330299999999944e-07,4.28616000000001e-07,-1.4639400000000107e-07
286,8.96,-2.23,2.3,0.13,-0.45,0.05,-27.0,17.19,12.0,0.78,-0.06,-0.62,0.09,0.286,-0.13549999999999907,-0.30464499999999994,-0.25750999999999813,True,0.0,0.0,0.0,2.7330299999999944e-07,4.28616000000001e-07,-1.4639400000000107e-07
287,9.12,-2.24,2.22,0.15,-0.41,0.05,-26.25,16.25,11.88,0.78,-0.06,-0.62,0.09,0.287,-0.021479999999999944,-0.2786480000000007,-0.12071400000000132,True,0.0,0.0,0.0,2.7330299999999944e-07,4.28616000000001e-07,-1.4639400000000107e-07
288,9.66,-2.15,2.28,0.16,-0.38,0.06,-26.25,16.25,11.88,0.77,-0.06,-0.62,0.09,0.288,-0.09289799999999993,-0.06223599999999968,0.23327999999999882,True,0.0,0.0,0.0,2.7330299999999944e-07,4.28616000000001e-07,-1.4639400000000107e-07
289,9.66,-2.15,2.28,0.14,-0.37,0.07,-26.25,16.25,11.88,0.77,-0.06,-0.62,0.09,0.289,-0.09289799999999993,-0.06223599999999968,0.23327999999999882,True,0.0,0.0,0.0,2.7330299999999944e-07,4.28616000000001e-07,-1.4639400000000107e-07
290,9.73,-2.09,2.2,0.12,-0.38,0.08,-26.25,16.25,11.88,0.77,-0.06,-0.63,0.09,0.29,-0.16323500000000024,-0.0062629999999994565,0.39618400000000165,True,0.0,0.0,0.0,2.7330299999999944e-07,4.28616000000001e-07,-1.4639400000000107e-07
291,9.73,-2.09,2.2,0.12,-0.41,0.09,-27.25,16.87,12.75,0.77,-0.06,-0.63,0.09,0.291,-0.16323500000000024,-0.0062629999999994565,0.39618400000000165,True,0.0,0.0,0.0,2.7330299999999944e-07,4.28616000000001e-07,-1.4639400000000107e-07
292,9.73,-2.09,2.09,0.14,-0.43,0.06,-27.25,16.87,12.75,0.77,-0.06,-0.63,0.09,0.292,-0.055324999999999847,-0.00395299999999945,0.3741290000000017,True,0.0,0.0,0.0,2.7330299999999944e-07,4.28616000000001e-07,-1.4639400000000107e-07
293,9.61,-2.13,2.02,0.15,-0.44,0.05,-27.25,16.87,12.75,0.77,-0.06,-0.63,0.1,0.293,0.005003999999999786,0.0592780000000003,0.2723419999999983,True,0.0,0.0,0.0,2.7330299999999944e-07,4.28616000000001e-07,-1.4639400000000107e-07
294,9.36,-2.21,2.01,0.18,-0.47,0.03,-27.25,16.87,12.75,0.77,-0.06,-0.63,0.1,0.294,-0.026302000000000048,-0.07588199999999952,0.04823999999999984,True,0.0,0.0,0.0,2.7330299999999944e-07,4.28616000000001e-07,-1.4639400000000107e-07
295,9.17,-2.26,1.94,0.19,-0.47,-0.0,-27.25,16.87,12.75,0.77,-0.06,-0.63,0.1,0.295,0.010347999999999802,-0.16596399999999945,-0.13706599999999902,True,0.0,0.0,0.0,2.7330299999999944e-07,4.28616000000001e-07,-1.4639400000000107e-07
296,9.11,-2.27,1.89,0.2,-0.4,-0.03,-28.87,16.75,12.19,0.76,-0.06,-0.64,0.1,0.296,-0.21839199999999948,-0.19525600000000026,-0.22991200000000234,True,0.0,0.0,0.0,2.7330299999999944e-07,4.28616000000001e-07,-1.4639400000000107e-07
297,9.14,-2.17,1.72,0.2,-0.33,-0.02,-28.87,16.75,12.19,0.76,-0.06,-0.64,0.1,0.297,-0.053647999999999696,-0.08477599999999993,-0.252656,True,0.0,0.0,0.0,2.7330299999999944e-07,4.28616000000001e-07,-1.4639400000000107e-07
298,9.22,-2.07,1.67,0.19,-0.29,-0.0,-28.87,16.75,12.19,0.76,-0.06,-0.64,0.1,0.298,0.001000000000000556,0.03272800000000027,-0.2064319999999995,True,0.0,0.0,0.0,2.7330299999999944e-07,4.28616000000001e-07,-1.4639400000000107e-07
299,9.28,-1.94,1.75,0.16,-0.29,0.02,-28.87,16.75,12.19,0.76,-0.05,-0.64,0.1,0.299,-0.05974000000000079,0.022561999999999957,-0.17233100000000157,True,0.0,0.0,0.0,2.7330299999999944e-07,4.28616000000001e-07,-1.4639400000000107e-07
300,9.65,-1.79,1.99,0.16,-0.19,0.01,-29.25,17.69,13.0,0.76,-0.05,-0.64,0.1,0.3,-0.24942700000000073,0.23620700000000033,0.1954249999999984,True,0.0,0.0,0.0,2.7330299999999944e-07,4.28616000000001e-07,-1.4639400000000107e-07
301,9.65,-1.79,1.99,0.16,-0.19,0.01,-29.25,17.69,13.0,0.76,-0.05,-0.64,0.1,0.301,-0.24942700000000073,0.23620700000000033,0.1954249999999984,True,0.0,0.0,0.0,2.7330299999999944e-07,4.28616000000001e-07,-1.4639400000000107e-07
302,9.78,-1.81,2.08,0.21,-0.19,-0.0,-29.25,17.69,13.0,0.76,-0.05,-0.64,0.1,0.302,-0.31525400000000103,0.24011299999999985,0.340463999999999,True,0.0,0.0,0.0,2.7330299999999944e-07,4.28616000000001e-07,-1.4639400000000107e-07
303,9.79,-1.87,2.12,0.21,-0.19,-0.0,-29.25,17.69,13.0,0.76,-0.05,-0.64,0.1,0.303,-0.347681000000001,0.18171099999999984,0.36935199999999746,True,0.0,0.0,0.0,2.7330299999999944e-07,4.28616000000001e-07,-1.4639400000000107e-07
304,9.58,-2.02,2.19,0.21,-0.25,0.0,-29.25,17.69,13.0,0.76,-0.05,-0.64,0.1,0.304,-0.4369820000000004,-0.013493999999999895,0.21004899999999793,True,0.0,0.0,0.0,2.7330299999999944e-07,4.28616000000001e-07,-1.4639400000000107e-07
305,9.46,-2.11,2.22,0.2,-0.32,0.02,-29.25,17.69,13.0,0.76,-0.05,-0.64,0.1,0.305,-0.47780600000000106,-0.12869699999999984,0.11813800000000008,True,0.0,0.0,0.0,2.7330299999999944e-07,4.28616000000001e-07,-1.4639400000000107e-07
306,9.25,-2.23,2.17,0.17,-0.35,0.03,-29.5,16.0,11.88,0.76,-0.05,-0.64,0.1,0.306,-0.45181100000000085,-0.2884210000000002,-0.06834500000000254,True,0.0,0.0,0.0,2.7330299999999944e-07,4.28616000000001e-07,-1.4639400000000107e-07
307,9.08,-2.32,2.06,0.13,-0.33,0.03,-29.5,16.0,11.88,0.75,-0.05,-0.65,0.11,0.307,-0.6151280000000012,-0.30300799999999994,-0.2429439999999996,True,0.0,0.0,0.0,2.7330299999999944e-07,4.28616000000001e-07,-1.4639400000000107e-07
308,8.92,-2.39,1.83,0.09,-0.29,0.03,-29.5,16.0,11.88,0.75,-0.05,-0.65,0.11,0.308,-0.4022120000000011,-0.39209600000000056,-0.4163319999999988,True,0.0,0.0,0.0,2.7330299999999944e-07,4.28616000000001e-07,-1.4639400000000107e-07
309,8.95,-2.37,1.77,0.06,-0.23,0.03,-29.5,16.0,11.88,0.75,-0.05,-0.65,0.11,0.309,-0.3411400000000011,-0.36170800000000036,-0.4007480000000001,True,0.0,0.0,0.0,2.7330299999999944e-07,4.28616000000001e-07,-1.4639400000000107e-07
310,9.02,-2.32,1.77,0.06,-0.19,0.03,-29.5,16.0,11.88,0.75,-0.05,-0.65,0.11,0.31,-0.3370120000000012,-0.29708800000000024,-0.3441679999999998,True,0.0,0.0,0.0,2.7330299999999944e-07,4.28616000000001e-07,-1.4639400000000107e-07
311,9.26,-2.15,1.84,0.07,-0.15,0.02,-29.37,17.25,11.19,0.75,-0.05,-0.65,0.11,0.311,-0.3917360000000012,-0.08168000000000053,-0.13939599999999963,True,0.0,0.0,0.0,2.7330299999999944e-07,4.28616000000001e-07,-1.4639400000000107e-07
312,9.38,-2.04,1.9,0.07,-0.12,0.0,-29.37,17.25,11.19,0.75,-0.05,-0.65,0.11,0.312,-0.4462480000000011,0.048584000000000155,-0.03871999999999787,True,0.0,0.0,0.0,2.7330299999999944e-07,4.28616000000001e-07,-1.4639400000000107e-07
313,9.44,-1.91,1.93,0.08,-0.11,-0.0,-29.37,17.25,11.19,0.75,-0.05,-0.65,0.11,0.313,-0.4810040000000011,0.18649599999999958,-0.004731999999998848,True,0.0,0.0,0.0,2.7330299999999944e-07,4.28616000000001e-07,-1.4639400000000107e-07
314,9.44,-1.91,1.93,0.07,-0.11,-0.01,-29.37,17.25,11.19,0.75,-0.05,-0.65,0.11,0.314,-0.4810040000000011,0.18649599999999958,-0.004731999999998848,True,0.0,0.0,0.0,2.7330299999999944e-07,4.28616000000001e-07,-1.4639400000000107e-07
315,9.66,-1.72,1.91,0.05,-0.13,-0.01,-29.37,17.25,11.19,0.75,-0.05,-0.65,0.11,0.315,-0.4515960000000012,0.4228319999999999,0.1629360000000002,True,0.0,0.0,0.0,2.7330299999999944e-07,4.28616000000001e-07,-1.4639400000000107e-07
316,9.66,-1.72,1.91,0.05,-0.13,-0.01,-30.19,17.0,11.5,0.75,-0.05,-0.65,0.11,0.316,-0.4515960000000012,0.4228319999999999,0.1629360000000002,True,0.0,0.0,0.0,2.7330299999999944e-07,4.28616000000001e-07,-1.4639400000000107e-07
317,9.74,-1.78,1.56,0.03,-0.17,-0.01,-30.19,17.0,11.5,0.75,-0.05,-0.65,0.11,0.317,-0.09006400000000125,0.4068079999999998,0.20077600000000118,True,0.0,0.0,0.0,2.7330299999999944e-07,4.28616000000001e-07,-1.4639400000000107e-07
318,9.81,-1.8,1.44,0.03,-0.2,0.0,-30.19,17.0,11.5,0.75,-0.05,-0.65,0.11,0.318,0.039383999999998975,0.41166000000000014,0.2546640000000018,True,0.0,0.0,0.0,2.7330299999999944e-07,4.28616000000001e-07,-1.4639400000000107e-07
319,9.72,-1.81,1.26,0.04,-0.22,0.0,-30.19,17.0,11.5,0.75,-0.05,-0.65,0.11,0.319,0.20612799999999898,0.39349599999999985,0.14315600000000117,True,0.0,0.0,0.0,2.7330299999999944e-07,4.28616000000001e-07,-1.4639400000000107e-07
320,9.74,-1.81,1.26,0.06,-0.21,0.0,-30.19,17.0,11.5,0.75,-0.05,-0.65,0.11,0.32,0.20873599999999892,0.3980959999999998,0.16243600000000136,True,0.0,0.0,0.0,2.7330299999999944e-07,4.28616000000001e-07,-1.4639400000000107e-07
321,9.76,-1.8,1.22,0.09,-0.19,0.0,-29.19,17.25,10.75,0.75,-0.04,-0.65,0.11,0.321,0.2670839999999999,0.26832,0.16912199999999977,True,0.0,0.0,0.0,2.7330299999999944e-07,4.28616000000001e-07,-1.4639400000000107e-07
322,9.77,-1.8,1.2,0.11,-0.16,-0.0,-29.19,17.25,10.75,0.75,-0.04,-0.65,0.11,0.322,0.28805499999999995,0.27215,0.17577399999999876,True,0.0,0.0,0.0,2.7330299999999944e-07,4.28616000000001e-07,-1.4639400000000107e-07
323,9.77,-1.8,1.2,0.11,-0.16,0.0,-29.19,17.25,10.75,0.75,-0.04,-0.65,0.11,0.323,0.28805499999999995,0.27215,0.17577399999999876,True,0.0,0.0,0.0,2.7330299999999944e-07,4.28616000000001e-07,-1.4639400000000107e-07
324,9.78,-1.84,1.3,0.12,-0.16,0.0,-29.19,17.25,10.75,0.75,-0.04,-0.66,0.11,0.324,0.046399999999999775,0.20802800000000007,0.34232399999999963,True,0.0,0.0,0.0,2.7330299999999944e-07,4.28616000000001e-07,-1.4639400000000107e-07
325,9.65,-1.87,1.38,0.11,-0.17,0.01,-29.19,17.25,10.75,0.75,-0.04,-0.66,0.11,0.325,-0.04526999999999992,0.14336600000000024,0.231916,True,0.0,0.0,0.0,2.7330299999999944e-07,4.28616000000001e-07,-1.4639400000000107e-07
326,9.52,-1.83,1.44,0.11,-0.17,0.01,-29.75,16.56,11.56,0.75,-0.04,-0.66,0.11,0.326,-0.12481799999999987,0.14931600000000014,0.10439599999999771,True,0.0,0.0,0.0,2.7330299999999944e-07,4.28616000000001e-07,-1.4639400000000107e-07
327,9.54,-1.82,1.39,0.13,-0.16,0.01,-29.75,16.56,11.56,0.74,-0.04,-0.66,0.11,0.327,-0.20147400000000015,0.17279399999999967,-0.03299700000000172,True,0.0,0.0,0.0,2.7330299999999944e-07,4.28616000000001e-07,-1.4639400000000107e-07
328,9.55,-1.82,1.25,0.13,-0.16,0.0,-29.75,16.56,11.56,0.74,-0.04,-0.66,0.11,0.328,-0.06247500000000006,0.18699000000000038,-0.04046700000000136,True,0.0,0.0,0.0,2.7330299999999944e-07,4.28616000000001e-07,-1.4639400000000107e-07
329,9.48,-1.81,1.1,0.13,-0.15,0.0,-29.75,16.56,11.56,0.74,-0.04,-0.66,0.11,0.329,0.0771599999999999,0.19449300000000025,-0.12864599999999982,True,0.0,0.0,0.0,2.7330299999999944e-07,4.28616000000001e-07,-1.4639400000000107e-07
330,9.48,-1.81,1.1,0.12,-0.16,0.0,-29.75,16.56,11.56,0.74,-0.04,-0.66,0.11,0.33,0.0771599999999999,0.19449300000000025,-0.12864599999999982,True,0.0,0.0,0.0,2.7330299999999944e-07,4.28616000000001e-07,-1.4639400000000107e-07
331,9.47,-1.88,1.14,0.11,-0.14,0.0,-29.37,17.0,12.19,0.74,-0.04,-0.66,0.11,0.331,0.04442099999999982,0.12103200000000017,-0.11911800000000206,True,0.0,0.0,0.0,2.7330299999999944e-07,4.28616000000001e-07,-1.4639400000000107e-07
332,9.47,-1.88,1.14,0.11,-0.14,0.0,-29.37,17.0,12.19,0.74,-0.04,-0.66,0.11,0.332,0.04442099999999982,0.12103200000000017,-0.11911800000000206,True,0.0,0.0,0.0,2.7330299999999944e-07,4.28616000000001e-07,-1.4639400000000107e-07
333,9.59,-2.09,1.18,0.09,-0.03,-0.01,-29.37,17.0,12.19,0.74,-0.04,-0.66,0.11,0.333,0.040276999999999674,-0.060130999999999685,0.04486600000000074,True,0.0,0.0,0.0,2.7330299999999944e-07,4.28616000000001e-07,-1.4639400000000107e-07
334,9.68,-2.12,1.27,0.06,-0.01,0.0,-29.37,17.0,12.19,0.74,-0.04,-0.66,0.11,0.334,-0.03599200000000047,-0.07755200000000019,0.1491429999999987,True,0.0,0.0,0.0,2.7330299999999944e-07,4.28616000000001e-07,-1.4639400000000107e-07
335,9.72,-2.13,1.31,0.04,0.0,0.0,-29.37,17.0,12.19,0.74,-0.04,-0.66,0.11,0.335,-0.07025600000000032,-0.08206299999999979,0.19480699999999906,True,0.0,0.0,0.0,2.7330299999999944e-07,4.28616000000001e-07,-1.4639400000000107e-07
336,9.72,-2.13,1.31,0.03,0.0,-0.0,-28.56,17.19,12.88,0.74,-0.04,-0.66,0.11,0.336,-0.07025600000000032,-0.08206299999999979,0.19480699999999906,True,0.0,0.0,0.0,2.7330299999999944e-07,4.28616000000001e-07,-1.4639400000000107e-07
337,9.7,-2.07,1.49,0.02,-0.02,-0.01,-28.56,17.19,12.88,0.74,-0.04,-0.66,0.11,0.337,-0.25629400000000047,-0.04368499999999981,0.18523299999999843,True,0.0,0.0,0.0,2.7330299999999944e-07,4.28616000000001e-07,-1.4639400000000107e-07
338,9.67,-2.02,1.51,0.01,-0.03,-0.01,-28.56,17.19,12.88,0.74,-0.04,-0.66,0.11,0.338,-0.2845510000000002,-0.003397999999999929,0.1484229999999993,True,0.0,0.0,0.0,2.7330299999999944e-07,4.28616000000001e-07,-1.4639400000000107e-07
339,9.67,-2.02,1.51,0.0,-0.06,-0.02,-28.56,17.19,12.88,0.74,-0.04,-0.66,0.11,0.339,-0.2845510000000002,-0.003397999999999929,0.1484229999999993,True,0.0,0.0,0.0,2.7330299999999944e-07,4.28616000000001e-07,-1.4639400000000107e-07
340,9.54,-1.87,1.46,-0.01,-0.08,-0.03,-28.56,17.19,12.88,0.74,-0.04,-0.66,0.11,0.34,-0.2649660000000005,0.11829899999999963,-0.014202000000000936,True,0.0,0.0,0.0,2.7330299999999944e-07,4.28616000000001e-07,-1.4639400000000107e-07
341,9.54,-1.87,1.46,-0.01,-0.08,-0.03,-30.69,17.0,11.88,0.74,-0.04,-0.66,0.11,0.341,-0.2649660000000005,0.11829899999999963,-0.014202000000000936,True,0.0,0.0,0.0,2.7330299999999944e-07,4.28616000000001e-07,-1.4639400000000107e-07
342,9.56,-1.81,1.38,-0.02,-0.08,-0.02,-30.69,17.0,11.88,0.74,-0.04,-0.66,0.11,0.342,-0.1906880000000002,0.18766100000000022,-0.01690600000000053,True,0.0,0.0,0.0,2.7330299999999944e-07,4.28616000000001e-07,-1.4639400000000107e-07
343,9.56,-1.81,1.38,-0.02,-0.06,-0.02,-30.69,17.0,11.88,0.74,-0.04,-0.66,0.11,0.343,-0.1906880000000002,0.18766100000000022,-0.01690600000000053,True,0.0,0.0,0.0,2.7330299999999944e-07,4.28616000000001e-07,-1.4639400000000107e-07
344,9.69,-1.88,1.19,-0.02,-0.03,-0.02,-30.69,17.0,11.88,0.74,-0.04,-0.66,0.11,0.344,0.017470999999999792,0.1641640000000003,0.0999669999999977,True,0.0,0.0,0.0,2.7330299999999944e-07,4.28616000000001e-07,-1.4639400000000107e-07
345,9.69,-1.88,1.19,0.01,-0.02,-0.02,-29.87,17.0,11.69,0.74,-0.04,-0.66,0.11,0.345,0.017470999999999792,0.1641640000000003,0.0999669999999977,True,0.0,0.0,0.0,2.7330299999999944e-07,4.28616000000001e-07,-1.4639400000000107e-07
346,9.73,-1.73,1.16,0.05,-0.01,-0.02,-29.87,17.0,11.69,0.74,-0.04,-0.66,0.11,0.346,0.034599000000000046,0.32079300000000044,0.10435199999999867,True,0.0,0.0,0.0,2.7330299999999944e-07,4.28616000000001e-07,-1.4639400000000107e-07
347,9.74,-1.72,1.12,0.08,-0.01,-0.03,-29.87,17.0,11.69,0.74,-0.04,-0.66,0.11,0.347,0.07393799999999962,0.3360840000000002,0.10708799999999918,True,0.0,0.0,0.0,2.7330299999999944e-07,4.28616000000001e-07,-1.4639400000000107e-07
348,9.75,-1.71,1.14,0.09,-0.01,-0.03,-29.87,17.0,11.69,0.74,-0.04,-0.66,0.11,0.348,0.05414099999999977,0.34621500000000005,0.11717399999999856,True,0.0,0.0,0.0,2.7330299999999944e-07,4.28616000000001e-07,-1.4639400000000107e-07
349,9.73,-1.77,1.17,0.1,-0.02,-0.03,-29.87,17.0,11.69,0.74,-0.04,-0.66,0.11,0.349,0.02914299999999992,0.2811530000000004,0.1137529999999991,True,0.0,0.0,0.0,2.7330299999999944e-07,4.28616000000001e-07,-1.4639400000000107e-07
350,9.74,-1.8,1.21,0.09,-0.03,-0.03,-29.56,15.88,12.56,0.74,-0.03,-0.66,0.11,0.35,0.013637999999999373,0.10304800000000011,0.13009999999999877,True,0.0,0.0,0.0,2.7330299999999944e-07,4.28616000000001e-07,-1.4639400000000107e-07
351,9.7,-1.84,1.22,0.08,-0.03,-0.02,-29.56,15.88,12.56,0.74,-0.03,-0.66,0.11,0.351,0.004699999999999482,0.055135999999999824,0.10010799999999875,True,0.0,0.0,0.0,2.7330299999999944e-07,4.28616000000001e-07,-1.4639400000000107e-07
352,9.7,-1.85,1.19,0.07,-0.03,-0.01,-29.56,15.88,12.56,0.74,-0.03,-0.66,0.11,0.352,0.0354339999999993,0.04845799999999996,0.09830799999999762,True,0.0,0.0,0.0,2.7330299999999944e-07,4.28616000000001e-07,-1.4639400000000107e-07
353,9.74,-1.98,1.15,0.05,-0.04,0.0,-29.56,15.88,12.56,0.74,-0.03,-0.66,0.11,0.353,0.0948179999999994,-0.0655399999999999,0.15683599999999842,True,0.0,0.0,0.0,2.7330299999999944e-07,4.28616000000001e-07,-1.4639400000000107e-07
354,9.7,-2.04,1.12,0.04,-0.03,0.01,-29.56,15.88,12.56,0.74,-0.03,-0.66,0.11,0.354,0.12767999999999935,-0.12882399999999994,0.1257079999999977,True,0.0,0.0,0.0,2.7330299999999944e-07,4.28616000000001e-07,-1.4639400000000107e-07
355,9.66,-2.08,1.2,0.03,-0.03,0.01,-29.25,16.69,11.56,0.74,-0.03,-0.66,0.11,0.355,0.049903999999999504,-0.1837919999999998,0.10433999999999877,True,0.0,0.0,0.0,2.7330299999999944e-07,4.28616000000001e-07,-1.4639400000000107e-07
356,9.66,-2.08,1.2,0.02,-0.01,0.02,-29.25,16.69,11.56,0.74,-0.03,-0.66,0.11,0.356,0.049903999999999504,-0.1837919999999998,0.10433999999999877,True,0.0,0.0,0.0,2.7330299999999944e-07,4.28616000000001e-07,-1.4639400000000107e-07
357,9.55,-2.05,1.32,0.0,0.0,0.02,-29.25,16.69,11.56,0.74,-0.03,-0.66,0.11,0.357,-0.08288800000000074,-0.18904599999999955,0.006714000000000553,True,0.0,0.0,0.0,2.7330299999999944e-07,4.28616000000001e-07,-1.4639400000000107e-07
358,9.56,-2.02,1.41,-0.01,0.01,0.02,-29.25,16.69,11.56,0.74,-0.03,-0.66,0.11,0.358,-0.17408200000000051,-0.1669879999999999,0.02181599999999939,True,0.0,0.0,0.0,2.7330299999999944e-07,4.28616000000001e-07,-1.4639400000000107e-07
359,9.59,-2.01,1.47,-0.01,0.01,0.02,-29.25,16.69,11.56,0.74,-0.03,-0.66,0.11,0.359,-0.23129400000000078,-0.15726199999999993,0.05641799999999719,True,0.0,0.0,0.0,2.7330299999999944e-07,4.28616000000001e-07,-1.4639400000000107e-07
360,9.62,-1.93,1.51,-0.01,0.01,0.01,-29.87,16.25,12.06,0.74,-0.03,-0.66,0.11,0.36,-0.27746200000000054,-0.07760600000000017,0.07528399999999813,True,0.0,0.0,0.0,2.7330299999999944e-07,4.28616000000001e-07,-1.4639400000000107e-07
361,9.62,-1.93,1.51,-0.01,0.01,0.01,-29.87,16.25,12.06,0.74,-0.03,-0.66,0.11,0.361,-0.27746200000000054,-0.07760600000000017,0.07528399999999813,True,0.0,0.0,0.0,2.7330299999999944e-07,4.28616000000001e-07,-1.4639400000000107e-07
362,9.54,-1.87,1.52,-0.02,-0.01,0.01,-29.87,16.25,12.06,0.74,-0.03,-0.66,0.11,0.362,-0.3027520000000008,-0.03659400000000021,-0.012476000000001264,True,0.0,0.0,0.0,2.7330299999999944e-07,4.28616000000001e-07,-1.4639400000000107e-07
363,9.49,-1.83,1.49,-0.03,-0.01,0.01,-29.87,16.25,12.06,0.74,-0.03,-0.66,0.11,0.363,-0.28321800000000064,-0.004881999999999942,-0.07226600000000083,True,0.0,0.0,0.0,2.7330299999999944e-07,4.28616000000001e-07,-1.4639400000000107e-07
364,9.53,-1.8,1.38,-0.04,-0.0,0.02,-29.87,16.25,12.06,0.74,-0.03,-0.66,0.11,0.364,-0.17470800000000053,0.04340800000000003,-0.052698000000001244,True,0.0,0.0,0.0,2.7330299999999944e-07,4.28616000000001e-07,-1.4639400000000107e-07
365,9.58,-1.82,1.3,-0.04,0.01,0.02,-29.56,16.25,12.06,0.74,-0.03,-0.66,0.11,0.365,-0.0885320000000005,0.04218800000000014,-0.01025200000000126,True,0.0,0.0,0.0,2.7330299999999944e-07,4.28616000000001e-07,-1.4639400000000107e-07
366,9.66,-1.84,1.29,-0.04,0.01,0.02,-29.56,16.25,12.06,0.74,-0.03,-0.66,0.11,0.366,-0.06817000000000051,0.039983999999999936,0.06992399999999854,True,0.0,0.0,0.0,2.7330299999999944e-07,4.28616000000001e-07,-1.4639400000000107e-07
367,9.74,-1.91,1.26,-0.03,-0.0,0.02,-29.56,16.25,12.06,0.74,-0.03,-0.66,0.11,0.367,-0.021980000000000555,-0.008713999999999889,0.15711599999999848,True,0.0,0.0,0.0,2.7330299999999944e-07,4.28616000000001e-07,-1.4639400000000107e-07
368,9.74,-1.89,1.24,-0.03,-0.01,0.02,-29.56,16.25,12.06,0.74,-0.04,-0.66,0.11,0.368,-0.02563400000000038,0.16094900000000031,0.15653599999999912,True,0.0,0.0,0.0,2.7330299999999944e-07,4.28616000000001e-07,-1.4639400000000107e-07
369,9.74,-1.88,1.26,-0.03,-0.01,0.02,-29.56,16.25,12.06,0.74,-0.04,-0.66,0.11,0.369,-0.04644600000000043,0.1689240000000003,0.15694199999999725,True,0.0,0.0,0.0,2.7330299999999944e-07,4.28616000000001e-07,-1.4639400000000107e-07
370,9.78,-1.89,1.21,-0.04,-0.0,0.01,-29.69,16.25,12.56,0.74,-0.04,-0.66,0.11,0.37,0.007993999999999613,0.17215300000000006,0.19158099999999934,True,0.0,0.0,0.0,2.7330299999999944e-07,4.28616000000001e-07,-1.4639400000000107e-07
371,9.83,-1.89,1.05,-0.04,0.01,0.01,-29.69,16.25,12.56,0.74,-0.04,-0.66,0.11,0.371,0.1707649999999996,0.19669300000000006,0.22038099999999972,True,0.0,0.0,0.0,2.7330299999999944e-07,4.28616000000001e-07,-1.4639400000000107e-07
372,9.84,-1.91,1.02,-0.05,0.02,0.01,-29.69,16.25,12.56,0.74,-0.04,-0.66,0.11,0.372,0.20354799999999962,0.1820390000000003,0.23047399999999918,True,0.0,0.0,0.0,2.7330299999999944e-07,4.28616000000001e-07,-1.4639400000000107e-07
373,9.81,-1.95,1.04,-0.05,0.02,0.01,-29.69,16.25,12.56,0.74,-0.04,-0.66,0.11,0.373,0.18519099999999966,0.13507100000000036,0.21206000000000103,True,0.0,0.0,0.0,2.7330299999999944e-07,4.28616000000001e-07,-1.4639400000000107e-07
374,9.71,-1.94,1.18,-0.05,0.04,0.01,-29.69,16.25,12.56,0.74,-0.04,-0.66,0.11,0.374,0.035956999999999795,0.11116600000000035,0.13036600000000043,True,0.0,0.0,0.0,2.7330299999999944e-07,4.28616000000001e-07,-1.4639400000000107e-07
375,9.69,-1.88,1.25,-0.04,0.06,0.0,-30.0,16.56,13.56,0.74,-0.04,-0.66,0.11,0.375,-0.041665000000000285,0.1590040000000003,0.10731699999999655,True,0.0,0.0,0.0,2.7330299999999944e-07,4.28616000000001e-07,-1.4639400000000107e-07
376,9.65,-1.9,1.31,-0.03,0.07,-0.01,-30.0,16.56,13.56,0.74,-0.04,-0.66,0.11,0.376,-0.10266100000000011,0.1258300000000001,0.08003500000000052,True,0.0,0.0,0.0,2.7330299999999944e-07,4.28616000000001e-07,-1.4639400000000107e-07
377,9.66,-1.91,1.33,-0.02,0.06,-0.01,-30.0,16.56,13.56,0.74,-0.04,-0.66,0.11,0.377,-0.1202580000000002,0.11657100000000035,0.09420899999999932,True,0.0,0.0,0.0,2.7330299999999944e-07,4.28616000000001e-07,-1.4639400000000107e-07
378,9.63,-1.86,1.35,-0.03,0.05,-0.01,-30.0,16.56,13.56,0.74,-0.04,-0.66,0.11,0.378,-0.1485150000000004,0.15685800000000027,0.057398999999998424,True,0.0,0.0,0.0,2.7330299999999944e-07,4.28616000000001e-07,-1.4639400000000107e-07
379,9.58,-1.87,1.36,-0.03,0.04,-0.01,-30.0,16.56,13.56,0.74,-0.04,-0.66,0.11,0.379,-0.1623460000000001,0.13552299999999978,0.012267999999997059,True,0.0,0.0,0.0,2.7330299999999944e-07,4.28616000000001e-07,-1.4639400000000107e-07
380,9.62,-1.85,1.36,-0.03,0.04,-0.01,-29.75,16.56,13.25,0.74,-0.04,-0.66,0.11,0.38,-0.16048600000000035,0.163537,0.046899999999999054,True,0.0,0.0,0.0,2.7330299999999944e-07,4.28616000000001e-07,-1.4639400000000107e-07
381,9.63,-1.83,1.33,-0.03,0.04,-0.01,-29.75,16.56,13.25,0.74,-0.04,-0.66,0.11,0.381,-0.13210300000000008,0.1876630000000003,0.048816999999999666,True,0.0,0.0,0.0,2.7330299999999944e-07,4.28616000000001e-07,-1.4639400000000107e-07
382,9.63,-1.87,1.33,-0.03,0.04,-0.01,-29.75,16.56,13.25,0.74,-0.04,-0.66,0.11,0.382,-0.12770300000000012,0.14888300000000027,0.05699299999999852,True,0.0,0.0,0.0,2.7330299999999944e-07,4.28616000000001e-07,-1.4639400000000107e-07
383,9.65,-1.91,1.35,-0.04,0.03,-0.0,-29.75,16.56,13.25,0.74,-0.04,-0.66,0.11,0.383,-0.14098500000000036,0.11269500000000009,0.08697899999999947,True,0.0,0.0,0.0,2.7330299999999944e-07,4.28616000000001e-07,-1.4639400000000107e-07
384,9.64,-1.94,1.34,-0.06,0.03,0.0,-29.75,16.56,13.25,0.74,-0.04,-0.66,0.11,0.384,-0.12884400000000018,0.08231400000000023,0.08220599999999934,True,0.0,0.0,0.0,2.7330299999999944e-07,4.28616000000001e-07,-1.4639400000000107e-07
385,9.64,-1.94,1.34,-0.07,0.03,0.0,-29.87,16.56,12.0,0.74,-0.04,-0.66,0.11,0.385,-0.12884400000000018,0.08231400000000023,0.08220599999999934,True,0.0,0.0,0.0,2.7330299999999944e-07,4.28616000000001e-07,-1.4639400000000107e-07
386,9.61,-2.02,1.39,-0.07,0.03,0.01,-29.87,16.56,12.0,0.74,-0.04,-0.66,0.11,0.386,-0.17236900000000022,-0.006014000000000186,0.07564299999999946,True,0.0,0.0,0.0,2.7330299999999944e-07,4.28616000000001e-07,-1.4639400000000107e-07
387,9.77,-2.01,1.14,-0.06,0.04,-0.0,-29.87,16.19,12.5,0.74,-0.04,-0.66,0.11,0.387,0.08917099999999967,0.05967700000000034,0.19785399999999775,True,0.0,0.0,0.0,2.7330299999999944e-07,4.28616000000001e-07,-1.4639400000000107e-07
388,9.77,-2.01,1.14,-0.06,0.04,-0.0,-29.87,16.19,12.5,0.74,-0.04,-0.66,0.11,0.388,0.08917099999999967,0.05967700000000034,0.19785399999999775,True,0.0,0.0,0.0,2.7330299999999944e-07,4.28616000000001e-07,-1.4639400000000107e-07
389,9.76,-1.93,1.07,-0.06,0.02,-0.0,-29.87,16.19,12.5,0.74,-0.04,-0.66,0.11,0.389,0.14834799999999948,0.14110099999999992,0.16324699999999837,True,0.0,0.0,0.0,2.7330299999999944e-07,4.28616000000001e-07,-1.4639400000000107e-07
390,9.76,-1.93,1.07,-0.06,0.02,-0.0,-29.87,16.19,12.5,0.74,-0.04,-0.66,0.11,0.39,0.14834799999999948,0.14110099999999992,0.16324699999999837,True,0.0,0.0,0.0,2.7330299999999944e-07,4.28616000000001e-07,-1.4639400000000107e-07
391,9.74,-1.9,1.09,-0.06,0.01,0.0,-29.87,16.19,12.5,0.74,-0.04,-0.66,0.11,0.391,0.12330599999999947,0.1641540000000003,0.1402049999999999,True,0.0,0.0,0.0,2.7330299999999944e-07,4.28616000000001e-07,-1.4639400000000107e-07
392,9.74,-1.9,1.09,-0.06,0.01,0.0,-28.38,15.88,11.56,0.74,-0.04,-0.66,0.11,0.392,0.12330599999999947,0.1641540000000003,0.1402049999999999,True,0.0,0.0,0.0,2.7330299999999944e-07,4.28616000000001e-07,-1.4639400000000107e-07
393,9.73,-1.94,1.1,-0.06,0.01,0.01,-28.38,15.88,11.56,0.74,-0.04,-0.66,0.11,0.393,0.1168349999999998,0.12235800000000042,0.1399259999999991,True,0.0,0.0,0.0,2.7330299999999944e-07,4.28616000000001e-07,-1.4639400000000107e-07
394,9.74,-1.98,1.08,-0.06,0.0,0.01,-28.38,15.88,11.56,0.74,-0.04,-0.66,0.11,0.394,0.1419619999999997,0.08745400000000021,0.15533199999999958,True,0.0,0.0,0.0,2.7330299999999944e-07,4.28616000000001e-07,-1.4639400000000107e-07
395,9.71,-2.03,1.1,-0.06,0.0,0.01,-28.38,15.88,11.56,0.74,-0.04,-0.66,0.11,0.395,0.12470499999999984,0.03079100000000047,0.13896200000000114,True,0.0,0.0,0.0,2.7330299999999944e-07,4.28616000000001e-07,-1.4639400000000107e-07
396,9.67,-2.09,1.15,-0.07,0.0,0.02,-28.38,15.88,11.56,0.74,-0.04,-0.66,0.11,0.396,0.07796499999999962,-0.040302999999999756,0.11863099999999882,True,0.0,0.0,0.0,2.7330299999999944e-07,4.28616000000001e-07,-1.4639400000000107e-07
397,9.63,-2.1,1.19,-0.07,0.0,0.02,-29.87,17.19,12.0,0.74,-0.04,-0.66,0.11,0.397,0.03558099999999986,-0.06206199999999973,0.0868549999999999,True,0.0,0.0,0.0,2.7330299999999944e-07,4.28616000000001e-07,-1.4639400000000107e-07
398,9.64,-2.13,1.19,-0.06,0.01,0.02,-29.87,17.19,12.0,0.74,-0.04,-0.66,0.11,0.398,0.03989599999999993,-0.08899099999999971,0.10266700000000029,True,0.0,0.0,0.0,2.7330299999999944e-07,4.28616000000001e-07,-1.4639400000000107e-07
399,9.66,-2.1,1.19,-0.06,0.02,0.02,-29.87,17.19,12.0,0.74,-0.04,-0.66,0.11,0.399,0.03862600000000005,-0.05559399999999981,0.11589500000000008,True,0.0,0.0,0.0,2.7330299999999944e-07,4.28616000000001e-07,-1.4639400000000107e-07
400,9.72,-1.98,1.27,-0.08,0.02,0.02,-30.19,16.06,12.75,0.74,-0.04,-0.66,0.11,0.4,-0.047332000000000374,0.06680200000000013,0.15924700000000058,True,0.0,0.0,0.0,2.7330299999999944e-07,4.28616000000001e-07,-1.4639400000000107e-07
401,9.71,-1.94,1.27,-0.08,0.02,0.02,-30.19,16.06,12.75,0.74,-0.04,-0.66,0.11,0.401,-0.05274700000000032,0.10342600000000034,0.1413910000000005,True,0.0,0.0,0.0,2.7330299999999944e-07,4.28616000000001e-07,-1.4639400000000107e-07
402,9.7,-1.88,1.27,-0.06,0.0,0.03,-30.19,16.06,12.75,0.74,-0.04,-0.66,0.11,0.402,-0.06036200000000047,0.15944000000000014,0.11944699999999919,True,0.0,0.0,0.0,2.7330299999999944e-07,4.28616000000001e-07,-1.4639400000000107e-07
403,9.7,-1.89,1.25,-0.06,0.0,0.03,-30.19,16.06,12.75,0.74,-0.04,-0.66,0.11,0.403,-0.03955000000000042,0.15146500000000013,0.11904099999999929,True,0.0,0.0,0.0,2.7330299999999944e-07,4.28616000000001e-07,-1.4639400000000107e-07
404,9.68,-1.9,1.26,-0.04,0.0,0.03,-30.19,16.06,12.75,0.74,-0.04,-0.66,0.11,0.404,-0.05033600000000038,0.136598,0.1029499999999981,True,0.0,0.0,0.0,2.7330299999999944e-07,4.28616000000001e-07,-1.4639400000000107e-07
405,9.66,-1.91,1.31,-0.04,0.01,0.03,-30.19,16.06,12.75,0.74,-0.04,-0.66,0.11,0.405,-0.10054600000000025,0.11829100000000035,0.0917589999999997,True,0.0,0.0,0.0,2.7330299999999944e-07,4.28616000000001e-07,-1.4639400000000107e-07
406,9.62,-1.94,1.29,-0.04,0.01,0.03,-29.5,17.25,13.25,0.74,-0.04,-0.66,0.11,0.406,-0.08159400000000039,0.08230200000000014,0.0567209999999978,True,0.0,0.0,0.0,2.7330299999999944e-07,4.28616000000001e-07,-1.4639400000000107e-07
407,9.61,-1.97,1.32,-0.03,0.02,0.03,-29.5,17.25,13.25,0.74,-0.04,-0.66,0.11,0.407,-0.10887700000000056,0.048480999999999844,0.05684799999999868,True,0.0,0.0,0.0,2.7330299999999944e-07,4.28616000000001e-07,-1.4639400000000107e-07
408,9.62,-1.97,1.27,-0.03,0.02,0.03,-29.5,17.25,13.25,0.74,-0.04,-0.66,0.11,0.408,-0.05858200000000058,0.05493700000000011,0.060402999999999096,True,0.0,0.0,0.0,2.7330299999999944e-07,4.28616000000001e-07,-1.4639400000000107e-07
409,9.61,-1.96,1.22,-0.03,0.02,0.03,-29.5,17.25,13.25,0.74,-0.04,-0.66,0.11,0.409,-0.011417000000000233,0.06677599999999986,0.04255399999999909,True,0.0,0.0,0.0,2.7330299999999944e-07,4.28616000000001e-07,-1.4639400000000107e-07
410,9.64,-1.96,1.22,-0.02,0.03,0.03,-29.5,17.25,13.25,0.74,-0.04,-0.66,0.11,0.41,-0.008372000000000046,0.07324400000000023,0.07159400000000105,True,0.0,0.0,0.0,2.7330299999999944e-07,4.28616000000001e-07,-1.4639400000000107e-07
411,9.67,-1.95,1.23,-0.02,0.03,0.02,-30.19,16.87,12.5,0.74,-0.04,-0.66,0.11,0.411,-0.01628300000000027,0.08854700000000015,0.09981499999999954,True,0.0,0.0,0.0,2.7330299999999944e-07,4.28616000000001e-07,-1.4639400000000107e-07
412,9.66,-1.96,1.24,-0.02,0.03,0.02,-30.19,16.87,12.5,0.74,-0.04,-0.66,0.11,0.412,-0.026054000000000244,0.07583600000000032,0.0934039999999996,True,0.0,0.0,0.0,2.7330299999999944e-07,4.28616000000001e-07,-1.4639400000000107e-07
413,9.68,-2.02,1.25,-0.02,0.03,0.02,-30.19,16.87,12.5,0.74,-0.05,-0.66,0.11,0.413,-0.0479820000000013,0.16921199999999967,0.13372799999999785,True,0.0,0.0,0.0,2.7330299999999944e-07,4.28616000000001e-07,-1.4639400000000107e-07
414,9.69,-2.04,1.25,-0.03,0.03,0.02,-30.19,16.87,12.5,0.74,-0.05,-0.66,0.11,0.414,-0.04502200000000123,0.15212799999999957,0.14776999999999774,True,0.0,0.0,0.0,2.7330299999999944e-07,4.28616000000001e-07,-1.4639400000000107e-07
415,9.69,-2.04,1.25,-0.03,0.03,0.02,-30.19,16.87,12.5,0.74,-0.05,-0.66,0.11,0.415,-0.04502200000000123,0.15212799999999957,0.14776999999999774,True,0.0,0.0,0.0,2.7330299999999944e-07,4.28616000000001e-07,-1.4639400000000107e-07
416,9.71,-2.08,1.27,-0.02,0.02,0.02,-29.87,15.88,12.75,0.74,-0.05,-0.66,0.11,0.416,-0.05885800000000119,0.11653599999999958,0.17828599999999994,True,0.0,0.0,0.0,2.7330299999999944e-07,4.28616000000001e-07,-1.4639400000000107e-07
417,9.71,-2.08,1.27,-0.01,0.02,0.02,-29.87,15.88,12.75,0.74,-0.05,-0.66,0.11,0.417,-0.05885800000000119,0.11653599999999958,0.17828599999999994,True,0.0,0.0,0.0,2.7330299999999944e-07,4.28616000000001e-07,-1.4639400000000107e-07
418,9.68,-2.05,1.23,-0.0,0.02,0.01,-29.87,15.88,12.75,0.74,-0.05,-0.66,0.11,0.418,-0.025322000000001177,0.14157799999999987,0.13787199999999977,True,0.0,0.0,0.0,2.7330299999999944e-07,4.28616000000001e-07,-1.4639400000000107e-07
419,9.67,-2.02,1.24,-0.0,0.02,0.01,-29.87,15.88,12.75,0.74,-0.05,-0.66,0.11,0.419,-0.03912800000000116,0.1676359999999996,0.12285399999999846,True,0.0,0.0,0.0,2.7330299999999944e-07,4.28616000000001e-07,-1.4639400000000107e-07
420,9.68,-2.0,1.27,-0.01,0.02,0.01,-29.87,15.88,12.75,0.74,-0.05,-0.66,0.11,0.42,-0.06967400000000135,0.1871599999999996,0.13177599999999856,True,0.0,0.0,0.0,2.7330299999999944e-07,4.28616000000001e-07,-1.4639400000000107e-07
421,9.67,-1.99,1.27,-0.01,0.02,0.01,-30.19,16.87,11.25,0.74,-0.05,-0.66,0.11,0.421,-0.07166600000000134,0.19455799999999962,0.11992599999999953,True,0.0,0.0,0.0,2.7330299999999944e-07,4.28616000000001e-07,-1.4639400000000107e-07
422,9.67,-2.02,1.25,-0.01,0.02,0.01,-30.19,16.87,11.25,0.74,-0.05,-0.66,0.11,0.422,-0.049006000000001215,0.1669239999999996,0.1240699999999979,True,0.0,0.0,0.0,2.7330299999999944e-07,4.28616000000001e-07,-1.4639400000000107e-07
423,9.65,-2.07,1.25,-0.01,0.02,0.01,-30.19,16.87,11.25,0.74,-0.05,-0.66,0.11,0.423,-0.04621400000000109,0.11391799999999994,0.11571399999999876,True,0.0,0.0,0.0,2.7330299999999944e-07,4.28616000000001e-07,-1.4639400000000107e-07
424,9.65,-2.07,1.25,-0.0,0.01,0.01,-30.19,16.87,11.25,0.74,-0.05,-0.66,0.11,0.424,-0.04621400000000109,0.11391799999999994,0.11571399999999876,True,0.0,0.0,0.0,2.7330299999999944e-07,4.28616000000001e-07,-1.4639400000000107e-07
425,9.66,-2.06,1.28,0.0,0.01,0.01,-30.19,16.87,11.25,0.74,-0.05,-0.66,0.11,0.425,-0.07579200000000119,0.12375599999999987,0.12682799999999794,True,0.0,0.0,0.0,2.7330299999999944e-07,4.28616000000001e-07,-1.4639400000000107e-07
426,9.66,-2.06,1.28,0.0,0.01,0.01,-29.87,16.75,11.56,0.74,-0.05,-0.66,0.11,0.426,-0.07579200000000119,0.12375599999999987,0.12682799999999794,True,0.0,0.0,0.0,2.7330299999999944e-07,4.28616000000001e-07,-1.4639400000000107e-07
427,9.63,-2.05,1.24,0.01,0.0,0.0,-29.87,16.75,11.56,0.74,-0.05,-0.66,0.11,0.427,-0.04032000000000102,0.1294260000000004,0.09079800000000127,True,0.0,0.0,0.0,2.7330299999999944e-07,4.28616000000001e-07,-1.4639400000000107e-07
428,9.61,-2.06,1.24,0.01,0.01,0.0,-29.87,16.75,11.56,0.74,-0.05,-0.66,0.11,0.428,-0.041400000000001214,0.11516399999999952,0.07367399999999868,True,0.0,0.0,0.0,2.7330299999999944e-07,4.28616000000001e-07,-1.4639400000000107e-07
429,9.62,-2.06,1.22,0.01,0.01,0.0,-29.87,16.75,11.56,0.74,-0.05,-0.66,0.11,0.429,-0.020620000000001415,0.1188759999999996,0.08089999999999797,True,0.0,0.0,0.0,2.7330299999999944e-07,4.28616000000001e-07,-1.4639400000000107e-07
430,9.63,-2.08,1.28,0.0,0.01,0.0,-29.87,16.75,11.56,0.74,-0.05,-0.66,0.11,0.43,-0.076928000000001,0.09751999999999994,0.10223799999999983,True,0.0,0.0,0.0,2.7330299999999944e-07,4.28616000000001e-07,-1.4639400000000107e-07
431,9.63,-2.1,1.25,-0.01,0.02,0.0,-29.87,16.5,12.5,0.74,-0.05,-0.66,0.11,0.431,-0.04535800000000112,0.08028400000000022,0.10297399999999968,True,0.0,0.0,0.0,2.7330299999999944e-07,4.28616000000001e-07,-1.4639400000000107e-07
432,9.67,-2.12,1.26,-0.01,0.02,0.0,-29.87,16.5,12.5,0.74,-0.05,-0.66,0.11,0.432,-0.049204000000001136,0.06935199999999943,0.14720599999999884,True,0.0,0.0,0.0,2.7330299999999944e-07,4.28616000000001e-07,-1.4639400000000107e-07
433,9.68,-2.16,1.26,-0.0,0.03,-0.0,-29.87,16.5,12.5,0.74,-0.05,-0.66,0.11,0.433,-0.044308000000001346,0.032895999999999606,0.16563199999999867,True,0.0,0.0,0.0,2.7330299999999944e-07,4.28616000000001e-07,-1.4639400000000107e-07
434,9.74,-2.13,1.32,0.01,0.02,-0.0,-29.87,16.5,12.5,0.74,-0.05,-0.66,0.11,0.434,-0.10033600000000131,0.07141000000000004,0.22430000000000128,True,0.0,0.0,0.0,2.7330299999999944e-07,4.28616000000001e-07,-1.4639400000000107e-07
435,9.72,-2.11,1.3,0.01,0.01,-0.0,-29.87,16.5,12.5,0.74,-0.05,-0.66,0.11,0.435,-0.0845640000000012,0.08763000000000007,0.1981680000000008,True,0.0,0.0,0.0,2.7330299999999944e-07,4.28616000000001e-07,-1.4639400000000107e-07
436,9.68,-2.1,1.28,0.02,0.0,-0.01,-29.87,16.5,11.56,0.74,-0.05,-0.66,0.11,0.436,-0.06987200000000127,0.08958799999999967,0.15491199999999772,True,0.0,0.0,0.0,2.7330299999999944e-07,4.28616000000001e-07,-1.4639400000000107e-07
437,9.68,-2.07,1.28,0.02,0.0,-0.01,-29.87,16.5,11.56,0.74,-0.05,-0.66,0.11,0.437,-0.07277600000000128,0.1186459999999997,0.1483359999999987,True,0.0,0.0,0.0,2.7330299999999944e-07,4.28616000000001e-07,-1.4639400000000107e-07
438,9.71,-2.08,1.24,0.01,0.01,-0.01,-29.87,16.5,11.56,0.74,-0.05,-0.66,0.11,0.438,-0.029224000000001027,0.11867199999999958,0.17463799999999985,True,0.0,0.0,0.0,2.7330299999999944e-07,4.28616000000001e-07,-1.4639400000000107e-07
439,9.7,-2.08,1.28,0.0,0.01,-0.01,-29.87,16.5,11.56,0.74,-0.05,-0.66,0.11,0.439,-0.06976000000000115,0.11353599999999953,0.16984399999999766,True,0.0,0.0,0.0,2.7330299999999944e-07,4.28616000000001e-07,-1.4639400000000107e-07
440,9.66,-2.08,1.29,-0.0,0.01,-0.01,-29.87,16.5,11.56,0.74,-0.05,-0.66,0.11,0.44,-0.08373400000000109,0.1036719999999997,0.1324279999999991,True,0.0,0.0,0.0,2.7330299999999944e-07,4.28616000000001e-07,-1.4639400000000107e-07
441,9.62,-2.08,1.29,0.0,0.01,-0.01,-30.19,16.75,11.56,0.74,-0.05,-0.66,0.11,0.441,-0.08783000000000118,0.09451999999999942,0.09379599999999932,True,0.0,0.0,0.0,2.7330299999999944e-07,4.28616000000001e-07,-1.4639400000000107e-07
442,9.59,-2.09,1.29,-0.0,0.0,-0.0,-30.19,16.75,11.56,0.74,-0.05,-0.66,0.11,0.442,-0.08993400000000107,0.0779699999999998,0.06701400000000035,True,0.0,0.0,0.0,2.7330299999999944e-07,4.28616000000001e-07,-1.4639400000000107e-07
443,9.57,-2.1,1.3,0.0,0.0,-0.01,-30.19,16.75,11.56,0.74,-0.05,-0.66,0.11,0.443,-0.10089200000000109,0.0629959999999998,0.051105999999998986,True,0.0,0.0,0.0,2.7330299999999944e-07,4.28616000000001e-07,-1.4639400000000107e-07
444,9.63,-2.12,1.35,0.01,0.01,-0.01,-30.19,16.75,11.56,0.74,-0.05,-0.66,0.11,0.444,-0.14220200000000127,0.053792000000000034,0.11951800000000112,True,0.0,0.0,0.0,2.7330299999999944e-07,4.28616000000001e-07,-1.4639400000000107e-07
445,9.65,-2.13,1.36,0.01,0.01,-0.0,-28.75,17.19,12.5,0.74,-0.05,-0.66,0.11,0.445,-0.1490640000000012,0.047969999999999874,0.14224199999999954,True,0.0,0.0,0.0,2.7330299999999944e-07,4.28616000000001e-07,-1.4639400000000107e-07
446,9.66,-2.13,1.35,0.01,0.01,-0.01,-28.75,17.19,12.5,0.74,-0.05,-0.66,0.11,0.446,-0.13816200000000123,0.05096999999999993,0.15068400000000004,True,0.0,0.0,0.0,2.7330299999999944e-07,4.28616000000001e-07,-1.4639400000000107e-07
447,9.71,-2.1,1.3,0.01,0.01,-0.0,-28.75,17.19,12.5,0.74,-0.05,-0.66,0.11,0.447,-0.08655600000000097,0.09502799999999986,0.18631799999999998,True,0.0,0.0,0.0,2.7330299999999944e-07,4.28616000000001e-07,-1.4639400000000107e-07
448,9.71,-2.1,1.3,0.0,0.01,-0.0,-28.75,17.19,12.5,0.74,-0.05,-0.66,0.11,0.448,-0.08655600000000097,0.09502799999999986,0.18631799999999998,True,0.0,0.0,0.0,2.7330299999999944e-07,4.28616000000001e-07,-1.4639400000000107e-07
449,9.7,-2.1,1.29,-0.0,0.0,0.0,-28.75,17.19,12.5,0.74,-0.05,-0.66,0.11,0.449,-0.07770200000000127,0.0934519999999998,0.17544399999999882,True,0.0,0.0,0.0,2.7330299999999944e-07,4.28616000000001e-07,-1.4639400000000107e-07
450,9.66,-2.15,1.28,-0.01,0.0,-0.0,-28.75,16.06,12.06,0.74,-0.05,-0.66,0.11,0.45,-0.06708000000000114,0.03658199999999978,0.14655599999999858,True,0.0,0.0,0.0,2.7330299999999944e-07,4.28616000000001e-07,-1.4639400000000107e-07
451,9.61,-2.12,1.26,-0.02,0.0,0.0,-28.75,16.06,12.06,0.74,-0.05,-0.66,0.11,0.451,-0.055348000000001285,0.055623999999999466,0.08925799999999917,True,0.0,0.0,0.0,2.7330299999999944e-07,4.28616000000001e-07,-1.4639400000000107e-07
452,9.61,-2.15,1.27,-0.02,-0.0,0.0,-28.75,16.06,12.06,0.74,-0.05,-0.66,0.11,0.452,-0.06232200000000132,0.025853999999999433,0.09704999999999941,True,0.0,0.0,0.0,2.7330299999999944e-07,4.28616000000001e-07,-1.4639400000000107e-07
453,9.58,-2.15,1.28,-0.02,0.01,0.0,-28.75,16.06,12.06,0.74,-0.05,-0.66,0.11,0.453,-0.07527200000000112,0.018277999999999683,0.06929199999999902,True,0.0,0.0,0.0,2.7330299999999944e-07,4.28616000000001e-07,-1.4639400000000107e-07
454,9.61,-2.15,1.33,-0.02,0.01,0.0,-28.75,16.06,12.06,0.74,-0.05,-0.66,0.11,0.454,-0.1215900000000012,0.021581999999999435,0.1043459999999996,True,0.0,0.0,0.0,2.7330299999999944e-07,4.28616000000001e-07,-1.4639400000000107e-07
455,9.62,-2.14,1.36,-0.02,0.01,0.0,-30.19,16.75,11.25,0.74,-0.05,-0.66,0.11,0.455,-0.15116800000000152,0.031419999999999365,0.11545999999999879,True,0.0,0.0,0.0,2.7330299999999944e-07,4.28616000000001e-07,-1.4639400000000107e-07
456,9.66,-2.11,1.33,-0.02,0.01,0.0,-30.19,16.75,11.25,0.74,-0.05,-0.66,0.11,0.456,-0.12034200000000128,0.07176600000000011,0.14386799999999944,True,0.0,0.0,0.0,2.7330299999999944e-07,4.28616000000001e-07,-1.4639400000000107e-07
457,9.7,-2.1,1.27,-0.03,0.0,0.0,-30.19,16.75,11.25,0.74,-0.05,-0.66,0.11,0.457,-0.057946000000001385,0.0948759999999998,0.17301199999999817,True,0.0,0.0,0.0,2.7330299999999944e-07,4.28616000000001e-07,-1.4639400000000107e-07
458,9.67,-2.05,1.27,-0.03,0.0,0.0,-30.19,16.75,11.25,0.74,-0.05,-0.66,0.11,0.458,-0.0658580000000013,0.13644199999999979,0.13307799999999936,True,0.0,0.0,0.0,2.7330299999999944e-07,4.28616000000001e-07,-1.4639400000000107e-07
459,9.66,-2.02,1.3,-0.03,0.0,0.0,-30.19,16.75,11.25,0.74,-0.05,-0.66,0.11,0.459,-0.09942000000000117,0.16107599999999997,0.12049199999999871,True,0.0,0.0,0.0,2.7330299999999944e-07,4.28616000000001e-07,-1.4639400000000107e-07
460,9.66,-2.01,1.31,-0.02,0.01,0.0,-30.56,16.5,12.5,0.74,-0.05,-0.66,0.11,0.46,-0.11026600000000131,0.17005000000000003,0.11951599999999907,True,0.0,0.0,0.0,2.7330299999999944e-07,4.28616000000001e-07,-1.4639400000000107e-07
461,9.63,-2.05,1.33,-0.02,0.01,0.0,-30.56,16.5,12.5,0.74,-0.05,-0.66,0.11,0.461,-0.12922200000000106,0.1230180000000004,0.10174200000000155,True,0.0,0.0,0.0,2.7330299999999944e-07,4.28616000000001e-07,-1.4639400000000107e-07
462,9.61,-2.04,1.37,-0.01,0.02,0.0,-30.56,16.5,12.5,0.75,-0.05,-0.66,0.11,0.462,-0.04215700000000111,0.11739599999999983,0.23440299999999858,True,0.0,0.0,0.0,2.7330299999999944e-07,4.28616000000001e-07,-1.4639400000000107e-07
463,9.61,-2.1,1.36,-0.01,0.01,0.0,-30.56,16.5,12.5,0.75,-0.05,-0.66,0.11,0.463,-0.02620700000000098,0.05908800000000004,0.24624999999999808,True,0.0,0.0,0.0,2.7330299999999944e-07,4.28616000000001e-07,-1.4639400000000107e-07
464,9.61,-2.1,1.36,-0.01,0.01,-0.0,-30.56,16.5,12.5,0.75,-0.05,-0.66,0.11,0.464,-0.02620700000000098,0.05908800000000004,0.24624999999999808,True,0.0,0.0,0.0,2.7330299999999944e-07,4.28616000000001e-07,-1.4639400000000107e-07
465,9.61,-2.1,1.3,-0.01,0.0,0.0,-29.5,16.06,11.25,0.75,-0.05,-0.66,0.11,0.465,0.03385299999999902,0.06330000000000005,0.23805999999999905,True,0.0,0.0,0.0,2.7330299999999944e-07,4.28616000000001e-07,-1.4639400000000107e-07
466,9.61,-2.11,1.3,-0.01,0.01,0.0,-29.5,16.06,11.25,0.75,-0.05,-0.66,0.11,0.466,0.03484299999999907,0.053465000000000235,0.24026199999999953,True,0.0,0.0,0.0,2.7330299999999944e-07,4.28616000000001e-07,-1.4639400000000107e-07
467,9.61,-2.11,1.3,-0.01,0.01,0.0,-29.5,16.06,11.25,0.75,-0.05,-0.66,0.11,0.467,0.03484299999999907,0.053465000000000235,0.24026199999999953,True,0.0,0.0,0.0,2.7330299999999944e-07,4.28616000000001e-07,-1.4639400000000107e-07
468,9.7,-2.04,1.27,-0.01,0.01,0.0,-29.5,16.06,11.25,0.75,-0.05,-0.66,0.11,0.468,0.0684999999999989,0.1452059999999997,0.30886300000000055,True,0.0,0.0,0.0,2.7330299999999944e-07,4.28616000000001e-07,-1.4639400000000107e-07
469,9.69,-2.02,1.27,-0.01,0.02,0.0,-29.5,16.06,11.25,0.75,-0.05,-0.66,0.11,0.469,0.06534699999999916,0.16256599999999974,0.29466899999999896,True,0.0,0.0,0.0,2.7330299999999944e-07,4.28616000000001e-07,-1.4639400000000107e-07
470,9.71,-2.03,1.26,-0.01,0.01,0.01,-29.87,16.06,12.06,0.75,-0.05,-0.66,0.11,0.47,0.07869299999999924,0.15805300000000044,0.3150859999999991,True,0.0,0.0,0.0,2.7330299999999944e-07,4.28616000000001e-07,-1.4639400000000107e-07
471,9.71,-2.05,1.27,-0.01,0.01,0.0,-29.87,16.06,12.06,0.75,-0.05,-0.66,0.11,0.471,0.07066299999999925,0.13768100000000036,0.3208549999999999,True,0.0,0.0,0.0,2.7330299999999944e-07,4.28616000000001e-07,-1.4639400000000107e-07
472,9.71,-2.05,1.27,-0.01,0.01,0.0,-29.87,16.06,12.06,0.75,-0.05,-0.66,0.11,0.472,0.07066299999999925,0.13768100000000036,0.3208549999999999,True,0.0,0.0,0.0,2.7330299999999944e-07,4.28616000000001e-07,-1.4639400000000107e-07
473,9.67,-2.09,1.27,-0.01,0.01,0.0,-29.87,16.06,12.06,0.75,-0.05,-0.66,0.11,0.473,0.06993099999999908,0.08910100000000051,0.2905029999999993,True,0.0,0.0,0.0,2.7330299999999944e-07,4.28616000000001e-07,-1.4639400000000107e-07
474,9.67,-2.12,1.28,-0.01,0.01,0.0,-29.87,16.06,12.06,0.75,-0.05,-0.66,0.11,0.474,0.06289099999999914,0.05889400000000018,0.29847400000000057,True,0.0,0.0,0.0,2.7330299999999944e-07,4.28616000000001e-07,-1.4639400000000107e-07
475,9.64,-2.06,1.3,-0.01,0.01,0.0,-29.87,15.75,10.06,0.75,-0.05,-0.66,0.11,0.475,0.03341199999999933,0.10956999999999986,0.258621999999999,True,0.0,0.0,0.0,2.7330299999999944e-07,4.28616000000001e-07,-1.4639400000000107e-07
476,9.67,-2.03,1.29,-0.0,0.01,0.0,-29.87,15.75,10.06,0.75,-0.05,-0.66,0.11,0.476,0.043970999999999316,0.1467070000000003,0.28002099999999963,True,0.0,0.0,0.0,2.7330299999999944e-07,4.28616000000001e-07,-1.4639400000000107e-07
477,9.64,-2.02,1.3,0.0,0.0,-0.0,-29.87,15.75,10.06,0.75,-0.05,-0.66,0.11,0.477,0.029451999999999368,0.14891000000000001,0.24981399999999887,True,0.0,0.0,0.0,2.7330299999999944e-07,4.28616000000001e-07,-1.4639400000000107e-07
478,9.63,-2.01,1.3,0.01,0.01,-0.0,-29.87,15.75,10.06,0.75,-0.05,-0.66,0.11,0.478,0.02728899999999923,0.15643500000000024,0.23782199999999953,True,0.0,0.0,0.0,2.7330299999999944e-07,4.28616000000001e-07,-1.4639400000000107e-07
479,9.65,-2.02,1.32,0.02,0.0,-0.0,-29.87,15.75,10.06,0.75,-0.05,-0.66,0.11,0.479,0.01060499999999931,0.14981600000000006,0.2623339999999992,True,0.0,0.0,0.0,2.7330299999999944e-07,4.28616000000001e-07,-1.4639400000000107e-07
480,9.67,-2.0,1.29,0.02,0.01,-0.01,-29.87,16.75,11.25,0.75,-0.05,-0.66,0.11,0.48,0.04100099999999918,0.1762120000000002,0.27341499999999996,True,0.0,0.0,0.0,2.7330299999999944e-07,4.28616000000001e-07,-1.4639400000000107e-07
481,9.67,-2.0,1.28,0.02,0.01,-0.0,-29.87,16.75,11.25,0.75,-0.05,-0.66,0.11,0.481,0.05101099999999903,0.17691400000000018,0.2720500000000001,True,0.0,0.0,0.0,2.7330299999999944e-07,4.28616000000001e-07,-1.4639400000000107e-07
482,9.68,-2.03,1.25,0.01,0.01,0.0,-29.87,16.75,11.25,0.75,-0.05,-0.66,0.11,0.482,0.08518399999999948,0.15182499999999988,0.28435099999999913,True,0.0,0.0,0.0,2.7330299999999944e-07,4.28616000000001e-07,-1.4639400000000107e-07
483,9.65,-2.05,1.26,0.01,0.0,0.0,-29.87,16.75,11.25,0.75,-0.05,-0.66,0.11,0.483,0.07363499999999923,0.12452300000000016,0.26074999999999804,True,0.0,0.0,0.0,2.7330299999999944e-07,4.28616000000001e-07,-1.4639400000000107e-07
484,9.64,-2.06,1.27,0.01,0.0,0.0,-29.87,16.75,11.25,0.75,-0.05,-0.66,0.11,0.484,0.06344199999999933,0.11167599999999986,0.2545269999999995,True,0.0,0.0,0.0,2.7330299999999944e-07,4.28616000000001e-07,-1.4639400000000107e-07
485,9.63,-2.04,1.33,0.01,0.0,0.0,-30.19,16.5,12.06,0.75,-0.05,-0.66,0.11,0.485,0.00022899999999914655,0.1248239999999999,0.2485230000000005,True,0.0,0.0,0.0,2.7330299999999944e-07,4.28616000000001e-07,-1.4639400000000107e-07
486,9.61,-2.03,1.34,0.01,0.01,-0.0,-30.19,16.5,12.06,0.75,-0.05,-0.66,0.11,0.486,-0.013117000000000933,0.1293370000000001,0.2281059999999986,True,0.0,0.0,0.0,2.7330299999999944e-07,4.28616000000001e-07,-1.4639400000000107e-07
487,9.63,-2.03,1.31,0.01,0.01,-0.0,-30.19,16.5,12.06,0.75,-0.05,-0.66,0.11,0.487,0.01925899999999925,0.13606300000000016,0.24359100000000034,True,0.0,0.0,0.0,2.7330299999999944e-07,4.28616000000001e-07,-1.4639400000000107e-07
488,9.64,-2.03,1.32,0.01,0.02,-0.01,-30.19,16.5,10.75,0.75,-0.05,-0.66,0.11,0.488,0.010421999999999487,0.1376710000000002,0.25474599999999903,True,0.0,0.0,0.0,2.7330299999999944e-07,4.28616000000001e-07,-1.4639400000000107e-07
489,9.61,-2.01,1.4,0.01,0.02,-0.01,-30.19,16.5,10.75,0.75,-0.05,-0.66,0.11,0.489,-0.0751570000000008,0.14479500000000017,0.23189199999999843,True,0.0,0.0,0.0,2.7330299999999944e-07,4.28616000000001e-07,-1.4639400000000107e-07
490,9.6,-2.01,1.39,0.0,0.03,-0.01,-30.19,16.5,10.75,0.75,-0.05,-0.66,0.11,0.49,-0.0663200000000006,0.14318700000000015,0.22073699999999974,True,0.0,0.0,0.0,2.7330299999999944e-07,4.28616000000001e-07,-1.4639400000000107e-07
491,9.6,-2.02,1.39,0.01,0.03,-0.01,-30.19,16.5,10.75,0.75,-0.05,-0.66,0.11,0.491,-0.06533000000000055,0.1333519999999999,0.22293899999999844,True,0.0,0.0,0.0,2.7330299999999944e-07,4.28616000000001e-07,-1.4639400000000107e-07
492,9.66,-1.97,1.38,0.01,0.03,-0.02,-30.19,16.5,10.75,0.75,-0.05,-0.66,0.11,0.492,-0.05323200000000061,0.1970890000000003,0.26930400000000176,True,0.0,0.0,0.0,2.7330299999999944e-07,4.28616000000001e-07,-1.4639400000000107e-07
493,9.64,-1.97,1.35,0.01,0.03,-0.02,-30.19,16.5,10.75,0.75,-0.05,-0.66,0.11,0.493,-0.025548000000000792,0.19457500000000022,0.2456289999999992,True,0.0,0.0,0.0,2.7330299999999944e-07,4.28616000000001e-07,-1.4639400000000107e-07
494,9.65,-1.96,1.34,0.01,0.03,-0.01,-29.19,16.5,11.25,0.75,-0.05,-0.66,0.11,0.494,-0.015355000000000896,0.20742200000000005,0.2518519999999995,True,0.0,0.0,0.0,2.7330299999999944e-07,4.28616000000001e-07,-1.4639400000000107e-07
495,9.64,-1.98,1.3,0.02,0.03,-0.01,-29.19,16.5,11.25,0.75,-0.05,-0.66,0.11,0.495,0.025491999999999404,0.18825000000000017,0.24100599999999872,True,0.0,0.0,0.0,2.7330299999999944e-07,4.28616000000001e-07,-1.4639400000000107e-07
496,9.66,-2.01,1.24,0.02,0.03,-0.01,-29.19,16.5,11.25,0.75,-0.05,-0.66,0.11,0.496,0.09086799999999928,0.16757700000000034,0.25900199999999884,True,0.0,0.0,0.0,2.7330299999999944e-07,4.28616000000001e-07,-1.4639400000000107e-07
497,9.65,-2.05,1.28,0.01,0.04,-0.01,-29.19,16.5,11.25,0.75,-0.05,-0.66,0.11,0.497,0.05361499999999908,0.12311900000000016,0.2634799999999995,True,0.0,0.0,0.0,2.7330299999999944e-07,4.28616000000001e-07,-1.4639400000000107e-07
498,9.65,-2.05,1.28,0.01,0.03,-0.01,-29.19,16.5,11.25,0.75,-0.05,-0.66,0.11,0.498,0.05361499999999908,0.12311900000000016,0.2634799999999995,True,0.0,0.0,0.0,2.7330299999999944e-07,4.28616000000001e-07,-1.4639400000000107e-07
499,9.67,-2.09,1.34,0.01,0.04,-0.01,-29.5,16.5,12.5,0.75,-0.05,-0.65,0.11,0.499,0.14872799999999886,0.10484399999999958,0.16796399999999956,True,0.0,0.0,0.0,2.7330299999999944e-07,4.28616000000001e-07,-1.4639400000000107e-07
500,9.67,-2.12,1.36,0.01,0.05,-0.01,-29.5,16.5,12.5,0.75,-0.05,-0.65,0.11,0.5,0.1320079999999988,0.07437199999999955,0.17749599999999965,True,0.0,0.0,0.0,2.7330299999999944e-07,4.28616000000001e-07,-1.4639400000000107e-07
501,9.68,-2.11,1.34,0.01,0.05,-0.01,-29.5,16.5,12.5,0.75,-0.05,-0.65,0.11,0.501,0.15203199999999883,0.08773599999999968,0.18196400000000068,True,0.0,0.0,0.0,2.7330299999999944e-07,4.28616000000001e-07,-1.4639400000000107e-07
502,9.72,-2.11,1.41,0.01,0.03,-0.01,-29.5,16.5,12.5,0.75,-0.05,-0.65,0.11,0.502,0.08822799999999908,0.092176,0.2309960000000011,True,0.0,0.0,0.0,2.7330299999999944e-07,4.28616000000001e-07,-1.4639400000000107e-07
503,9.71,-2.03,1.38,0.01,0.02,-0.01,-29.5,16.5,12.5,0.75,-0.05,-0.65,0.11,0.503,0.10850399999999905,0.1695480000000002,0.19942800000000105,True,0.0,0.0,0.0,2.7330299999999944e-07,4.28616000000001e-07,-1.4639400000000107e-07
504,9.68,-1.97,1.39,0.01,0.02,-0.01,-30.19,16.06,11.56,0.75,-0.05,-0.65,0.11,0.504,0.08873199999999892,0.22019199999999967,0.15892400000000073,True,0.0,0.0,0.0,2.7330299999999944e-07,4.28616000000001e-07,-1.4639400000000107e-07
505,9.68,-1.97,1.39,0.01,0.03,-0.01,-30.19,16.06,11.56,0.75,-0.05,-0.65,0.11,0.505,0.08873199999999892,0.22019199999999967,0.15892400000000073,True,0.0,0.0,0.0,2.7330299999999944e-07,4.28616000000001e-07,-1.4639400000000107e-07
506,9.69,-1.95,1.36,0.0,0.04,-0.01,-30.19,16.06,11.56,0.75,-0.05,-0.65,0.11,0.506,0.11761599999999883,0.2439399999999997,0.15971599999999953,True,0.0,0.0,0.0,2.7330299999999944e-07,4.28616000000001e-07,-1.4639400000000107e-07
507,9.66,-1.95,1.35,-0.01,0.04,-0.01,-30.19,16.06,11.56,0.75,-0.05,-0.65,0.11,0.507,0.1235639999999989,0.23771999999999982,0.12930000000000064,True,0.0,0.0,0.0,2.7330299999999944e-07,4.28616000000001e-07,-1.4639400000000107e-07
508,9.61,-1.97,1.37,-0.02,0.02,0.0,-31.25,16.5,12.5,0.75,-0.05,-0.65,0.11,0.508,0.09932399999999886,0.20545199999999986,0.0884520000000002,True,0.0,0.0,0.0,2.7330299999999944e-07,4.28616000000001e-07,-1.4639400000000107e-07
509,9.57,-1.99,1.4,-0.02,0.02,0.0,-31.25,16.5,12.5,0.75,-0.05,-0.65,0.11,0.509,0.06652799999999903,0.1748039999999999,0.05874000000000201,True,0.0,0.0,0.0,2.7330299999999944e-07,4.28616000000001e-07,-1.4639400000000107e-07
510,9.53,-2.01,1.41,-0.02,0.01,0.0,-31.25,16.5,12.5,0.75,-0.05,-0.65,0.11,0.51,0.053451999999998945,0.14551599999999992,0.026035999999999504,True,0.0,0.0,0.0,2.7330299999999944e-07,4.28616000000001e-07,-1.4639400000000107e-07
511,9.56,-2.02,1.39,-0.01,0.01,0.0,-31.25,16.5,12.5,0.75,-0.05,-0.65,0.11,0.511,0.07808399999999893,0.14407199999999992,0.05414400000000086,True,0.0,0.0,0.0,2.7330299999999944e-07,4.28616000000001e-07,-1.4639400000000107e-07
512,9.57,-2.03,1.44,-0.0,0.01,0.01,-31.25,16.5,12.5,0.75,-0.05,-0.65,0.11,0.512,0.031087999999999116,0.13326800000000016,0.07344400000000029,True,0.0,0.0,0.0,2.7330299999999944e-07,4.28616000000001e-07,-1.4639400000000107e-07
513,9.57,-2.03,1.44,0.0,0.01,0.01,-31.25,16.5,12.5,0.75,-0.05,-0.65,0.11,0.513,0.031087999999999116,0.13326800000000016,0.07344400000000029,True,0.0,0.0,0.0,2.7330299999999944e-07,4.28616000000001e-07,-1.4639400000000107e-07
514,9.64,-2.03,1.43,0.01,0.01,0.01,-30.19,16.75,11.56,0.75,-0.05,-0.65,0.11,0.514,0.05007599999999912,0.15004799999999996,0.13942799999999878,True,0.0,0.0,0.0,2.7330299999999944e-07,4.28616000000001e-07,-1.4639400000000107e-07
515,9.68,-2.04,1.44,0.01,0.01,0.01,-30.19,16.75,11.56,0.75,-0.05,-0.65,0.11,0.515,0.04643199999999892,0.14886399999999966,0.18166400000000138,True,0.0,0.0,0.0,2.7330299999999944e-07,4.28616000000001e-07,-1.4639400000000107e-07
516,9.68,-2.04,1.44,0.01,0.01,0.01,-30.19,16.75,11.56,0.75,-0.05,-0.65,0.11,0.516,0.04643199999999892,0.14886399999999966,0.18166400000000138,True,0.0,0.0,0.0,2.7330299999999944e-07,4.28616000000001e-07,-1.4639400000000107e-07
517,9.66,-2.07,1.37,0.0,0.01,0.0,-30.19,16.75,11.56,0.75,-0.05,-0.65,0.11,0.517,0.11584399999999895,0.11991199999999991,0.15845200000000048,True,0.0,0.0,0.0,2.7330299999999944e-07,4.28616000000001e-07,-1.4639400000000107e-07
518,9.63,-2.05,1.35,-0.0,0.01,0.01,-30.19,16.75,11.56,0.75,-0.05,-0.65,0.11,0.518,0.129651999999999,0.1337799999999999,0.12218000000000018,True,0.0,0.0,0.0,2.7330299999999944e-07,4.28616000000001e-07,-1.4639400000000107e-07
519,9.63,-2.09,1.34,-0.01,0.02,0.01,-30.19,16.75,10.88,0.75,-0.05,-0.65,0.11,0.519,0.14351199999999897,0.0956439999999997,0.12940400000000096,True,0.0,0.0,0.0,2.7330299999999944e-07,4.28616000000001e-07,-1.4639400000000107e-07
520,9.63,-2.06,1.33,-0.01,0.01,0.0,-30.19,16.75,10.88,0.75,-0.05,-0.65,0.11,0.52,0.15037199999999884,0.12543599999999971,0.12136800000000214,True,0.0,0.0,0.0,2.7330299999999944e-07,4.28616000000001e-07,-1.4639400000000107e-07
521,9.64,-2.05,1.32,-0.01,0.02,0.0,-30.19,16.75,10.88,0.75,-0.05,-0.65,0.11,0.521,0.1605359999999989,0.13811999999999985,0.1273319999999991,True,0.0,0.0,0.0,2.7330299999999944e-07,4.28616000000001e-07,-1.4639400000000107e-07
522,9.64,-2.03,1.38,-0.0,0.02,0.0,-30.19,16.75,10.88,0.75,-0.05,-0.65,0.11,0.522,0.09937599999999902,0.15344799999999997,0.1319479999999995,True,0.0,0.0,0.0,2.7330299999999944e-07,4.28616000000001e-07,-1.4639400000000107e-07
523,9.66,-2.04,1.41,0.0,0.02,0.0,-30.19,16.75,10.88,0.75,-0.05,-0.65,0.11,0.523,0.07340399999999891,0.1463039999999997,0.15789600000000092,True,0.0,0.0,0.0,2.7330299999999944e-07,4.28616000000001e-07,-1.4639400000000107e-07
524,9.7,-2.01,1.43,0.01,0.02,0.01,-30.19,16.5,10.88,0.75,-0.05,-0.65,0.11,0.524,0.05589999999999895,0.18325599999999986,0.19290799999999741,True,0.0,0.0,0.0,2.7330299999999944e-07,4.28616000000001e-07,-1.4639400000000107e-07
525,9.68,-2.02,1.45,0.01,0.02,0.01,-30.19,16.5,10.88,0.75,-0.05,-0.65,0.11,0.525,0.034571999999998715,0.16759199999999952,0.17880000000000074,True,0.0,0.0,0.0,2.7330299999999944e-07,4.28616000000001e-07,-1.4639400000000107e-07
526,9.68,-2.0,1.39,0.0,0.01,0.01,-30.19,16.5,10.88,0.75,-0.05,-0.65,0.11,0.526,0.09173199999999881,0.19107999999999964,0.16546400000000006,True,0.0,0.0,0.0,2.7330299999999944e-07,4.28616000000001e-07,-1.4639400000000107e-07
527,9.69,-1.99,1.38,-0.0,0.01,0.01,-30.19,16.5,10.88,0.75,-0.05,-0.65,0.11,0.527,0.10189599999999888,0.20376399999999956,0.17142800000000058,True,0.0,0.0,0.0,2.7330299999999944e-07,4.28616000000001e-07,-1.4639400000000107e-07
528,9.69,-1.99,1.38,-0.0,0.01,0.01,-30.19,16.5,10.88,0.75,-0.05,-0.65,0.11,0.528,0.10189599999999888,0.20376399999999956,0.17142800000000058,True,0.0,0.0,0.0,2.7330299999999944e-07,4.28616000000001e-07,-1.4639400000000107e-07
529,9.63,-2.05,1.39,-0.01,0.01,0.01,-29.5,16.5,12.5,0.75,-0.05,-0.65,0.11,0.529,0.09021199999999907,0.1310599999999999,0.12816399999999994,True,0.0,0.0,0.0,2.7330299999999944e-07,4.28616000000001e-07,-1.4639400000000107e-07
530,9.61,-2.08,1.4,-0.01,0.01,0.01,-29.5,16.5,12.5,0.75,-0.05,-0.65,0.11,0.53,0.08074399999999882,0.09666799999999992,0.11692000000000036,True,0.0,0.0,0.0,2.7330299999999944e-07,4.28616000000001e-07,-1.4639400000000107e-07
531,9.61,-2.08,1.4,-0.02,0.01,0.02,-29.5,16.5,12.5,0.75,-0.05,-0.65,0.11,0.531,0.08074399999999882,0.09666799999999992,0.11692000000000036,True,0.0,0.0,0.0,2.7330299999999944e-07,4.28616000000001e-07,-1.4639400000000107e-07
532,9.6,-2.05,1.43,-0.02,0.01,0.02,-29.5,16.5,12.5,0.75,-0.05,-0.65,0.11,0.532,0.046859999999999014,0.12143999999999998,0.10522799999999854,True,0.0,0.0,0.0,2.7330299999999944e-07,4.28616000000001e-07,-1.4639400000000107e-07
533,9.64,-2.06,1.42,-0.02,0.0,0.01,-29.5,16.5,12.5,0.75,-0.05,-0.65,0.11,0.533,0.06293599999999899,0.1216159999999997,0.14447200000000038,True,0.0,0.0,0.0,2.7330299999999944e-07,4.28616000000001e-07,-1.4639400000000107e-07
534,9.65,-2.05,1.42,-0.01,0.0,0.01,-29.87,17.19,10.06,0.75,-0.05,-0.65,0.11,0.534,0.06323999999999907,0.13361999999999982,0.1519320000000004,True,0.0,0.0,0.0,2.7330299999999944e-07,4.28616000000001e-07,-1.4639400000000107e-07
535,9.72,-2.07,1.37,-0.01,-0.0,0.02,-29.87,17.19,10.06,0.75,-0.05,-0.65,0.11,0.535,0.123667999999999,0.13371200000000016,0.21629200000000104,True,0.0,0.0,0.0,2.7330299999999944e-07,4.28616000000001e-07,-1.4639400000000107e-07
536,9.72,-2.09,1.29,-0.0,-0.01,0.02,-29.87,17.19,10.06,0.75,-0.05,-0.65,0.11,0.536,0.20454799999999906,0.11974399999999986,0.20868399999999987,True,0.0,0.0,0.0,2.7330299999999944e-07,4.28616000000001e-07,-1.4639400000000107e-07
537,9.72,-2.08,1.32,-0.01,-0.01,0.02,-29.87,17.19,10.06,0.75,-0.05,-0.65,0.11,0.537,0.1739679999999988,0.12740800000000002,0.21099200000000096,True,0.0,0.0,0.0,2.7330299999999944e-07,4.28616000000001e-07,-1.4639400000000107e-07
538,9.67,-2.08,1.33,-0.02,-0.01,0.02,-29.87,17.19,10.06,0.75,-0.05,-0.65,0.11,0.538,0.15758799999999873,0.11522799999999973,0.16428800000000088,True,0.0,0.0,0.0,2.7330299999999944e-07,4.28616000000001e-07,-1.4639400000000107e-07
539,9.64,-2.06,1.34,-0.03,-0.01,0.02,-29.87,15.75,11.56,0.75,-0.05,-0.65,0.11,0.539,0.14181599999999883,0.1270559999999997,0.13250400000000084,True,0.0,0.0,0.0,2.7330299999999944e-07,4.28616000000001e-07,-1.4639400000000107e-07
540,9.61,-2.1,1.36,-0.03,-0.01,0.02,-29.87,15.75,11.56,0.75,-0.05,-0.65,0.11,0.54,0.12218399999999874,0.07997999999999961,0.11529599999999895,True,0.0,0.0,0.0,2.7330299999999944e-07,4.28616000000001e-07,-1.4639400000000107e-07
541,9.6,-2.11,1.34,-0.03,-0.01,0.01,-29.87,15.75,11.56,0.75,-0.05,-0.65,0.11,0.541,0.14159999999999884,0.06933599999999993,0.10484399999999994,True,0.0,0.0,0.0,2.7330299999999944e-07,4.28616000000001e-07,-1.4639400000000107e-07
542,9.6,-2.1,1.42,-0.01,-0.0,0.01,-29.87,15.75,11.56,0.75,-0.05,-0.65,0.11,0.542,0.06171999999999889,0.07359999999999964,0.11463200000000029,True,0.0,0.0,0.0,2.7330299999999944e-07,4.28616000000001e-07,-1.4639400000000107e-07
543,9.64,-2.08,1.44,-0.0,-0.0,0.01,-29.87,15.75,11.56,0.75,-0.05,-0.65,0.11,0.543,0.045215999999999035,0.10084799999999983,0.1518240000000013,True,0.0,0.0,0.0,2.7330299999999944e-07,4.28616000000001e-07,-1.4639400000000107e-07
544,9.65,-2.08,1.46,0.01,-0.0,0.01,-29.5,16.5,11.25,0.75,-0.05,-0.65,0.11,0.544,0.026799999999998825,0.1017879999999998,0.16445600000000127,True,0.0,0.0,0.0,2.7330299999999944e-07,4.28616000000001e-07,-1.4639400000000107e-07
545,9.64,-2.09,1.47,0.0,-0.01,0.01,-29.5,16.5,11.25,0.75,-0.05,-0.65,0.11,0.545,0.016635999999998985,0.08910399999999967,0.15849200000000074,True,0.0,0.0,0.0,2.7330299999999944e-07,4.28616000000001e-07,-1.4639400000000107e-07
546,9.64,-2.09,1.47,0.0,-0.0,0.01,-29.5,16.5,11.25,0.75,-0.05,-0.65,0.11,0.546,0.016635999999998985,0.08910399999999967,0.15849200000000074,True,0.0,0.0,0.0,2.7330299999999944e-07,4.28616000000001e-07,-1.4639400000000107e-07
547,9.63,-2.08,1.46,0.0,-0.0,0.01,-29.5,16.5,11.25,0.75,-0.05,-0.65,0.11,0.547,0.02419199999999888,0.09718799999999986,0.14517600000000108,True,0.0,0.0,0.0,2.7330299999999944e-07,4.28616000000001e-07,-1.4639400000000107e-07
548,9.6,-2.1,1.43,0.0,-0.0,0.01,-30.19,16.75,11.25,0.75,-0.05,-0.65,0.11,0.548,0.05185999999999891,0.07291999999999964,0.11612799999999979,True,0.0,0.0,0.0,2.7330299999999944e-07,4.28616000000001e-07,-1.4639400000000107e-07
549,9.57,-2.09,1.45,-0.01,-0.0,0.0,-30.19,16.75,11.25,0.75,-0.05,-0.65,0.11,0.549,0.02722799999999892,0.07436399999999989,0.08802000000000021,True,0.0,0.0,0.0,2.7330299999999944e-07,4.28616000000001e-07,-1.4639400000000107e-07
550,9.58,-2.08,1.44,-0.01,-0.01,0.0,-30.19,16.75,11.25,0.75,-0.05,-0.65,0.11,0.55,0.03739199999999898,0.08704800000000001,0.09398400000000073,True,0.0,0.0,0.0,2.7330299999999944e-07,4.28616000000001e-07,-1.4639400000000107e-07
551,9.58,-2.08,1.44,-0.02,-0.0,0.0,-30.19,16.75,11.25,0.75,-0.05,-0.65,0.11,0.551,0.03739199999999898,0.08704800000000001,0.09398400000000073,True,0.0,0.0,0.0,2.7330299999999944e-07,4.28616000000001e-07,-1.4639400000000107e-07
552,9.59,-2.06,1.47,-0.01,-0.01,-0.0,-30.19,16.75,11.25,0.75,-0.05,-0.65,0.11,0.552,0.00711599999999879,0.10671599999999985,0.10375200000000184,True,0.0,0.0,0.0,2.7330299999999944e-07,4.28616000000001e-07,-1.4639400000000107e-07
553,9.59,-2.06,1.47,-0.01,-0.01,0.0,-29.87,17.19,12.88,0.75,-0.05,-0.65,0.11,0.553,0.00711599999999879,0.10671599999999985,0.10375200000000184,True,0.0,0.0,0.0,2.7330299999999944e-07,4.28616000000001e-07,-1.4639400000000107e-07
554,9.6,-2.05,1.45,-0.01,-0.01,0.0,-29.87,17.19,12.88,0.75,-0.05,-0.65,0.11,0.554,0.02713999999999883,0.12007999999999998,0.10821999999999932,True,0.0,0.0,0.0,2.7330299999999944e-07,4.28616000000001e-07,-1.4639400000000107e-07
