Timestamp, AccelX, AccelY, AccelZ, GyroX, GyroY, GyroZ, MagX, MagY, MagZ, QuatW, QuatX, QuatY, QuatZ,Time_s,GlobalAx,GlobalAy,GlobalAz,Stationary,VelX,VelY,VelZ
0,9.6,-1.12,-0.43,-0.04,0.09,-0.0,-21.06,23.25,35.06,0.7,-0.08,-0.71,-0.01,0.0,0.20893999999999954,-0.20421800000000007,-0.1339320000000015,True,0.0,0.0,0.0
1,9.52,-1.16,-0.44,-0.05,0.1,-0.0,-21.06,23.25,35.06,0.7,-0.08,-0.71,-0.01,0.001,0.21438399999999957,-0.25295199999999984,-0.20946400000000054,True,0.0,0.0,0.0
2,9.44,-1.18,-0.45,-0.05,0.11,-0.0,-21.06,23.25,35.06,0.7,-0.09,-0.71,-0.01,0.002,0.2215819999999994,-0.1521800000000001,-0.26777900000000265,True,0.0,0.0,0.0
3,9.51,-1.19,-0.35,-0.06,0.12,-0.01,-21.06,23.25,35.06,0.7,-0.09,-0.71,-0.01,0.003,0.12051699999999935,-0.14005299999999982,-0.19916500000000248,True,0.0,0.0,0.0
4,9.61,-1.17,-0.27,-0.05,0.13,-0.01,-21.06,23.25,35.06,0.7,-0.09,-0.71,-0.01,0.004,0.043366999999999406,-0.09773899999999996,-0.10358900000000126,True,0.0,0.0,0.0
5,9.61,-1.15,-0.18,-0.06,0.14,-0.01,-13.69,15.0,19.06,0.7,-0.09,-0.71,-0.01,0.005,-0.04309500000000058,-0.06540299999999984,-0.10781400000000119,True,0.0,0.0,0.0
6,9.46,-1.13,-0.21,-0.07,0.15,-0.01,-13.69,15.0,19.06,0.7,-0.09,-0.71,-0.01,0.006,-0.009578000000000586,-0.06696099999999985,-0.258757000000001,True,0.0,0.0,0.0
7,9.47,-1.11,-0.19,-0.07,0.16,-0.02,-13.69,15.0,19.06,0.7,-0.09,-0.71,-0.01,0.007,-0.026647000000000587,-0.04330099999999987,-0.2514770000000013,True,0.0,0.0,0.0
8,9.55,-1.03,-0.22,-0.06,0.16,-0.02,-13.69,15.0,19.06,0.7,-0.09,-0.71,-0.01,0.008,0.013974999999999405,0.040469000000000185,-0.18009400000000042,True,0.0,0.0,0.0
9,9.58,-1.04,-0.27,-0.06,0.17,-0.02,-13.69,15.0,19.06,0.7,-0.09,-0.71,-0.01,0.009,0.06198399999999937,0.027013999999999927,-0.14799700000000016,True,0.0,0.0,0.0
10,9.58,-1.04,-0.27,-0.05,0.18,-0.02,-13.5,14.25,20.5,0.7,-0.09,-0.71,-0.01,0.01,0.06198399999999937,0.027013999999999927,-0.14799700000000016,True,0.0,0.0,0.0
11,9.47,-0.98,-0.35,-0.02,0.2,-0.02,-13.5,14.25,20.5,0.7,-0.09,-0.71,-0.01,0.011,0.15053899999999937,0.06243400000000016,-0.26247500000000024,True,0.0,0.0,0.0
12,9.5,-1.02,-0.4,0.0,0.21,-0.02,-13.5,14.25,20.5,0.7,-0.09,-0.7,-0.01,0.012,0.32447999999999994,0.016764000000000154,-0.36546000000000056,True,0.0,0.0,0.0
13,9.55,-1.09,-0.34,0.03,0.22,-0.01,-13.5,14.25,20.5,0.71,-0.09,-0.7,-0.01,0.013,0.3955850000000005,-0.055153000000000084,-0.17814200000000113,True,0.0,0.0,0.0
14,9.53,-1.17,-0.25,0.03,0.24,-0.02,-13.5,14.25,20.5,0.71,-0.09,-0.7,-0.01,0.014,0.2946290000000005,-0.12349900000000004,-0.18840500000000304,True,0.0,0.0,0.0
15,9.53,-1.16,-0.06,0.02,0.25,-0.02,-13.75,15.0,20.5,0.71,-0.09,-0.7,-0.01,0.015,0.10751300000000051,-0.08669799999999998,-0.188384000000001,True,0.0,0.0,0.0
16,9.52,-1.13,0.04,0.01,0.26,-0.02,-13.75,15.0,20.5,0.71,-0.09,-0.7,-0.01,0.016,0.012278000000000518,-0.04405899999999997,-0.20114600000000138,True,0.0,0.0,0.0
17,9.4,-0.97,0.18,0.0,0.26,-0.03,-13.75,15.0,20.5,0.71,-0.09,-0.7,-0.01,0.017,-0.10684999999999945,0.12012100000000014,-0.3379960000000004,False,1.2278000000000529e-05,-4.405900000000001e-05,-0.00020114600000000155
18,9.37,-0.93,0.3,0.0,0.27,-0.03,-13.75,15.0,20.5,0.71,-0.09,-0.7,-0.01,0.018,-0.22096899999999944,0.17321899999999976,-0.37169000000000274,False,-9.457199999999863e-05,7.606199999999981e-05,-0.0005391420000000011
19,9.39,-0.96,0.34,0.01,0.29,-0.03,-13.75,15.0,20.5,0.71,-0.09,-0.7,-0.01,0.019,-0.26442099999999946,0.15155000000000016,-0.348116000000001,False,-0.0003155409999999983,0.00024928099999999974,-0.0009108320000000042
20,9.42,-0.95,0.34,0.01,0.31,-0.03,-13.25,14.19,19.69,0.71,-0.09,-0.7,-0.01,0.02,-0.2623559999999995,0.16476300000000008,-0.31938000000000066,True,0.0,0.0,0.0
21,9.42,-0.95,0.34,0.01,0.34,-0.04,-13.25,14.19,19.69,0.71,-0.09,-0.7,-0.01,0.021,-0.2623559999999995,0.16476300000000008,-0.31938000000000066,True,0.0,0.0,0.0
22,9.51,-0.98,0.42,0.01,0.38,-0.04,-13.25,14.19,19.69,0.71,-0.08,-0.69,-0.01,0.022,-0.20675899999999958,0.014144000000000038,-0.36996800000000185,True,0.0,0.0,0.0
23,9.49,-1.01,0.39,0.02,0.41,-0.04,-13.25,14.19,19.69,0.71,-0.08,-0.69,-0.01,0.023,-0.18183699999999958,-0.020812999999999984,-0.3872530000000012,True,0.0,0.0,0.0
24,9.38,-1.04,0.4,0.03,0.44,-0.04,-13.25,14.19,19.69,0.72,-0.08,-0.69,-0.01,0.024,-0.07072399999999973,-0.07543999999999992,-0.35516799999999904,False,-0.00018183699999999974,-2.0813000000000002e-05,-0.0003872530000000015
25,9.05,-1.11,0.19,0.03,0.47,-0.04,-13.75,13.38,19.25,0.72,-0.08,-0.69,-0.01,0.025,0.1128220000000002,-0.20336999999999997,-0.6840460000000004,False,-0.00025256099999999956,-9.6253e-05,-0.0007424210000000009
26,9.06,-1.14,0.08,0.04,0.51,-0.05,-13.75,13.38,19.25,0.72,-0.08,-0.69,-0.01,0.026,0.2186840000000002,-0.2462399999999999,-0.6750120000000006,False,-0.00013973899999999967,-0.0002996229999999994,-0.0014264669999999994
27,9.16,-1.15,-0.05,0.05,0.55,-0.04,-13.75,13.38,19.25,0.72,-0.08,-0.69,-0.01,0.027,0.3512560000000002,-0.26328999999999986,-0.5791579999999996,False,7.894500000000073e-05,-0.0005458629999999995,-0.0021014790000000007
28,9.34,-1.24,-0.27,0.06,0.6,-0.04,-13.75,13.38,19.25,0.72,-0.08,-0.69,-0.01,0.028,0.5670120000000001,-0.36331,-0.39881600000000006,False,0.0004302010000000012,-0.0008091529999999996,-0.002680637000000001
29,9.38,-1.24,-0.15,0.05,0.66,-0.05,-13.75,13.38,19.25,0.73,-0.08,-0.68,-0.01,0.029,0.716047999999998,-0.36207599999999995,-0.3641899999999989,True,0.0,0.0,0.0
30,9.46,-1.26,0.01,0.03,0.69,-0.06,-14.19,14.19,17.25,0.73,-0.08,-0.68,-0.01,0.03,0.5611319999999981,-0.35345199999999993,-0.2723019999999998,True,0.0,0.0,0.0
31,9.63,-1.15,0.24,0.02,0.69,-0.07,-14.19,14.19,17.25,0.73,-0.08,-0.68,-0.01,0.031,0.35978599999999816,-0.19867800000000002,-0.0998399999999986,True,0.0,0.0,0.0
32,9.76,-0.9,0.95,0.02,0.66,-0.09,-14.19,14.19,17.25,0.73,-0.08,-0.68,-0.01,0.032,-0.30313200000000196,0.15335199999999982,0.0492139999999992,True,0.0,0.0,0.0
33,9.76,-0.9,0.95,0.03,0.6,-0.1,-14.19,14.19,17.25,0.73,-0.08,-0.67,-0.01,0.033,-0.15606200000000192,0.149696,-0.0802770000000006,True,0.0,0.0,0.0
34,9.69,-0.87,1.32,0.03,0.54,-0.09,-14.19,14.19,17.25,0.74,-0.08,-0.67,-0.01,0.034,-0.39549000000000134,0.208032,0.027426000000000172,True,0.0,0.0,0.0
35,9.69,-0.87,1.32,0.03,0.54,-0.09,-15.5,13.75,16.25,0.74,-0.08,-0.67,-0.01,0.035,-0.39549000000000134,0.208032,0.027426000000000172,True,0.0,0.0,0.0
36,9.18,-0.95,1.58,0.03,0.5,-0.08,-15.5,13.75,16.25,0.74,-0.08,-0.67,-0.01,0.036,-0.7162000000000014,0.1159760000000001,-0.4466820000000009,False,-0.00039548999999999894,0.00020803199999999873,2.7426000000000008e-05
37,9.19,-0.91,1.47,-0.0,0.46,-0.09,-15.5,13.75,16.25,0.74,-0.08,-0.67,-0.02,0.037,-0.6152430000000015,0.025960999999999818,-0.448163000000001,False,-0.001111690000000001,0.00032400799999999895,-0.0004192560000000013
38,9.28,-0.8,1.51,-0.02,0.44,-0.08,-15.5,13.75,16.25,0.74,-0.08,-0.66,-0.02,0.038,-0.48325600000000124,0.14280799999999988,-0.4819400000000016,False,-0.001726933000000003,0.0003499689999999988,-0.0008674190000000027
39,9.41,-0.7,1.59,-0.02,0.42,-0.07,-15.5,13.75,16.25,0.74,-0.08,-0.66,-0.02,0.039,-0.5322840000000011,0.26191200000000003,-0.35526000000000124,True,0.0,0.0,0.0
40,9.41,-0.7,1.64,0.01,0.4,-0.07,-17.0,15.0,15.5,0.75,-0.08,-0.66,-0.02,0.04,-0.46268300000000084,0.2575820000000001,-0.20019200000000126,True,0.0,0.0,0.0
41,9.38,-0.67,1.7,0.03,0.39,-0.07,-17.0,15.0,15.5,0.75,-0.08,-0.66,-0.02,0.041,-0.5218100000000006,0.2938370000000001,-0.2255420000000008,True,0.0,0.0,0.0
42,9.38,-0.67,1.7,0.06,0.38,-0.06,-17.0,15.0,15.5,0.75,-0.08,-0.66,-0.02,0.042,-0.5218100000000006,0.2938370000000001,-0.2255420000000008,True,0.0,0.0,0.0
43,9.45,-0.85,2.45,0.1,0.32,-0.05,-17.0,15.0,15.5,0.75,-0.08,-0.66,-0.02,0.043,-1.2770150000000011,0.23049500000000006,-0.04849500000000084,True,0.0,0.0,0.0
44,9.54,-0.88,2.71,0.1,0.28,-0.04,-17.25,13.19,15.06,0.75,-0.08,-0.66,-0.02,0.044,-1.5256900000000009,0.24562399999999995,0.07513499999999773,True,0.0,0.0,0.0
45,9.58,-0.91,2.85,0.09,0.22,-0.04,-17.25,13.19,15.06,0.75,-0.08,-0.65,-0.02,0.045,-1.4928900000000012,0.23485799999999984,0.028596000000000288,True,0.0,0.0,0.0
46,9.32,-0.79,2.78,0.09,0.18,-0.04,-17.25,13.19,15.06,0.75,-0.08,-0.65,-0.02,0.046,-1.446744000000001,0.32278199999999985,-0.24639599999999895,True,0.0,0.0,0.0
47,9.2,-0.82,2.76,0.08,0.16,-0.03,-17.25,13.19,15.06,0.75,-0.08,-0.65,-0.02,0.047,-1.4488480000000008,0.28163599999999994,-0.3636400000000002,True,0.0,0.0,0.0
48,9.26,-0.9,2.63,0.08,0.12,-0.01,-17.25,13.19,15.06,0.75,-0.07,-0.65,-0.02,0.048,-1.3277160000000003,0.02766000000000013,-0.32810699999999926,True,0.0,0.0,0.0
49,9.26,-0.9,2.63,0.09,0.09,0.0,-19.06,13.38,14.38,0.75,-0.07,-0.65,-0.02,0.049,-1.3277160000000003,0.02766000000000013,-0.32810699999999926,True,0.0,0.0,0.0
50,9.42,-0.81,2.03,0.1,0.07,0.01,-19.06,13.38,14.38,0.75,-0.07,-0.65,-0.02,0.05,-0.7103860000000002,0.04699300000000006,-0.26006899999999966,True,0.0,0.0,0.0
51,9.35,-0.81,1.75,0.13,0.06,0.01,-19.06,13.38,14.38,0.75,-0.07,-0.65,-0.02,0.051,-0.4482850000000005,0.006043000000000076,-0.3664549999999984,True,0.0,0.0,0.0
52,9.35,-0.81,1.75,0.13,0.06,0.01,-19.06,13.38,14.38,0.75,-0.07,-0.65,-0.02,0.052,-0.4482850000000005,0.006043000000000076,-0.3664549999999984,True,0.0,0.0,0.0
53,9.26,-0.89,1.27,0.18,0.06,0.02,-19.06,13.38,14.38,0.75,-0.07,-0.65,-0.01,0.053,0.01003599999999949,-0.018579999999999902,-0.514952000000001,False,-0.0004482850000000009,6.043000000000082e-06,-0.00036645499999999877
54,9.26,-0.89,1.27,0.18,0.06,0.02,-19.06,13.38,14.38,0.75,-0.07,-0.65,-0.01,0.054,0.01003599999999949,-0.018579999999999902,-0.514952000000001,False,-0.0004382490000000014,-1.2536999999999836e-05,-0.0008814070000000003
55,9.42,-1.04,1.13,0.21,0.07,0.01,-20.0,12.75,13.69,0.76,-0.07,-0.65,-0.01,0.055,0.28095199999999965,-0.18594600000000006,-0.22287700000000044,True,0.0,0.0,0.0
56,9.44,-1.09,1.05,0.2,0.07,0.0,-20.0,12.75,13.69,0.76,-0.07,-0.65,-0.01,0.056,0.3577679999999994,-0.24373700000000018,-0.2104430000000015,True,0.0,0.0,0.0
57,9.37,-1.15,1.09,0.18,0.08,-0.01,-20.0,12.75,13.69,0.76,-0.07,-0.65,-0.01,0.057,0.3007389999999994,-0.30397300000000005,-0.268085000000001,True,0.0,0.0,0.0
58,9.33,-1.19,1.16,0.14,0.09,-0.02,-20.0,12.75,13.69,0.76,-0.07,-0.65,-0.01,0.058,0.2210329999999996,-0.33845100000000006,-0.29340400000000066,True,0.0,0.0,0.0
59,9.34,-1.18,1.18,0.1,0.1,-0.03,-20.75,13.5,13.69,0.76,-0.07,-0.65,-0.01,0.059,0.20396199999999998,-0.3253539999999999,-0.28143799999999963,True,0.0,0.0,0.0
60,9.37,-1.17,1.22,0.06,0.11,-0.04,-20.75,13.5,13.69,0.76,-0.07,-0.65,-0.01,0.06,0.17035699999999943,-0.3083529999999999,-0.24667800000000106,True,0.0,0.0,0.0
61,9.3,-0.93,1.3,0.03,0.12,-0.05,-20.75,13.5,13.69,0.76,-0.07,-0.65,-0.01,0.061,0.10572399999999949,-0.06528299999999998,-0.3263280000000002,False,0.0001703569999999996,-0.00030835300000000014,-0.00024667800000000126
62,9.3,-0.78,1.47,0.02,0.12,-0.05,-20.75,13.5,13.69,0.76,-0.07,-0.65,-0.01,0.062,-0.04606800000000044,0.10427999999999998,-0.3147870000000008,False,0.00027608099999999915,-0.00037363600000000016,-0.0005730060000000018
63,9.31,-0.72,1.58,0.04,0.13,-0.06,-20.75,13.5,13.69,0.76,-0.07,-0.65,-0.01,0.063,-0.1466230000000004,0.17787800000000006,-0.293963999999999,True,0.0,0.0,0.0
64,9.34,-0.72,1.79,0.06,0.12,-0.05,-21.37,13.25,12.5,0.76,-0.07,-0.65,-0.01,0.064,-0.3490120000000003,0.20522600000000008,-0.23271900000000123,True,0.0,0.0,0.0
65,9.34,-0.72,1.79,0.07,0.12,-0.05,-21.37,13.25,12.5,0.76,-0.07,-0.65,-0.01,0.065,-0.3490120000000003,0.20522600000000008,-0.23271900000000123,True,0.0,0.0,0.0
66,9.41,-0.73,1.96,0.06,0.11,-0.05,-21.37,13.25,12.5,0.76,-0.07,-0.65,-0.01,0.066,-0.5066030000000004,0.22087900000000005,-0.13697600000000065,True,0.0,0.0,0.0
67,9.37,-0.7,2.06,0.04,0.1,-0.04,-21.37,13.25,12.5,0.76,-0.07,-0.65,-0.01,0.067,-0.6084730000000007,0.25964000000000004,-0.16432400000000058,True,0.0,0.0,0.0
68,9.37,-0.7,2.06,0.03,0.08,-0.04,-21.37,13.25,12.5,0.76,-0.07,-0.65,-0.01,0.068,-0.6084730000000007,0.25964000000000004,-0.16432400000000058,True,0.0,0.0,0.0
69,9.43,-0.59,2.25,0.02,0.06,-0.03,-21.75,14.56,13.56,0.76,-0.07,-0.65,-0.01,0.069,-0.7746510000000004,0.39633500000000005,-0.08667699999999989,True,0.0,0.0,0.0
70,9.43,-0.59,2.25,0.02,0.06,-0.03,-21.75,14.56,13.56,0.76,-0.07,-0.65,-0.01,0.07,-0.7746510000000004,0.39633500000000005,-0.08667699999999989,True,0.0,0.0,0.0
71,9.31,-0.65,2.18,0.03,0.04,-0.01,-21.75,14.56,13.56,0.76,-0.07,-0.65,-0.01,0.071,-0.7311490000000003,0.31917500000000004,-0.21032199999999968,True,0.0,0.0,0.0
72,9.38,-0.82,2.08,0.04,0.03,-0.01,-21.75,14.56,13.56,0.76,-0.07,-0.65,-0.01,0.072,-0.6393500000000001,0.1433740000000001,-0.14021600000000056,True,0.0,0.0,0.0
73,9.39,-0.81,2.02,0.02,0.02,0.0,-21.75,14.56,13.56,0.76,-0.06,-0.65,-0.01,0.073,-0.579574,-0.006908000000000025,-0.1518379999999997,True,0.0,0.0,0.0
74,9.36,-0.76,1.98,0.01,0.0,0.0,-21.06,13.75,13.25,0.76,-0.06,-0.65,-0.01,0.074,-0.5402000000000002,0.03685999999999995,-0.19148800000000143,True,0.0,0.0,0.0
75,9.32,-0.72,1.9,0.02,-0.0,0.01,-21.06,13.75,13.25,0.76,-0.06,-0.65,-0.01,0.075,-0.46387200000000006,0.06586799999999998,-0.24631199999999787,True,0.0,0.0,0.0
76,9.31,-0.69,1.95,0.03,-0.01,0.01,-21.06,13.75,13.25,0.76,-0.06,-0.65,-0.01,0.076,-0.5120020000000001,0.10034200000000007,-0.2509700000000006,True,0.0,0.0,0.0
77,9.32,-0.75,1.94,0.04,-0.01,0.01,-21.06,13.75,13.25,0.76,-0.06,-0.64,-0.01,0.077,-0.3555239999999995,0.038247,-0.3543900000000004,True,0.0,0.0,0.0
78,9.31,-0.85,1.89,0.05,-0.02,0.02,-21.06,13.75,13.25,0.76,-0.06,-0.64,-0.01,0.078,-0.31785899999999945,-0.065919,-0.3645150000000008,True,0.0,0.0,0.0
79,9.31,-0.85,1.89,0.05,-0.03,0.02,-21.75,14.19,13.25,0.76,-0.06,-0.64,-0.01,0.079,-0.31785899999999945,-0.065919,-0.3645150000000008,True,0.0,0.0,0.0
80,9.28,-0.88,1.74,0.03,-0.03,0.02,-21.75,14.19,13.25,0.76,-0.06,-0.64,-0.01,0.08,-0.18002399999999974,-0.11287200000000008,-0.41605800000000137,True,0.0,0.0,0.0
81,9.31,-0.83,1.66,0.02,-0.03,0.01,-21.75,14.19,13.25,0.76,-0.06,-0.64,-0.01,0.081,-0.09255099999999938,-0.07016899999999993,-0.4039179999999991,True,0.0,0.0,0.0
82,9.29,-0.79,1.63,0.01,-0.03,0.01,-21.75,14.19,13.25,0.76,-0.06,-0.64,-0.01,0.082,-0.06315299999999979,-0.03518100000000013,-0.43146900000000343,True,0.0,0.0,0.0
83,9.27,-0.69,1.51,0.0,-0.03,0.0,-21.75,14.19,13.25,0.76,-0.06,-0.64,-0.01,0.083,0.05920900000000029,0.04945699999999992,-0.47852900000000176,False,-6.315299999999985e-05,-3.5181000000000163e-05,-0.0004314690000000038
84,9.29,-0.67,1.5,0.0,-0.02,0.0,-21.87,14.25,12.75,0.76,-0.06,-0.65,-0.01,0.084,-0.06925000000000003,0.07212399999999997,-0.34053800000000223,False,-3.943999999999507e-06,1.42759999999998e-05,-0.000909998000000006
85,9.36,-0.69,1.5,0.01,-0.02,0.0,-21.87,14.25,12.75,0.76,-0.06,-0.65,-0.01,0.085,-0.060012000000000176,0.056591999999999976,-0.2697300000000009,True,0.0,0.0,0.0
86,9.33,-0.84,1.41,0.03,-0.01,-0.0,-21.87,14.25,12.75,0.76,-0.06,-0.65,-0.01,0.086,0.010062000000000237,-0.10412999999999994,-0.3013200000000005,True,0.0,0.0,0.0
87,9.27,-0.9,1.44,0.03,-0.01,-0.0,-21.87,14.25,12.75,0.76,-0.06,-0.65,-0.01,0.087,-0.03464999999999985,-0.16455600000000012,-0.35143200000000085,False,1.0062000000000247e-05,-0.00010413000000000003,-0.00030132000000000075
88,9.25,-0.95,1.42,0.01,0.0,-0.01,-21.87,14.25,12.75,0.76,-0.06,-0.65,-0.01,0.088,-0.022745999999999933,-0.2177159999999999,-0.3703380000000003,False,-2.4587999999999633e-05,-0.0002686860000000003,-0.0006527520000000019
89,9.27,-0.93,1.45,-0.02,0.0,-0.01,-22.19,14.69,13.19,0.76,-0.06,-0.65,-0.01,0.089,-0.04731400000000008,-0.19340600000000013,-0.34757000000000104,False,-4.7333999999999584e-05,-0.00048640200000000036,-0.0010230900000000025
90,9.38,-0.7,1.57,-0.05,0.0,-0.01,-22.19,14.69,13.19,0.76,-0.06,-0.65,-0.01,0.09,-0.12684800000000007,0.05517800000000017,-0.23855199999999854,True,0.0,0.0,0.0
91,9.38,-0.7,1.57,-0.05,0.0,-0.01,-22.19,14.69,13.19,0.76,-0.06,-0.65,-0.01,0.091,-0.12684800000000007,0.05517800000000017,-0.23855199999999854,True,0.0,0.0,0.0
92,9.37,-0.58,1.76,-0.03,0.01,-0.01,-22.19,14.69,13.19,0.76,-0.06,-0.65,-0.01,0.092,-0.3047420000000003,0.19391599999999987,-0.22902400000000078,True,0.0,0.0,0.0
93,9.3,-0.62,1.84,-0.01,0.01,-0.01,-22.19,14.69,13.19,0.76,-0.06,-0.65,-0.01,0.093,-0.3985160000000001,0.15800000000000003,-0.2830119999999994,True,0.0,0.0,0.0
94,9.28,-0.8,1.88,0.01,0.01,-0.01,-20.75,12.88,12.75,0.76,-0.06,-0.65,-0.01,0.094,-0.4579360000000001,-0.018440000000000206,-0.28265600000000113,True,0.0,0.0,0.0
95,9.28,-0.87,1.85,0.01,0.01,-0.0,-20.75,12.88,12.75,0.76,-0.06,-0.65,-0.01,0.095,-0.43485600000000013,-0.09131400000000009,-0.2817299999999996,True,0.0,0.0,0.0
96,9.3,-0.85,1.84,-0.01,0.0,-0.0,-20.75,12.88,12.75,0.76,-0.06,-0.65,-0.01,0.096,-0.4199520000000001,-0.0711719999999999,-0.2650259999999989,True,0.0,0.0,0.0
97,9.33,-0.71,1.85,-0.01,0.0,-0.01,-20.75,12.88,12.75,0.76,-0.06,-0.64,-0.01,0.097,-0.2626849999999996,0.06884299999999988,-0.3625910000000001,True,0.0,0.0,0.0
98,9.33,-0.65,1.88,-0.01,0.0,-0.0,-20.75,12.88,12.75,0.76,-0.06,-0.64,-0.01,0.098,-0.2863129999999996,0.13097299999999987,-0.3623600000000007,True,0.0,0.0,0.0
99,9.33,-0.67,1.86,0.03,-0.01,0.01,-20.37,14.25,11.25,0.76,-0.06,-0.64,-0.01,0.099,-0.26872099999999954,0.10922299999999982,-0.3640819999999998,True,0.0,0.0,0.0
100,9.34,-0.82,1.75,0.05,-0.02,0.01,-20.37,14.25,11.25,0.76,-0.06,-0.64,-0.01,0.1,-0.17392999999999947,-0.04912600000000003,-0.3606770000000026,True,0.0,0.0,0.0
101,9.34,-0.85,1.7,0.06,-0.02,0.01,-20.37,14.25,11.25,0.76,-0.06,-0.64,-0.01,0.101,-0.12810999999999972,-0.08383100000000004,-0.36655000000000193,True,0.0,0.0,0.0
102,9.34,-0.85,1.7,0.05,-0.02,0.01,-20.37,14.25,11.25,0.76,-0.06,-0.64,-0.01,0.102,-0.12810999999999972,-0.08383100000000004,-0.36655000000000193,True,0.0,0.0,0.0
103,9.34,-0.87,1.67,0.03,-0.02,0.01,-22.19,13.56,13.25,0.76,-0.06,-0.64,-0.01,0.103,-0.10080199999999939,-0.10662100000000002,-0.36991700000000094,True,0.0,0.0,0.0
104,9.34,-0.87,1.67,0.02,-0.02,0.01,-22.19,13.56,13.25,0.76,-0.06,-0.64,-0.01,0.104,-0.10080199999999939,-0.10662100000000002,-0.36991700000000094,True,0.0,0.0,0.0
105,9.3,-0.82,1.56,0.03,-0.01,0.01,-22.19,13.56,13.25,0.76,-0.06,-0.64,-0.01,0.105,0.003814000000000428,-0.07135000000000005,-0.43089200000000005,True,0.0,0.0,0.0
106,9.28,-0.92,1.48,0.04,-0.0,-0.0,-22.19,13.56,13.25,0.76,-0.06,-0.64,-0.01,0.106,0.0689120000000003,-0.17925200000000013,-0.4556920000000009,False,3.8140000000004314e-06,-7.135000000000012e-05,-0.00043089200000000043
107,9.33,-0.98,1.45,0.03,0.0,-0.0,-22.19,13.56,13.25,0.76,-0.06,-0.64,-0.01,0.107,0.10111500000000051,-0.23830200000000015,-0.4072230000000019,True,0.0,0.0,0.0
108,9.35,-0.88,1.49,0.0,0.01,-0.01,-21.56,14.25,13.38,0.76,-0.06,-0.64,-0.01,0.108,0.07488100000000042,-0.1345600000000001,-0.38900300000000065,True,0.0,0.0,0.0
109,9.37,-0.77,1.47,-0.03,0.01,-0.01,-21.56,14.25,13.38,0.76,-0.06,-0.64,-0.01,0.109,0.10786300000000026,-0.027223000000000108,-0.381437,True,0.0,0.0,0.0
110,9.35,-0.74,1.49,-0.03,0.01,-0.01,-21.56,14.25,13.38,0.76,-0.06,-0.64,-0.01,0.11,0.08776100000000042,0.003129999999999883,-0.3999790000000001,True,0.0,0.0,0.0
111,9.35,-0.74,1.49,-0.03,0.02,-0.01,-21.56,14.25,13.38,0.76,-0.06,-0.64,-0.01,0.111,0.08776100000000042,0.003129999999999883,-0.3999790000000001,True,0.0,0.0,0.0
112,9.3,-0.69,1.74,-0.03,0.02,-0.01,-21.56,14.25,13.38,0.76,-0.06,-0.64,-0.01,0.112,-0.15911399999999953,0.07522499999999999,-0.4114740000000001,True,0.0,0.0,0.0
113,9.3,-0.69,1.74,-0.04,0.03,-0.01,-21.56,13.56,13.75,0.76,-0.06,-0.64,-0.01,0.113,-0.15911399999999953,0.07522499999999999,-0.4114740000000001,True,0.0,0.0,0.0
114,9.29,-0.76,1.87,-0.04,0.02,-0.01,-21.56,13.56,13.75,0.76,-0.06,-0.64,-0.01,0.114,-0.293577,0.019283999999999912,-0.3943410000000025,True,0.0,0.0,0.0
115,9.27,-0.73,1.87,-0.05,0.02,-0.01,-21.56,13.56,13.75,0.76,-0.06,-0.64,-0.01,0.115,-0.2942469999999999,0.047556999999999905,-0.41617300000000057,True,0.0,0.0,0.0
116,9.27,-0.7,1.86,-0.06,0.01,-0.01,-21.56,13.56,13.75,0.76,-0.06,-0.64,-0.01,0.116,-0.28177099999999977,0.0760219999999999,-0.4201700000000006,True,0.0,0.0,0.0
117,9.33,-0.69,1.86,-0.05,0.01,-0.01,-21.56,13.56,13.75,0.76,-0.06,-0.64,-0.01,0.117,-0.2705609999999996,0.08955299999999997,-0.3625140000000009,True,0.0,0.0,0.0
118,9.36,-0.73,1.9,-0.05,0.0,-0.01,-22.0,14.25,12.06,0.76,-0.06,-0.64,-0.01,0.118,-0.30795999999999957,0.056220999999999854,-0.32357800000000125,True,0.0,0.0,0.0
119,9.36,-0.75,1.92,-0.04,-0.0,-0.0,-22.0,14.25,12.06,0.76,-0.06,-0.64,-0.01,0.119,-0.32923199999999975,0.03863099999999989,-0.31872000000000256,True,0.0,0.0,0.0
120,9.35,-0.72,1.93,-0.03,-0.0,-0.01,-22.0,14.25,12.06,0.76,-0.06,-0.64,-0.01,0.12,-0.33790299999999984,0.06855999999999995,-0.32916700000000176,True,0.0,0.0,0.0
121,9.32,-0.69,1.94,-0.03,-0.01,-0.0,-22.0,14.25,12.06,0.76,-0.06,-0.64,-0.01,0.121,-0.35000399999999954,0.09725700000000001,-0.3590940000000007,True,0.0,0.0,0.0
122,9.3,-0.68,1.86,-0.02,-0.02,0.0,-22.0,14.25,12.06,0.76,-0.06,-0.64,-0.01,0.122,-0.27478599999999953,0.09753999999999993,-0.39251799999999903,True,0.0,0.0,0.0
123,9.28,-0.69,1.79,-0.01,-0.02,0.0,-21.75,14.75,12.75,0.76,-0.06,-0.64,-0.01,0.123,-0.21112399999999987,0.07919299999999999,-0.42272900000000213,True,0.0,0.0,0.0
124,9.28,-0.69,1.79,-0.0,-0.03,0.01,-21.75,14.75,12.75,0.76,-0.06,-0.64,-0.01,0.124,-0.21112399999999987,0.07919299999999999,-0.42272900000000213,True,0.0,0.0,0.0
125,9.35,-0.76,1.73,0.0,-0.03,0.01,-21.75,14.75,12.75,0.76,-0.06,-0.64,-0.01,0.125,-0.1472629999999997,0.008419999999999928,-0.3589310000000019,True,0.0,0.0,0.0
126,9.33,-0.76,1.67,0.0,-0.02,0.01,-21.75,14.75,12.75,0.76,-0.06,-0.64,-0.01,0.126,-0.0923969999999994,0.0009479999999998934,-0.388281000000001,True,0.0,0.0,0.0
127,9.31,-0.75,1.67,-0.01,-0.02,0.01,-22.19,13.69,12.75,0.76,-0.06,-0.64,-0.01,0.127,-0.09490699999999941,0.009551000000000032,-0.40854500000000016,True,0.0,0.0,0.0
128,9.29,-0.76,1.62,-0.01,-0.02,0.01,-22.19,13.69,12.75,0.76,-0.06,-0.64,-0.01,0.128,-0.05067699999999986,-0.006716000000000111,-0.43546600000000346,True,0.0,0.0,0.0
129,9.28,-0.79,1.58,-0.01,-0.02,0.01,-22.19,13.69,12.75,0.76,-0.06,-0.64,-0.01,0.129,-0.016287999999999858,-0.04099700000000006,-0.4494340000000019,False,-5.067699999999991e-05,-6.716000000000117e-06,-0.00043546600000000387
130,9.33,-0.75,1.49,-0.02,-0.01,0.0,-22.19,13.69,12.75,0.76,-0.06,-0.64,-0.01,0.13,0.08341100000000057,-0.007937000000000055,-0.41867500000000035,True,0.0,0.0,0.0
131,9.31,-0.79,1.45,-0.01,-0.01,0.01,-22.19,13.69,12.75,0.76,-0.06,-0.64,-0.01,0.131,0.1151650000000004,-0.052668999999999994,-0.44159900000000185,False,8.341100000000064e-05,-7.937000000000061e-06,-0.00041867500000000073
132,9.31,-0.88,1.31,-0.0,0.01,0.0,-21.75,14.0,13.25,0.76,-0.06,-0.64,-0.01,0.132,0.24290900000000049,-0.155744,-0.457573,False,0.00019857600000000114,-6.0606000000000104e-05,-0.000860274000000003
133,9.28,-0.88,1.27,-0.0,0.01,0.0,-21.75,14.0,13.25,0.76,-0.06,-0.64,-0.01,0.133,0.2766280000000003,-0.1617520000000001,-0.49337300000000184,False,0.0004414850000000019,-0.00021635000000000024,-0.0013178470000000035
134,9.3,-0.85,1.28,-0.02,0.02,-0.0,-21.75,14.0,13.25,0.76,-0.06,-0.64,-0.01,0.134,0.2731020000000004,-0.12997500000000006,-0.4746000000000006,False,0.0007181130000000024,-0.0003781020000000005,-0.0018112200000000057
135,9.37,-0.83,1.34,-0.03,0.03,-0.0,-21.75,14.0,13.25,0.76,-0.06,-0.64,-0.01,0.135,0.22865100000000016,-0.09975300000000001,-0.3981180000000002,True,0.0,0.0,0.0
136,9.44,-0.74,1.48,-0.03,0.03,-0.0,-21.75,14.0,13.25,0.76,-0.06,-0.64,-0.01,0.136,0.11291200000000057,0.007633999999999863,-0.31396400000000035,True,0.0,0.0,0.0
137,9.34,-0.68,1.63,-0.02,0.03,-0.0,-21.75,14.0,13.25,0.76,-0.07,-0.64,-0.01,0.137,-0.04069400000000001,0.22129600000000005,-0.38130800000000065,True,0.0,0.0,0.0
138,9.31,-0.71,1.75,-0.01,0.04,-0.01,-21.75,14.38,12.5,0.76,-0.07,-0.64,-0.01,0.138,-0.1655899999999999,0.20390200000000017,-0.3881420000000002,True,0.0,0.0,0.0
139,9.31,-0.71,1.75,-0.02,0.03,-0.0,-21.75,14.38,12.5,0.76,-0.07,-0.64,-0.01,0.139,-0.1655899999999999,0.20390200000000017,-0.3881420000000002,True,0.0,0.0,0.0
140,9.32,-0.79,1.85,-0.03,0.03,0.0,-21.75,14.38,12.5,0.76,-0.07,-0.64,-0.01,0.14,-0.2693859999999999,0.13799000000000017,-0.354592000000002,True,0.0,0.0,0.0
141,9.33,-0.8,1.91,-0.04,0.02,0.0,-21.75,14.38,12.5,0.76,-0.07,-0.64,-0.01,0.141,-0.3269900000000001,0.1360640000000001,-0.3341220000000007,True,0.0,0.0,0.0
142,9.33,-0.8,1.91,-0.06,0.01,-0.0,-21.75,14.38,12.5,0.76,-0.07,-0.64,-0.01,0.142,-0.3269900000000001,0.1360640000000001,-0.3341220000000007,True,0.0,0.0,0.0
143,9.33,-0.84,1.9,-0.06,0.0,0.0,-21.56,14.06,13.69,0.76,-0.07,-0.64,-0.01,0.143,-0.3214680000000001,0.09558400000000022,-0.33201000000000214,True,0.0,0.0,0.0
144,9.3,-0.85,1.82,-0.05,-0.0,0.01,-21.56,14.06,13.69,0.76,-0.07,-0.64,-0.01,0.144,-0.24998799999999988,0.07399400000000012,-0.37335599999999936,True,0.0,0.0,0.0
145,9.31,-0.89,1.93,-0.03,-0.01,0.01,-21.56,14.06,13.69,0.76,-0.07,-0.64,-0.01,0.145,-0.3593059999999999,0.04856200000000008,-0.3419180000000015,True,0.0,0.0,0.0
146,9.31,-0.94,1.91,-0.01,-0.01,0.01,-21.56,14.06,13.69,0.76,-0.07,-0.64,-0.01,0.146,-0.3451179999999998,-0.002931999999999796,-0.34050200000000075,True,0.0,0.0,0.0
147,9.29,-0.93,1.82,-0.01,-0.01,0.0,-21.75,14.38,12.0,0.76,-0.07,-0.64,-0.01,0.147,-0.2601000000000002,-0.005325999999999942,-0.3756100000000018,True,0.0,0.0,0.0
148,9.34,-0.92,1.84,-0.01,-0.01,0.0,-21.75,14.38,12.0,0.76,-0.07,-0.64,-0.01,0.148,-0.2698400000000001,0.01060000000000011,-0.32457200000000164,True,0.0,0.0,0.0
149,9.38,-0.89,1.79,-0.02,-0.01,0.0,-21.75,14.38,12.0,0.76,-0.07,-0.64,-0.01,0.149,-0.2112139999999998,0.0370820000000002,-0.2965719999999994,True,0.0,0.0,0.0
150,9.38,-0.84,1.77,-0.03,-0.02,0.0,-21.75,14.38,12.0,0.76,-0.07,-0.64,-0.01,0.15,-0.18654599999999988,0.0838080000000003,-0.30451599999999956,True,0.0,0.0,0.0
151,9.32,-0.78,1.74,-0.04,-0.02,0.0,-21.75,14.38,12.0,0.76,-0.07,-0.64,-0.01,0.151,-0.16148399999999996,0.13470000000000015,-0.3734800000000007,True,0.0,0.0,0.0
152,9.32,-0.81,1.78,-0.05,-0.02,-0.0,-21.75,13.69,12.75,0.76,-0.07,-0.64,-0.01,0.152,-0.203484,0.11000200000000016,-0.36414400000000136,True,0.0,0.0,0.0
153,9.34,-0.83,1.74,-0.06,-0.03,0.0,-21.75,13.69,12.75,0.76,-0.07,-0.64,-0.01,0.153,-0.16326799999999997,0.08707800000000021,-0.34931600000000174,True,0.0,0.0,0.0
154,9.34,-0.8,1.72,-0.07,-0.02,0.0,-21.75,13.69,12.75,0.76,-0.07,-0.64,-0.02,0.154,-0.1532500000000001,-0.005551999999999779,-0.352036,True,0.0,0.0,0.0
155,9.31,-0.73,1.69,-0.09,-0.03,0.0,-21.75,13.69,12.75,0.76,-0.07,-0.64,-0.02,0.155,-0.12092500000000017,0.057445000000000246,-0.39186499999999924,True,0.0,0.0,0.0
156,9.31,-0.73,1.69,-0.09,-0.03,0.0,-21.75,13.69,12.75,0.76,-0.07,-0.64,-0.02,0.156,-0.12092500000000017,0.057445000000000246,-0.39186499999999924,True,0.0,0.0,0.0
157,9.29,-0.69,1.69,-0.08,-0.03,0.0,-21.19,14.0,12.75,0.76,-0.07,-0.64,-0.02,0.157,-0.11957500000000021,0.09553700000000015,-0.41460900000000045,True,0.0,0.0,0.0
158,9.29,-0.69,1.69,-0.06,-0.02,0.01,-21.19,14.0,12.75,0.76,-0.07,-0.64,-0.02,0.158,-0.11957500000000021,0.09553700000000015,-0.41460900000000045,True,0.0,0.0,0.0
159,9.33,-0.77,1.69,-0.05,-0.02,0.01,-21.19,14.0,12.75,0.76,-0.07,-0.64,-0.02,0.159,-0.12227500000000013,0.01935300000000012,-0.3691209999999998,True,0.0,0.0,0.0
160,9.31,-0.77,1.73,-0.03,-0.02,0.0,-21.19,14.0,12.75,0.76,-0.07,-0.64,-0.02,0.16,-0.16452500000000003,0.023449000000000164,-0.3820930000000011,True,0.0,0.0,0.0
161,9.3,-0.76,1.73,-0.03,-0.02,0.01,-21.19,14.0,12.75,0.76,-0.07,-0.64,-0.02,0.161,-0.16504999999999992,0.03267600000000015,-0.3926569999999998,True,0.0,0.0,0.0
162,9.3,-0.84,1.72,-0.02,-0.02,0.01,-21.19,13.69,14.38,0.76,-0.07,-0.64,-0.02,0.162,-0.16494999999999993,-0.047195999999999794,-0.3878280000000007,True,0.0,0.0,0.0
163,9.34,-0.85,1.7,-0.01,-0.03,0.01,-21.19,13.69,14.38,0.76,-0.07,-0.64,-0.02,0.163,-0.13985000000000025,-0.05728699999999978,-0.35126599999999897,True,0.0,0.0,0.0
164,9.35,-0.85,1.71,-0.01,-0.03,0.01,-21.19,13.69,14.38,0.76,-0.07,-0.64,-0.02,0.164,-0.1478250000000001,-0.05537499999999987,-0.33987500000000104,True,0.0,0.0,0.0
165,9.35,-0.85,1.71,-0.02,-0.03,0.01,-21.19,13.69,14.38,0.76,-0.07,-0.64,-0.02,0.165,-0.1478250000000001,-0.05537499999999987,-0.33987500000000104,True,0.0,0.0,0.0
166,9.31,-0.86,1.64,-0.02,-0.03,0.01,-21.19,13.69,14.38,0.76,-0.07,-0.64,-0.02,0.166,-0.0880249999999998,-0.07680199999999981,-0.38953599999999966,True,0.0,0.0,0.0
167,9.31,-0.86,1.64,-0.03,-0.03,0.01,-21.75,14.5,12.0,0.76,-0.07,-0.64,-0.02,0.167,-0.0880249999999998,-0.07680199999999981,-0.38953599999999966,True,0.0,0.0,0.0
168,9.33,-0.79,1.6,-0.03,-0.03,0.01,-21.75,14.5,12.0,0.76,-0.07,-0.64,-0.02,0.168,-0.03737500000000016,-0.012164999999999898,-0.3822200000000002,True,0.0,0.0,0.0
169,9.6,-0.8,1.62,-0.03,-0.03,0.01,-21.75,14.5,12.0,0.76,-0.07,-0.64,-0.02,0.169,-0.011400000000000299,-0.0033599999999998076,-0.11472999999999978,True,0.0,0.0,0.0
170,9.61,-0.79,1.64,-0.03,-0.03,0.01,-21.75,14.5,12.0,0.76,-0.07,-0.64,-0.02,0.17,-0.027875000000000094,0.009691000000000005,-0.10251200000000082,True,0.0,0.0,0.0
171,9.63,-0.8,1.65,-0.02,-0.02,0.01,-21.75,14.5,12.0,0.76,-0.07,-0.64,-0.02,0.171,-0.03532499999999983,0.0023760000000001558,-0.08055699999999888,True,0.0,0.0,0.0
172,9.64,-0.89,1.67,-0.01,-0.01,0.01,-21.75,14.06,13.19,0.76,-0.07,-0.64,-0.02,0.172,-0.06379999999999986,-0.08276299999999978,-0.060259000000000285,True,0.0,0.0,0.0
173,9.58,-0.9,1.7,-0.01,-0.02,0.01,-21.75,14.06,13.19,0.76,-0.07,-0.64,-0.02,0.173,-0.10445000000000015,-0.09217399999999978,-0.11308199999999857,True,0.0,0.0,0.0
174,9.61,-0.87,1.7,-0.02,-0.02,0.01,-21.75,14.06,13.19,0.76,-0.07,-0.64,-0.02,0.174,-0.0956750000000004,-0.06094099999999994,-0.08623799999999981,True,0.0,0.0,0.0
175,9.62,-0.84,1.77,-0.02,-0.02,0.01,-21.75,14.06,13.19,0.76,-0.07,-0.64,-0.02,0.175,-0.15825000000000022,-0.021651999999999838,-0.06746100000000155,True,0.0,0.0,0.0
176,9.58,-0.83,1.74,-0.02,-0.01,0.01,-21.75,14.06,13.19,0.76,-0.07,-0.64,-0.02,0.176,-0.13484999999999991,-0.018160999999999733,-0.11219799999999935,True,0.0,0.0,0.0
177,9.56,-0.81,1.76,-0.02,-0.02,0.01,-21.75,14.5,12.75,0.76,-0.07,-0.64,-0.02,0.177,-0.1553,0.002933000000000213,-0.13005599999999973,True,0.0,0.0,0.0
178,9.57,-0.81,1.77,-0.01,-0.02,0.01,-21.75,14.5,12.75,0.76,-0.07,-0.64,-0.02,0.178,-0.16327499999999984,0.004845000000000155,-0.11866500000000002,True,0.0,0.0,0.0
179,9.58,-0.85,1.73,-0.01,-0.02,0.02,-21.75,14.5,12.75,0.76,-0.07,-0.64,-0.02,0.179,-0.12755000000000005,-0.03911899999999979,-0.11221699999999935,True,0.0,0.0,0.0
180,9.61,-0.88,1.68,-0.01,-0.01,0.02,-21.75,14.5,12.75,0.76,-0.07,-0.64,-0.02,0.18,-0.07747500000000018,-0.07339999999999985,-0.08870000000000111,True,0.0,0.0,0.0
181,9.62,-0.92,1.66,-0.01,-0.02,0.02,-21.75,14.5,12.75,0.76,-0.07,-0.64,-0.02,0.181,-0.06115000000000026,-0.11472399999999991,-0.07898200000000166,True,0.0,0.0,0.0
182,9.63,-0.92,1.67,-0.0,-0.02,0.02,-22.5,14.06,12.75,0.76,-0.07,-0.64,-0.02,0.182,-0.06912499999999988,-0.11281199999999988,-0.0675909999999984,True,0.0,0.0,0.0
183,9.6,-0.95,1.67,-0.0,-0.02,0.02,-22.5,14.06,12.75,0.76,-0.07,-0.64,-0.02,0.183,-0.07790000000000008,-0.14404499999999984,-0.09443500000000071,True,0.0,0.0,0.0
184,9.66,-0.94,1.7,0.0,-0.02,0.02,-22.5,14.06,12.75,0.76,-0.07,-0.64,-0.02,0.184,-0.09545000000000003,-0.1267139999999998,-0.031802000000000774,True,0.0,0.0,0.0
185,9.61,-0.91,1.71,-0.0,-0.02,0.01,-22.5,14.06,12.75,0.76,-0.07,-0.64,-0.02,0.185,-0.11017500000000013,-0.09889699999999993,-0.08137100000000252,True,0.0,0.0,0.0
186,9.59,-0.92,1.71,0.0,-0.02,0.01,-22.5,14.06,12.75,0.76,-0.07,-0.64,-0.02,0.186,-0.11482499999999995,-0.10989999999999991,-0.10007499999999858,True,0.0,0.0,0.0
187,9.65,-0.93,1.72,-0.0,-0.02,0.01,-22.5,14.06,12.75,0.76,-0.07,-0.64,-0.02,0.187,-0.11537499999999978,-0.11484699999999981,-0.039096000000000686,True,0.0,0.0,0.0
188,9.66,-0.9,1.67,-0.01,-0.02,0.01,-22.5,14.06,12.75,0.76,-0.07,-0.64,-0.02,0.188,-0.061549999999999994,-0.09139799999999984,-0.03993900000000039,True,0.0,0.0,0.0
189,9.63,-0.86,1.7,-0.01,-0.02,0.01,-22.5,14.06,12.75,0.76,-0.07,-0.64,-0.02,0.189,-0.09102499999999991,-0.049937999999999844,-0.06753399999999843,True,0.0,0.0,0.0
190,9.57,-0.9,1.67,-0.01,-0.02,0.01,-22.5,14.06,12.75,0.76,-0.07,-0.64,-0.02,0.19,-0.077075,-0.09672599999999984,-0.1277430000000006,True,0.0,0.0,0.0
191,9.58,-0.91,1.64,-0.01,-0.02,0.01,-22.19,14.06,12.0,0.76,-0.07,-0.64,-0.02,0.191,-0.04744999999999977,-0.10991299999999982,-0.1220839999999992,True,0.0,0.0,0.0
192,9.6,-0.91,1.62,-0.01,-0.02,0.01,-22.19,14.06,12.0,0.76,-0.07,-0.64,-0.02,0.192,-0.024600000000000177,-0.11136899999999983,-0.10584200000000088,True,0.0,0.0,0.0
193,9.63,-0.92,1.61,-0.01,-0.01,0.01,-22.19,14.06,12.0,0.76,-0.07,-0.64,-0.02,0.193,-0.010925000000000074,-0.12073199999999987,-0.07740099999999828,True,0.0,0.0,0.0
194,9.59,-0.96,1.6,-0.01,-0.01,0.01,-22.19,14.06,12.0,0.76,-0.07,-0.64,-0.02,0.194,-0.012925000000000075,-0.16369599999999976,-0.11482800000000104,True,0.0,0.0,0.0
195,9.6,-0.93,1.65,-0.0,-0.01,0.01,-22.19,14.06,12.0,0.76,-0.07,-0.64,-0.02,0.195,-0.05609999999999982,-0.1270469999999999,-0.09932100000000155,True,0.0,0.0,0.0
196,9.64,-0.96,1.63,-0.0,-0.01,0.01,-20.25,14.06,13.56,0.76,-0.07,-0.64,-0.02,0.196,-0.033399999999999874,-0.15677599999999972,-0.0611429999999995,True,0.0,0.0,0.0
197,9.66,-0.98,1.69,0.0,-0.01,0.01,-20.25,14.06,13.56,0.76,-0.07,-0.64,-0.02,0.197,-0.09054999999999991,-0.1673099999999998,-0.03020500000000048,True,0.0,0.0,0.0
198,9.66,-0.98,1.69,-0.0,-0.01,0.01,-20.25,14.06,13.56,0.76,-0.07,-0.64,-0.02,0.198,-0.09054999999999991,-0.1673099999999998,-0.03020500000000048,True,0.0,0.0,0.0
199,9.58,-1.01,1.73,-0.0,-0.01,0.01,-20.25,14.06,13.56,0.76,-0.07,-0.64,-0.02,0.199,-0.14674999999999994,-0.19622299999999981,-0.09928900000000063,True,0.0,0.0,0.0
200,9.6,-0.91,1.74,-0.02,-0.01,0.0,-21.06,14.5,13.19,0.76,-0.07,-0.64,-0.02,0.2,-0.14100000000000001,-0.09552899999999984,-0.08622200000000113,True,0.0,0.0,0.0
201,9.62,-0.9,1.7,-0.02,-0.01,0.0,-21.06,14.5,13.19,0.76,-0.07,-0.64,-0.02,0.201,-0.09755000000000047,-0.08980599999999986,-0.07405800000000085,True,0.0,0.0,0.0
202,9.62,-0.9,1.7,-0.01,-0.01,0.0,-21.06,14.5,13.19,0.76,-0.07,-0.64,-0.02,0.202,-0.09755000000000047,-0.08980599999999986,-0.07405800000000085,True,0.0,0.0,0.0
203,9.58,-0.9,1.65,-0.02,-0.01,0.0,-21.06,14.5,13.19,0.76,-0.07,-0.64,-0.02,0.203,-0.055949999999999944,-0.0987739999999998,-0.12125699999999995,True,0.0,0.0,0.0
204,9.58,-0.86,1.6,-0.02,-0.01,0.0,-21.06,14.5,13.19,0.76,-0.07,-0.64,-0.02,0.204,-0.002650000000000041,-0.0660979999999998,-0.13266400000000012,True,0.0,0.0,0.0
205,9.61,-0.92,1.64,-0.01,-0.01,0.0,-20.69,14.5,12.0,0.76,-0.07,-0.64,-0.02,0.205,-0.04347500000000015,-0.11795599999999995,-0.09200799999999987,True,0.0,0.0,0.0
206,9.64,-0.99,1.66,0.0,-0.01,0.0,-20.69,14.5,12.0,0.76,-0.07,-0.64,-0.02,0.206,-0.06609999999999983,-0.18227299999999977,-0.05381399999999914,True,0.0,0.0,0.0
207,9.64,-1.05,1.64,0.01,-0.01,-0.0,-20.69,14.5,12.0,0.76,-0.07,-0.64,-0.02,0.207,-0.05389999999999984,-0.2438269999999999,-0.05223599999999884,True,0.0,0.0,0.0
208,9.6,-1.0,1.73,0.0,-0.01,-0.0,-20.69,14.5,12.0,0.76,-0.07,-0.64,-0.02,0.208,-0.14210000000000012,-0.18521999999999983,-0.08058500000000102,True,0.0,0.0,0.0
209,9.58,-0.93,1.74,-0.01,-0.0,-0.01,-20.69,14.5,12.0,0.76,-0.07,-0.64,-0.02,0.209,-0.14684999999999993,-0.11635099999999984,-0.10411799999999971,True,0.0,0.0,0.0
210,9.61,-0.92,1.73,-0.02,-0.0,-0.01,-21.06,14.06,12.75,0.76,-0.07,-0.64,-0.02,0.21,-0.1307750000000003,-0.10607599999999995,-0.07729300000000094,True,0.0,0.0,0.0
211,9.58,-0.91,1.65,-0.01,-0.01,-0.01,-21.06,14.06,12.75,0.76,-0.07,-0.64,-0.02,0.211,-0.05714999999999981,-0.10859299999999983,-0.1204490000000007,True,0.0,0.0,0.0
212,9.58,-0.91,1.63,-0.0,-0.01,-0.0,-21.06,14.06,12.75,0.76,-0.07,-0.64,-0.02,0.212,-0.03774999999999995,-0.11123299999999983,-0.12371899999999947,True,0.0,0.0,0.0
213,9.6,-0.93,1.62,0.0,-0.01,-0.01,-21.06,14.06,12.75,0.76,-0.07,-0.64,-0.02,0.213,-0.027000000000000135,-0.13100699999999987,-0.1042260000000006,True,0.0,0.0,0.0
214,9.6,-0.96,1.58,0.0,-0.0,-0.01,-21.06,14.06,12.75,0.76,-0.07,-0.64,-0.02,0.214,0.008199999999999985,-0.16574399999999972,-0.10834200000000038,True,0.0,0.0,0.0
215,9.63,-0.91,1.51,-0.0,-0.0,-0.01,-21.75,14.5,12.0,0.76,-0.07,-0.64,-0.02,0.215,0.08727500000000021,-0.12411299999999986,-0.0945589999999985,True,0.0,0.0,0.0
216,9.65,-0.88,1.61,-0.01,-0.0,-0.01,-21.75,14.5,12.0,0.76,-0.07,-0.64,-0.02,0.216,-0.002674999999999983,-0.0802719999999997,-0.06112099999999998,True,0.0,0.0,0.0
217,9.65,-0.9,1.59,-0.01,0.0,-0.01,-21.75,14.5,12.0,0.76,-0.07,-0.64,-0.02,0.217,0.014324999999999921,-0.10254999999999975,-0.06277500000000025,True,0.0,0.0,0.0
218,9.61,-0.89,1.61,-0.0,0.0,-0.01,-21.75,14.5,12.0,0.76,-0.07,-0.64,-0.02,0.218,-0.010775000000000423,-0.09245899999999987,-0.09933700000000201,True,0.0,0.0,0.0
219,9.56,-0.95,1.68,0.01,0.01,-0.01,-21.75,14.5,12.0,0.76,-0.07,-0.64,-0.02,0.219,-0.09450000000000003,-0.14509299999999975,-0.13182399999999994,True,0.0,0.0,0.0
220,9.6,-0.98,1.72,-0.0,0.01,-0.01,-21.5,13.75,13.19,0.76,-0.07,-0.64,-0.02,0.22,-0.1299999999999999,-0.16690199999999977,-0.08383600000000158,True,0.0,0.0,0.0
221,9.64,-0.95,1.72,-0.0,0.01,-0.01,-21.5,13.75,13.19,0.76,-0.07,-0.64,-0.02,0.221,-0.11949999999999994,-0.13507699999999978,-0.047235999999999834,True,0.0,0.0,0.0
222,9.6,-0.87,1.74,-0.01,0.01,-0.01,-21.5,13.75,13.19,0.76,-0.07,-0.64,-0.02,0.222,-0.1362000000000001,-0.05625299999999986,-0.08945399999999992,True,0.0,0.0,0.0
223,9.6,-0.87,1.75,-0.01,0.0,-0.01,-21.5,13.75,13.19,0.76,-0.07,-0.64,-0.02,0.223,-0.14590000000000014,-0.05493299999999987,-0.08781899999999965,True,0.0,0.0,0.0
224,9.59,-0.86,1.73,-0.0,-0.0,-0.01,-21.5,13.75,13.19,0.76,-0.07,-0.64,-0.02,0.224,-0.12702499999999994,-0.04834599999999989,-0.10165300000000066,True,0.0,0.0,0.0
225,9.62,-0.9,1.72,-0.0,-0.0,-0.01,-21.06,13.75,12.75,0.76,-0.07,-0.64,-0.02,0.225,-0.11695000000000033,-0.08716599999999985,-0.07078800000000207,True,0.0,0.0,0.0
226,9.62,-0.87,1.69,-0.0,-0.0,-0.01,-21.06,13.75,12.75,0.76,-0.07,-0.64,-0.02,0.226,-0.08425000000000038,-0.06166899999999992,-0.07811700000000066,True,0.0,0.0,0.0
227,9.63,-0.88,1.7,-0.0,-0.0,-0.01,-21.06,13.75,12.75,0.76,-0.07,-0.64,-0.02,0.227,-0.09342499999999987,-0.06957599999999978,-0.06591799999999814,True,0.0,0.0,0.0
228,9.63,-0.86,1.7,0.0,-0.0,-0.0,-21.06,13.75,12.75,0.76,-0.07,-0.64,-0.02,0.228,-0.09102499999999991,-0.049937999999999844,-0.06753399999999843,True,0.0,0.0,0.0
229,9.61,-0.86,1.72,0.01,-0.01,-0.0,-21.06,13.75,12.75,0.76,-0.07,-0.64,-0.02,0.229,-0.11387500000000017,-0.048481999999999914,-0.08377600000000207,True,0.0,0.0,0.0
230,9.61,-0.94,1.7,0.01,-0.01,-0.0,-21.06,14.5,14.0,0.76,-0.07,-0.64,-0.02,0.23,-0.10407500000000036,-0.12967399999999987,-0.08058200000000149,True,0.0,0.0,0.0
231,9.62,-0.92,1.72,0.01,-0.01,-0.0,-21.06,14.5,14.0,0.76,-0.07,-0.64,-0.02,0.231,-0.11935000000000029,-0.1068039999999999,-0.06917200000000179,True,0.0,0.0,0.0
232,9.6,-0.94,1.69,-0.0,-0.0,-0.01,-21.06,14.5,14.0,0.76,-0.07,-0.64,-0.02,0.232,-0.09610000000000007,-0.13158599999999981,-0.09197300000000119,True,0.0,0.0,0.0
233,9.6,-0.87,1.72,-0.01,-0.01,-0.0,-21.06,14.5,14.0,0.76,-0.07,-0.64,-0.02,0.233,-0.11680000000000001,-0.05889299999999986,-0.09272400000000047,True,0.0,0.0,0.0
234,9.59,-0.84,1.67,-0.0,-0.01,-0.0,-21.06,14.5,14.0,0.76,-0.07,-0.64,-0.02,0.234,-0.06642499999999996,-0.036627999999999855,-0.11307900000000082,True,0.0,0.0,0.0
235,9.58,-0.82,1.65,0.0,-0.01,-0.0,-21.5,14.06,14.0,0.76,-0.07,-0.64,-0.02,0.235,-0.04634999999999989,-0.02022199999999974,-0.12772100000000108,True,0.0,0.0,0.0
236,9.6,-0.87,1.63,0.01,-0.01,0.0,-21.5,14.06,14.0,0.76,-0.07,-0.64,-0.02,0.236,-0.02950000000000008,-0.07077299999999989,-0.1074389999999994,True,0.0,0.0,0.0
237,9.63,-0.91,1.61,0.01,-0.01,0.0,-21.5,14.06,14.0,0.76,-0.07,-0.64,-0.02,0.237,-0.009724999999999984,-0.11091299999999985,-0.0782089999999993,True,0.0,0.0,0.0
238,9.61,-0.93,1.6,0.02,-0.0,-0.0,-21.5,14.06,14.0,0.76,-0.07,-0.64,-0.02,0.238,-0.005875000000000297,-0.13305499999999995,-0.09774000000000171,True,0.0,0.0,0.0
239,9.6,-0.91,1.61,0.01,-0.0,-0.0,-21.5,14.06,14.0,0.76,-0.07,-0.64,-0.02,0.239,-0.014900000000000135,-0.11268899999999984,-0.10747700000000115,True,0.0,0.0,0.0
240,9.59,-0.9,1.65,0.01,-0.0,0.0,-21.5,13.75,13.19,0.76,-0.07,-0.64,-0.02,0.24,-0.05422499999999997,-0.09818199999999988,-0.11150100000000052,True,0.0,0.0,0.0
241,9.58,-0.87,1.72,0.01,0.0,0.0,-21.5,13.75,13.19,0.76,-0.07,-0.64,-0.02,0.241,-0.12024999999999997,-0.060076999999999825,-0.11223599999999934,True,0.0,0.0,0.0
242,9.64,-0.84,1.71,0.03,0.0,0.01,-21.5,13.75,13.19,0.76,-0.07,-0.64,-0.02,0.242,-0.0965999999999998,-0.028387999999999775,-0.057758999999999006,True,0.0,0.0,0.0
243,9.59,-0.82,1.73,0.04,-0.0,0.01,-21.5,13.75,13.19,0.76,-0.07,-0.64,-0.02,0.243,-0.12222500000000003,-0.0090699999999998,-0.10488500000000123,True,0.0,0.0,0.0
244,9.59,-0.82,1.73,0.04,-0.01,0.01,-22.19,14.5,13.19,0.76,-0.07,-0.64,-0.02,0.244,-0.12222500000000003,-0.0090699999999998,-0.10488500000000123,True,0.0,0.0,0.0
245,9.62,-0.87,1.74,0.04,-0.01,0.01,-22.19,14.5,13.19,0.76,-0.07,-0.64,-0.01,0.245,-0.11907599999999996,0.06862200000000007,-0.07279600000000208,True,0.0,0.0,0.0
246,9.64,-0.9,1.71,0.02,-0.01,0.01,-22.19,14.5,13.19,0.76,-0.07,-0.64,-0.01,0.246,-0.08962199999999987,0.0370680000000001,-0.055400000000002336,True,0.0,0.0,0.0
247,9.66,-0.86,1.72,0.0,-0.01,0.0,-22.19,14.5,13.19,0.76,-0.07,-0.64,-0.01,0.247,-0.09168799999999999,0.07903600000000013,-0.03802800000000062,True,0.0,0.0,0.0
248,9.65,-0.86,1.72,-0.01,-0.01,0.0,-22.19,14.5,13.19,0.76,-0.07,-0.64,-0.01,0.248,-0.09341599999999994,0.07829200000000017,-0.04776999999999987,True,0.0,0.0,0.0
249,9.6,-0.82,1.75,-0.02,-0.01,0.0,-20.69,14.75,12.69,0.76,-0.07,-0.64,-0.01,0.249,-0.12700599999999995,0.11743600000000023,-0.0953280000000003,True,0.0,0.0,0.0
250,9.58,-0.87,1.72,-0.02,-0.02,0.01,-20.69,14.75,12.69,0.76,-0.07,-0.64,-0.01,0.25,-0.10655999999999999,0.06326200000000007,-0.11502800000000057,True,0.0,0.0,0.0
251,9.61,-0.9,1.73,-0.02,-0.02,0.0,-20.69,14.75,12.69,0.76,-0.07,-0.64,-0.02,0.251,-0.12837500000000035,-0.0864379999999999,-0.07890900000000123,True,0.0,0.0,0.0
252,9.62,-0.95,1.69,-0.02,-0.02,0.0,-20.69,14.75,12.69,0.76,-0.07,-0.64,-0.02,0.252,-0.09385000000000043,-0.14022099999999987,-0.0716530000000013,True,0.0,0.0,0.0
253,9.61,-0.95,1.65,-0.03,-0.02,0.0,-20.69,14.75,12.69,0.76,-0.07,-0.64,-0.02,0.253,-0.05677500000000024,-0.14609299999999992,-0.08794900000000183,True,0.0,0.0,0.0
254,9.65,-0.88,1.67,-0.03,-0.02,0.0,-21.06,13.69,13.5,0.76,-0.07,-0.64,-0.02,0.254,-0.06087499999999979,-0.07235199999999972,-0.051311000000000107,True,0.0,0.0,0.0
255,9.61,-0.84,1.62,-0.03,-0.02,0.0,-21.06,13.69,13.5,0.76,-0.07,-0.64,-0.02,0.255,-0.01447500000000046,-0.04204399999999986,-0.10174200000000155,True,0.0,0.0,0.0
256,9.6,-0.83,1.59,-0.02,-0.01,0.0,-21.06,13.69,13.5,0.76,-0.07,-0.64,-0.02,0.256,0.014100000000000001,-0.03677699999999978,-0.11721100000000106,True,0.0,0.0,0.0
257,9.56,-0.8,1.6,-0.0,-0.01,0.0,-21.06,13.69,13.5,0.76,-0.07,-0.64,-0.02,0.257,0.0010999999999998789,-0.008367999999999737,-0.15702399999999983,True,0.0,0.0,0.0
258,9.61,-0.89,1.62,0.01,-0.01,0.0,-21.06,13.69,13.5,0.76,-0.07,-0.64,-0.02,0.258,-0.020475000000000465,-0.09113899999999986,-0.09770200000000173,True,0.0,0.0,0.0
259,9.63,-0.94,1.59,0.01,-0.01,0.0,-21.06,14.0,13.19,0.76,-0.07,-0.64,-0.02,0.259,0.006075000000000053,-0.1430099999999998,-0.07905500000000032,True,0.0,0.0,0.0
260,9.63,-0.95,1.62,0.01,-0.01,0.0,-21.06,14.0,13.19,0.76,-0.07,-0.64,-0.02,0.26,-0.024225000000000163,-0.1488689999999998,-0.07334199999999846,True,0.0,0.0,0.0
261,9.63,-0.95,1.62,0.01,-0.01,0.0,-21.06,14.0,13.19,0.76,-0.07,-0.64,-0.02,0.261,-0.024225000000000163,-0.1488689999999998,-0.07334199999999846,True,0.0,0.0,0.0
262,9.61,-0.91,1.65,0.01,-0.0,0.0,-21.06,14.0,13.19,0.76,-0.07,-0.64,-0.02,0.262,-0.051975000000000104,-0.10681699999999994,-0.0911810000000024,True,0.0,0.0,0.0
263,9.61,-0.96,1.65,0.01,-0.0,0.0,-21.06,14.0,13.19,0.76,-0.07,-0.64,-0.02,0.263,-0.05797500000000011,-0.15591199999999983,-0.08714100000000258,True,0.0,0.0,0.0
264,9.63,-0.93,1.64,0.0,-0.0,0.0,-20.25,13.38,13.56,0.76,-0.07,-0.64,-0.02,0.264,-0.04122499999999962,-0.1265909999999999,-0.0716879999999982,True,0.0,0.0,0.0
265,9.63,-0.93,1.66,-0.0,-0.0,0.0,-20.25,13.38,13.56,0.76,-0.07,-0.64,-0.02,0.265,-0.06062499999999971,-0.1239509999999999,-0.06841799999999942,True,0.0,0.0,0.0
266,9.61,-0.89,1.63,-0.01,0.0,-0.0,-20.25,13.38,13.56,0.76,-0.07,-0.64,-0.02,0.266,-0.030175000000000285,-0.0898189999999999,-0.09606700000000146,True,0.0,0.0,0.0
267,9.58,-0.9,1.66,-0.02,0.0,0.0,-20.25,13.38,13.56,0.76,-0.07,-0.64,-0.02,0.267,-0.06564999999999999,-0.09745399999999979,-0.11962199999999967,True,0.0,0.0,0.0
268,9.6,-0.86,1.61,-0.01,-0.0,0.0,-20.25,13.38,13.56,0.76,-0.07,-0.64,-0.02,0.268,-0.00890000000000013,-0.06359399999999985,-0.11151700000000098,True,0.0,0.0,0.0
269,9.64,-0.88,1.65,-0.01,0.0,0.0,-21.5,14.75,14.38,0.76,-0.07,-0.64,-0.02,0.269,-0.04319999999999968,-0.07558399999999976,-0.06433700000000009,True,0.0,0.0,0.0
270,9.62,-0.88,1.66,-0.01,0.0,0.0,-21.5,14.75,14.38,0.76,-0.07,-0.64,-0.02,0.27,-0.05635000000000012,-0.07544799999999982,-0.08221400000000223,True,0.0,0.0,0.0
271,9.61,-0.81,1.64,-0.01,0.0,0.0,-21.5,14.75,14.38,0.76,-0.07,-0.64,-0.02,0.271,-0.030275000000000052,-0.009946999999999928,-0.10089600000000054,True,0.0,0.0,0.0
272,9.6,-0.84,1.69,-0.01,0.0,0.0,-21.5,14.75,14.38,0.76,-0.07,-0.64,-0.02,0.272,-0.08410000000000006,-0.033395999999999815,-0.10005300000000084,True,0.0,0.0,0.0
273,9.65,-0.86,1.71,-0.01,0.0,0.0,-21.5,14.75,14.38,0.76,-0.07,-0.64,-0.02,0.273,-0.09727499999999978,-0.04743399999999978,-0.046387000000001066,True,0.0,0.0,0.0
274,9.64,-0.88,1.72,-0.0,0.0,0.0,-21.5,14.38,12.75,0.76,-0.07,-0.64,-0.02,0.274,-0.11109999999999975,-0.06634399999999974,-0.05289199999999994,True,0.0,0.0,0.0
275,9.62,-0.94,1.75,0.0,-0.0,0.0,-21.5,14.38,12.75,0.76,-0.07,-0.64,-0.02,0.275,-0.15085000000000037,-0.12248199999999984,-0.06265100000000245,True,0.0,0.0,0.0
276,9.6,-0.97,1.72,0.0,-0.0,0.0,-21.5,14.38,12.75,0.76,-0.07,-0.64,-0.02,0.276,-0.12880000000000003,-0.15708299999999975,-0.08464400000000083,True,0.0,0.0,0.0
277,9.58,-0.94,1.7,-0.0,-0.0,0.0,-21.5,14.38,12.75,0.76,-0.07,-0.64,-0.02,0.277,-0.10925000000000007,-0.13144999999999976,-0.10984999999999978,True,0.0,0.0,0.0
278,9.59,-0.94,1.66,-0.01,-0.01,0.0,-21.5,14.38,12.75,0.76,-0.07,-0.64,-0.02,0.278,-0.06872499999999993,-0.13613799999999984,-0.10663400000000145,True,0.0,0.0,0.0
279,9.6,-0.91,1.67,-0.01,-0.0,0.0,-21.06,14.38,12.75,0.76,-0.07,-0.64,-0.02,0.279,-0.07309999999999994,-0.10476899999999986,-0.09766700000000128,True,0.0,0.0,0.0
280,9.61,-0.92,1.61,-0.01,-0.0,0.0,-21.06,14.38,12.75,0.76,-0.07,-0.64,-0.02,0.28,-0.01437500000000047,-0.12191599999999994,-0.09691300000000069,True,0.0,0.0,0.0
281,9.58,-0.9,1.57,-0.01,-0.0,0.0,-21.06,14.38,12.75,0.76,-0.07,-0.64,-0.02,0.281,0.021649999999999947,-0.10933399999999979,-0.1343369999999986,True,0.0,0.0,0.0
282,9.59,-0.89,1.56,-0.01,0.0,0.0,-21.06,14.38,12.75,0.76,-0.07,-0.64,-0.02,0.282,0.03427499999999983,-0.10024299999999983,-0.12702400000000047,True,0.0,0.0,0.0
283,9.64,-0.87,1.59,-0.01,0.01,0.0,-21.06,14.38,12.75,0.76,-0.07,-0.64,-0.02,0.283,0.016199999999999992,-0.07368499999999983,-0.07495499999999922,True,0.0,0.0,0.0
284,9.65,-0.84,1.62,-0.01,0.01,0.0,-20.69,14.38,13.19,0.76,-0.07,-0.64,-0.02,0.284,-0.007575000000000109,-0.03967599999999971,-0.06271800000000027,True,0.0,0.0,0.0
285,9.67,-0.8,1.64,-0.01,0.01,0.0,-20.69,14.38,13.19,0.76,-0.07,-0.64,-0.02,0.285,-0.018725000000000103,0.0034240000000002047,-0.04316799999999965,True,0.0,0.0,0.0
286,9.63,-0.78,1.66,0.01,0.01,0.0,-20.69,14.38,13.19,0.76,-0.07,-0.64,-0.02,0.286,-0.04262499999999969,0.023334000000000105,-0.08053799999999889,True,0.0,0.0,0.0
287,9.59,-1.01,1.68,0.01,0.0,0.0,-20.69,14.38,13.19,0.76,-0.07,-0.64,-0.02,0.287,-0.09652499999999997,-0.20223099999999988,-0.0977080000000008,True,0.0,0.0,0.0
288,9.55,-1.11,1.67,0.01,0.0,0.0,-21.5,14.38,13.19,0.76,-0.07,-0.64,-0.02,0.288,-0.10572499999999985,-0.30410899999999985,-0.13028699999999915,True,0.0,0.0,0.0
289,9.55,-1.05,1.68,-0.0,0.01,0.0,-21.5,14.38,13.19,0.76,-0.07,-0.64,-0.02,0.289,-0.10822500000000002,-0.2438749999999999,-0.13349999999999973,True,0.0,0.0,0.0
290,9.55,-1.05,1.68,-0.01,0.0,0.0,-21.5,14.38,13.19,0.76,-0.07,-0.64,-0.02,0.29,-0.10822500000000002,-0.2438749999999999,-0.13349999999999973,True,0.0,0.0,0.0
291,9.64,-0.87,1.8,0.0,0.0,0.01,-21.5,14.38,13.19,0.76,-0.07,-0.64,-0.02,0.291,-0.1875,-0.04596499999999984,-0.04061999999999877,True,0.0,0.0,0.0
292,9.6,-0.88,1.77,0.02,0.0,0.01,-21.5,14.38,13.19,0.76,-0.07,-0.64,-0.02,0.292,-0.16649999999999987,-0.06211199999999978,-0.08374099999999984,True,0.0,0.0,0.0
293,9.62,-0.97,1.72,0.04,0.0,0.0,-21.5,13.69,11.19,0.76,-0.07,-0.64,-0.02,0.293,-0.1253500000000003,-0.1558989999999998,-0.06513200000000197,True,0.0,0.0,0.0
294,9.62,-1.01,1.59,0.02,0.0,0.01,-21.5,13.69,11.19,0.76,-0.07,-0.64,-0.02,0.294,-0.004050000000000331,-0.21233499999999988,-0.0831550000000032,True,0.0,0.0,0.0
295,9.63,-0.94,1.59,-0.0,-0.0,0.0,-21.5,13.69,11.19,0.76,-0.07,-0.64,-0.02,0.295,0.006075000000000053,-0.1430099999999998,-0.07905500000000032,True,0.0,0.0,0.0
296,9.63,-0.9,1.57,-0.02,0.0,0.0,-21.5,13.69,11.19,0.76,-0.07,-0.64,-0.02,0.296,0.030275000000000052,-0.10637399999999983,-0.08555699999999788,True,0.0,0.0,0.0
297,9.61,-0.83,1.6,-0.02,-0.0,0.0,-21.5,13.69,11.19,0.76,-0.07,-0.64,-0.02,0.297,0.006124999999999714,-0.03486499999999984,-0.10582000000000136,True,0.0,0.0,0.0
298,9.62,-0.92,1.62,-0.02,0.0,0.0,-21.06,14.25,14.0,0.76,-0.07,-0.64,-0.02,0.298,-0.022350000000000536,-0.12000399999999989,-0.08552200000000099,True,0.0,0.0,0.0
299,9.6,-0.91,1.66,-0.02,0.0,0.0,-21.06,14.25,14.0,0.76,-0.07,-0.64,-0.02,0.299,-0.0633999999999999,-0.10608899999999985,-0.09930200000000156,True,0.0,0.0,0.0
300,9.57,-0.97,1.66,-0.01,0.0,-0.0,-21.06,14.25,14.0,0.76,-0.07,-0.64,-0.02,0.3,-0.07577499999999993,-0.16677899999999976,-0.12372200000000078,True,0.0,0.0,0.0
301,9.57,-0.97,1.66,-0.01,0.0,-0.0,-21.06,14.25,14.0,0.76,-0.07,-0.64,-0.02,0.301,-0.07577499999999993,-0.16677899999999976,-0.12372200000000078,True,0.0,0.0,0.0
302,9.57,-0.93,1.65,-0.01,0.0,0.0,-21.06,14.25,14.0,0.76,-0.07,-0.64,-0.02,0.302,-0.061274999999999746,-0.1288229999999999,-0.12858900000000162,True,0.0,0.0,0.0
303,9.61,-0.94,1.64,-0.01,0.0,-0.0,-20.69,13.88,12.06,0.76,-0.07,-0.64,-0.02,0.303,-0.04587500000000011,-0.13759399999999988,-0.09039200000000136,True,0.0,0.0,0.0
304,9.63,-0.96,1.67,0.0,0.0,0.0,-20.69,13.88,12.06,0.76,-0.07,-0.64,-0.02,0.304,-0.0739249999999998,-0.15208799999999975,-0.06435899999999961,True,0.0,0.0,0.0
305,9.62,-0.91,1.68,0.01,0.01,-0.0,-20.69,13.88,12.06,0.76,-0.07,-0.64,-0.02,0.305,-0.07935000000000025,-0.10226499999999988,-0.07652000000000214,True,0.0,0.0,0.0
306,9.58,-0.88,1.67,0.01,0.01,-0.0,-20.69,13.88,12.06,0.76,-0.07,-0.64,-0.02,0.306,-0.07294999999999985,-0.07649599999999976,-0.11960299999999968,True,0.0,0.0,0.0
307,9.62,-0.89,1.73,0.01,0.01,-0.0,-20.69,13.88,12.06,0.76,-0.07,-0.64,-0.02,0.307,-0.12545000000000028,-0.07602699999999984,-0.06996100000000283,True,0.0,0.0,0.0
308,9.61,-0.91,1.76,0.0,0.01,-0.0,-21.06,13.56,12.37,0.76,-0.07,-0.64,-0.02,0.308,-0.15867500000000034,-0.09229699999999993,-0.07319600000000115,True,0.0,0.0,0.0
309,9.59,-0.87,1.73,-0.0,0.01,0.0,-21.06,13.56,12.37,0.76,-0.07,-0.64,-0.02,0.309,-0.12822500000000003,-0.05816499999999991,-0.10084499999999963,True,0.0,0.0,0.0
310,9.61,-0.85,1.76,-0.01,0.01,-0.0,-21.06,13.56,12.37,0.76,-0.07,-0.64,-0.02,0.31,-0.15147500000000047,-0.03338299999999991,-0.07804400000000022,True,0.0,0.0,0.0
311,9.6,-0.84,1.72,-0.01,0.0,-0.0,-21.06,13.56,12.37,0.76,-0.07,-0.64,-0.02,0.311,-0.11319999999999997,-0.029435999999999796,-0.09514800000000179,True,0.0,0.0,0.0
312,9.66,-0.78,1.72,-0.0,0.0,0.0,-21.06,13.56,12.37,0.76,-0.07,-0.64,-0.02,0.312,-0.09564999999999979,0.033030000000000115,-0.04146000000000072,True,0.0,0.0,0.0
313,9.6,-0.77,1.71,0.01,0.0,0.0,-20.69,14.25,11.56,0.76,-0.07,-0.64,-0.02,0.313,-0.09509999999999996,0.03797700000000012,-0.10243900000000217,True,0.0,0.0,0.0
314,9.58,-0.85,1.72,0.03,0.0,0.0,-20.69,14.25,11.56,0.76,-0.07,-0.64,-0.02,0.314,-0.11785000000000001,-0.04043899999999978,-0.11385199999999962,True,0.0,0.0,0.0
315,9.6,-0.97,1.7,0.04,0.0,0.01,-20.69,14.25,11.56,0.76,-0.07,-0.64,-0.02,0.315,-0.10940000000000016,-0.15972299999999975,-0.0879139999999996,True,0.0,0.0,0.0
316,9.6,-1.04,1.68,0.03,0.0,0.0,-20.69,14.25,11.56,0.76,-0.07,-0.64,-0.02,0.316,-0.09840000000000004,-0.2310959999999999,-0.08552800000000005,True,0.0,0.0,0.0
317,9.59,-1.0,1.67,0.02,0.0,0.0,-20.69,14.25,11.56,0.76,-0.07,-0.64,-0.02,0.317,-0.08562500000000006,-0.19373199999999988,-0.10015100000000032,True,0.0,0.0,0.0
318,9.58,-0.93,1.66,0.01,0.0,-0.0,-20.69,13.25,12.06,0.76,-0.07,-0.64,-0.02,0.318,-0.06924999999999981,-0.12691099999999986,-0.11719800000000014,True,0.0,0.0,0.0
319,9.6,-0.88,1.63,0.01,0.0,0.0,-20.69,13.25,12.06,0.76,-0.07,-0.64,-0.02,0.319,-0.03069999999999995,-0.0805919999999998,-0.10663100000000014,True,0.0,0.0,0.0
320,9.64,-0.89,1.65,0.01,0.0,0.0,-20.69,13.25,12.06,0.76,-0.07,-0.64,-0.02,0.32,-0.04439999999999977,-0.08540299999999978,-0.06352900000000083,True,0.0,0.0,0.0
321,9.63,-0.91,1.63,0.01,0.01,0.0,-20.69,13.25,12.06,0.76,-0.07,-0.64,-0.01,0.321,-0.014685999999999977,0.016966000000000148,-0.07726199999999928,True,0.0,0.0,0.0
322,9.59,-0.96,1.67,0.01,0.01,0.0,-20.69,13.25,12.06,0.76,-0.07,-0.64,-0.01,0.322,-0.06569400000000014,-0.030351999999999935,-0.10502200000000173,True,0.0,0.0,0.0
323,9.56,-0.97,1.65,0.01,0.01,-0.0,-20.25,13.88,12.75,0.76,-0.07,-0.64,-0.01,0.323,-0.052497999999999934,-0.04478999999999983,-0.1365759999999998,True,0.0,0.0,0.0
324,9.58,-0.89,1.65,-0.0,0.01,-0.0,-20.25,13.88,12.75,0.76,-0.07,-0.64,-0.01,0.324,-0.04065800000000008,0.03527400000000008,-0.12457999999999991,True,0.0,0.0,0.0
325,9.6,-0.85,1.63,-0.0,0.01,-0.0,-20.25,13.88,12.75,0.76,-0.07,-0.64,-0.01,0.325,-0.013581999999999983,0.07366600000000012,-0.11210400000000043,True,0.0,0.0,0.0
326,9.61,-0.86,1.61,0.01,0.02,0.0,-20.25,13.88,12.75,0.76,-0.07,-0.64,-0.01,0.326,0.006526000000000032,0.06220400000000009,-0.10468999999999973,True,0.0,0.0,0.0
327,9.58,-0.92,1.61,0.02,0.02,0.0,-20.25,13.88,12.75,0.76,-0.07,-0.64,-0.01,0.327,-0.004946000000000117,0.0010400000000000964,-0.12829999999999941,True,0.0,0.0,0.0
328,9.59,-0.94,1.65,0.03,0.02,0.0,-21.75,14.25,13.19,0.76,-0.07,-0.64,-0.01,0.328,-0.04417000000000004,-0.013091999999999826,-0.1101580000000002,True,0.0,0.0,0.0
329,9.63,-0.97,1.64,0.03,0.02,-0.0,-21.75,14.25,13.19,0.76,-0.07,-0.64,-0.01,0.329,-0.030687999999999827,-0.04077399999999984,-0.07001400000000046,True,0.0,0.0,0.0
330,9.63,-0.97,1.64,0.02,0.02,0.0,-21.75,14.25,13.19,0.76,-0.07,-0.64,-0.01,0.33,-0.030687999999999827,-0.04077399999999984,-0.07001400000000046,True,0.0,0.0,0.0
331,9.62,-0.93,1.75,0.01,0.03,-0.0,-21.75,14.25,13.19,0.76,-0.07,-0.64,-0.01,0.331,-0.13507800000000003,0.010882000000000086,-0.0655480000000015,True,0.0,0.0,0.0
332,9.61,-0.85,1.79,0.01,0.03,-0.0,-21.75,14.25,13.19,0.76,-0.07,-0.64,-0.01,0.332,-0.16727800000000004,0.09348200000000009,-0.07624999999999993,True,0.0,0.0,0.0
333,9.56,-0.83,1.79,0.01,0.03,-0.0,-21.75,14.25,13.56,0.76,-0.07,-0.64,-0.01,0.333,-0.17382199999999992,0.10940600000000025,-0.12683200000000028,True,0.0,0.0,0.0
334,9.59,-0.86,1.79,0.02,0.02,0.0,-21.75,14.25,13.56,0.76,-0.07,-0.64,-0.01,0.334,-0.1717820000000001,0.08217200000000005,-0.09479800000000083,True,0.0,0.0,0.0
335,9.61,-0.85,1.77,0.02,0.02,0.0,-21.75,14.25,13.56,0.76,-0.07,-0.64,-0.01,0.335,-0.14785000000000004,0.0910980000000001,-0.07951399999999964,True,0.0,0.0,0.0
336,9.59,-0.87,1.76,0.02,0.02,0.0,-21.75,14.25,13.56,0.76,-0.07,-0.64,-0.01,0.336,-0.14368800000000004,0.06877400000000006,-0.0987580000000019,True,0.0,0.0,0.0
337,9.6,-0.91,1.76,0.03,0.02,0.0,-21.75,14.25,13.56,0.76,-0.07,-0.64,-0.01,0.337,-0.14615200000000006,0.030230000000000146,-0.08527200000000157,True,0.0,0.0,0.0
338,9.6,-0.88,1.72,0.03,0.02,0.0,-21.75,14.25,12.75,0.76,-0.07,-0.64,-0.01,0.338,-0.10415200000000002,0.054928000000000116,-0.09460800000000091,True,0.0,0.0,0.0
339,9.6,-0.88,1.72,0.03,0.02,0.01,-21.75,14.25,12.75,0.76,-0.07,-0.64,-0.01,0.339,-0.10415200000000002,0.054928000000000116,-0.09460800000000091,True,0.0,0.0,0.0
340,9.55,-0.82,1.72,0.04,0.02,0.01,-21.75,14.25,12.75,0.76,-0.07,-0.64,-0.01,0.34,-0.10650399999999993,0.11014000000000027,-0.1489339999999988,True,0.0,0.0,0.0
341,9.58,-0.86,1.69,0.06,0.02,0.01,-21.75,14.25,12.75,0.76,-0.07,-0.64,-0.01,0.341,-0.07637000000000005,0.06950800000000007,-0.12086000000000041,True,0.0,0.0,0.0
342,9.52,-0.98,1.65,0.07,0.02,0.01,-21.75,14.25,12.75,0.76,-0.07,-0.64,-0.01,0.342,-0.0604579999999999,-0.05758799999999992,-0.17460800000000098,True,0.0,0.0,0.0
343,9.51,-0.98,1.68,0.06,0.02,0.01,-21.06,14.25,13.19,0.76,-0.07,-0.64,-0.01,0.343,-0.09132799999999985,-0.05475599999999989,-0.17945400000000156,True,0.0,0.0,0.0
344,9.56,-0.88,1.7,0.03,0.03,0.01,-21.06,14.25,13.19,0.76,-0.07,-0.64,-0.01,0.344,-0.09163600000000005,0.04956800000000014,-0.1368399999999994,True,0.0,0.0,0.0
345,9.64,-0.76,1.76,0.03,0.03,0.01,-21.06,14.25,13.19,0.76,-0.07,-0.64,-0.01,0.345,-0.12351999999999985,0.18053600000000009,-0.060344000000002396,True,0.0,0.0,0.0
346,9.64,-0.76,1.76,0.03,0.04,0.01,-21.06,14.25,13.19,0.76,-0.07,-0.64,-0.01,0.346,-0.12351999999999985,0.18053600000000009,-0.060344000000002396,True,0.0,0.0,0.0
347,9.59,-0.79,1.79,0.03,0.03,0.02,-21.75,14.69,12.37,0.76,-0.07,-0.64,-0.01,0.347,-0.1644460000000001,0.15092600000000003,-0.10135000000000005,True,0.0,0.0,0.0
348,9.59,-0.79,1.79,0.03,0.03,0.02,-21.75,14.69,12.37,0.76,-0.07,-0.64,-0.01,0.348,-0.1644460000000001,0.15092600000000003,-0.10135000000000005,True,0.0,0.0,0.0
349,9.59,-0.73,1.77,0.02,0.03,0.03,-21.75,14.69,12.37,0.76,-0.07,-0.64,-0.01,0.349,-0.13873000000000002,0.20747400000000013,-0.11023000000000138,True,0.0,0.0,0.0
350,9.52,-0.72,1.81,0.03,0.03,0.03,-21.75,14.69,12.37,0.76,-0.07,-0.64,-0.01,0.35,-0.18863399999999997,0.21685600000000013,-0.17283200000000143,True,0.0,0.0,0.0
351,9.51,-0.74,1.78,0.05,0.03,0.04,-21.75,14.69,12.37,0.76,-0.07,-0.64,-0.01,0.351,-0.16331600000000002,0.19289200000000017,-0.18559800000000237,True,0.0,0.0,0.0
352,9.56,-0.66,1.83,0.07,0.03,0.05,-21.06,13.56,12.37,0.76,-0.07,-0.64,-0.01,0.352,-0.1948620000000001,0.28114800000000006,-0.136216000000001,True,0.0,0.0,0.0
353,9.51,-0.57,1.74,0.09,0.04,0.06,-21.06,13.56,12.37,0.76,-0.07,-0.64,-0.01,0.353,-0.10664399999999996,0.35509800000000014,-0.20803800000000194,True,0.0,0.0,0.0
354,9.52,-0.55,1.77,0.13,0.04,0.07,-21.06,13.56,12.37,0.76,-0.07,-0.64,-0.01,0.354,-0.1319619999999999,0.3790620000000001,-0.195272000000001,True,0.0,0.0,0.0
355,9.52,-0.55,1.77,0.18,0.04,0.08,-21.06,13.56,12.37,0.76,-0.07,-0.64,-0.01,0.355,-0.1319619999999999,0.3790620000000001,-0.195272000000001,True,0.0,0.0,0.0
356,9.66,-0.8,1.7,0.18,0.04,0.09,-21.06,13.56,12.37,0.77,-0.07,-0.64,-0.01,0.356,0.05990599999999979,0.12379200000000015,0.10387000000000057,True,0.0,0.0,0.0
357,9.66,-0.8,1.7,0.18,0.04,0.09,-20.25,13.88,12.88,0.77,-0.07,-0.64,-0.01,0.357,0.05990599999999979,0.12379200000000015,0.10387000000000057,True,0.0,0.0,0.0
358,9.58,-0.79,1.55,0.13,0.05,0.08,-20.25,13.88,12.88,0.77,-0.07,-0.64,-0.01,0.358,0.19353799999999977,0.10974100000000006,-0.0028150000000017883,True,0.0,0.0,0.0
359,9.58,-0.79,1.55,0.09,0.05,0.08,-20.25,13.88,12.88,0.77,-0.07,-0.64,-0.01,0.359,0.19353799999999977,0.10974100000000006,-0.0028150000000017883,True,0.0,0.0,0.0
360,9.7,-0.6,1.57,0.06,0.06,0.09,-20.25,13.88,12.88,0.77,-0.07,-0.64,-0.01,0.36,0.21637599999999968,0.31058200000000014,0.10114499999999893,True,0.0,0.0,0.0
361,9.71,-0.51,1.61,0.03,0.06,0.09,-20.25,13.88,12.88,0.77,-0.07,-0.64,-0.01,0.361,0.1883389999999998,0.40592300000000026,0.10960500000000195,True,0.0,0.0,0.0
362,9.66,-0.48,1.61,0.03,0.06,0.1,-20.69,14.69,12.75,0.77,-0.07,-0.64,-0.01,0.362,0.1820839999999997,0.43213800000000024,0.05740500000000104,True,0.0,0.0,0.0
363,9.61,-0.8,1.4,0.04,0.07,0.11,-20.69,14.69,12.75,0.77,-0.07,-0.64,-0.01,0.363,0.34576099999999976,0.08390200000000006,0.0009699999999988052,True,0.0,0.0,0.0
364,9.51,-0.94,1.21,0.04,0.09,0.12,-20.69,14.69,12.75,0.77,-0.07,-0.64,-0.0,0.364,0.5129819999999996,0.04479000000000005,-0.1197480000000013,True,0.0,0.0,0.0
365,9.46,-1.06,1.06,0.03,0.1,0.13,-20.69,14.69,12.75,0.77,-0.07,-0.64,-0.0,0.365,0.64066,-0.09557200000000002,-0.18285200000000046,True,0.0,0.0,0.0
366,9.48,-1.13,0.93,0.01,0.12,0.13,-20.69,14.69,12.75,0.77,-0.07,-0.64,-0.0,0.366,0.7662799999999999,-0.17762599999999967,-0.17878599999999878,True,0.0,0.0,0.0
367,9.65,-1.17,0.43,0.01,0.14,0.12,-20.69,14.25,12.0,0.77,-0.07,-0.64,-0.0,0.367,1.2874899999999998,-0.2561979999999998,-0.09612199999999937,True,0.0,0.0,0.0
368,9.65,-1.17,0.43,0.02,0.18,0.12,-20.69,14.25,12.0,0.77,-0.07,-0.64,-0.0,0.368,1.2874899999999998,-0.2561979999999998,-0.09612199999999937,True,0.0,0.0,0.0
369,9.54,-1.19,-0.53,0.03,0.23,0.11,-20.69,14.25,12.0,0.77,-0.07,-0.63,-0.0,0.369,2.3258339999999995,-0.387737,-0.5272930000000002,True,0.0,0.0,0.0
370,9.54,-1.07,-1.82,0.05,0.29,0.1,-20.69,14.25,12.0,0.77,-0.07,-0.63,-0.0,0.37,3.5879759999999994,-0.40861100000000006,-0.7867479999999993,True,0.0,0.0,0.0
371,9.54,-1.07,-1.82,0.1,0.37,0.1,-20.69,14.25,12.0,0.77,-0.07,-0.63,-0.0,0.371,3.5879759999999994,-0.40861100000000006,-0.7867479999999993,True,0.0,0.0,0.0
372,9.69,-1.03,-3.26,0.18,0.47,0.09,-21.5,15.19,12.0,0.77,-0.07,-0.63,-0.0,0.372,5.018726999999999,-0.511217,-0.9207140000000003,False,0.0035879760000000027,-0.0004086110000000004,-0.000786748
373,9.69,-1.03,-3.26,0.18,0.47,0.09,-21.5,15.19,12.0,0.77,-0.07,-0.63,-0.0,0.373,5.018726999999999,-0.511217,-0.9207140000000003,False,0.008606703000000007,-0.0009198280000000008,-0.0017074620000000012
374,10.33,-1.83,-4.04,0.36,0.71,0.03,-21.5,15.19,12.0,0.78,-0.07,-0.63,0.0,0.374,6.044518,-1.3607939999999998,-0.292504000000001,False,0.013625430000000011,-0.0014310450000000012,-0.002628176000000002
375,10.52,-2.12,-3.57,0.37,0.85,-0.02,-21.5,15.19,12.0,0.78,-0.06,-0.62,0.0,0.375,5.689528000000001,-1.6485680000000005,-0.22345199999999998,False,0.019669948000000017,-0.0027918390000000026,-0.002920680000000003
376,10.76,-2.29,-2.84,0.3,0.98,-0.06,-21.5,15.19,12.0,0.78,-0.06,-0.62,0.0,0.376,5.025448000000001,-1.7305480000000004,0.18548000000000187,False,0.025359476000000023,-0.004440407000000005,-0.0031441320000000035
377,10.99,-2.38,-1.9,0.18,1.09,-0.13,-21.06,16.19,12.25,0.79,-0.06,-0.62,0.0,0.377,4.358035000000001,-1.7541260000000003,0.732838000000001,False,0.03038492400000003,-0.006170955000000007,-0.0029586520000000013
378,11.6,-2.3,0.96,-0.0,1.19,-0.21,-21.06,16.19,12.25,0.79,-0.06,-0.61,-0.0,0.378,1.8713520000000021,-1.3428519999999997,1.8265840000000004,False,0.03474295900000003,-0.00792508100000001,-0.0022258139999999996
379,12.03,-2.35,1.59,-0.2,1.29,-0.33,-21.06,16.19,12.25,0.79,-0.06,-0.61,-0.0,0.379,1.3704060000000018,-1.3012820000000003,2.4022499999999987,False,0.03661431100000004,-0.00926793300000001,-0.0003992299999999976
380,12.03,-2.35,1.59,-0.4,1.36,-0.45,-21.06,16.19,12.25,0.8,-0.06,-0.6,-0.0,0.38,1.7161080000000022,-1.3227400000000005,2.4038759999999986,False,0.03798471700000004,-0.01056921500000001,0.002003020000000003
381,14.4,-1.2,1.07,-0.63,1.41,-0.5,-21.06,16.19,12.25,0.8,-0.06,-0.6,-0.01,0.381,2.9508840000000034,-0.27360000000000007,4.427934999999998,False,0.039700825000000044,-0.011891955000000011,0.004406896000000004
382,14.4,-1.2,1.07,-0.81,1.5,-0.5,-21.56,15.06,9.25,0.8,-0.06,-0.59,-0.01,0.382,3.140804000000003,-0.2768140000000003,4.210507999999999,False,0.04265170900000005,-0.012165555000000012,0.008834831000000005
383,15.18,-0.35,0.8,-0.92,1.58,-0.46,-21.56,15.06,9.25,0.81,-0.07,-0.58,-0.02,0.383,4.132156000000002,0.504544,4.779361999999999,False,0.045792513000000055,-0.012442369000000012,0.013045339000000006
384,14.54,0.28,0.91,-0.88,1.63,-0.43,-21.56,15.06,9.25,0.81,-0.07,-0.58,-0.02,0.384,3.893188000000002,1.110274,4.154071999999999,False,0.04992466900000006,-0.011937825000000011,0.01782470100000001
385,12.54,1.32,1.79,-0.57,1.71,-0.49,-21.56,15.06,9.25,0.82,-0.07,-0.56,-0.03,0.385,3.0815259999999975,1.9256680000000002,2.2873119999999982,False,0.053817857000000066,-0.01082755100000001,0.021978773000000014
386,11.6,1.51,2.31,-0.57,1.71,-0.49,-21.56,15.06,9.25,0.82,-0.07,-0.56,-0.03,0.386,2.2893539999999977,2.161626,1.589135999999998,False,0.05689938300000007,-0.008901883000000008,0.024266085000000014
387,9.1,1.27,5.6,-0.06,1.58,-0.34,-23.5,14.19,5.25,0.83,-0.07,-0.54,-0.04,0.387,-1.1626799999999995,2.21334,0.5118899999999993,False,0.05918873700000007,-0.0067402570000000064,0.02585522100000001
388,9.1,1.27,5.6,-0.06,1.58,-0.34,-23.5,14.19,5.25,0.84,-0.07,-0.54,-0.04,0.388,-1.0701740000000002,2.235109,0.7019119999999983,False,0.05802605700000007,-0.004526917000000004,0.026367111000000013
389,8.41,1.2,6.04,0.11,1.49,-0.41,-23.5,14.19,5.25,0.84,-0.07,-0.54,-0.04,0.389,-1.7648110000000008,2.230716,0.25799600000000034,False,0.05695588300000007,-0.0022918080000000024,0.02706902300000001
390,7.93,0.91,6.26,0.29,1.37,-0.47,-25.56,13.38,3.25,0.85,-0.06,-0.53,-0.04,0.39,-1.9727080000000004,1.7774139999999998,0.07065399999999755,True,0.0,0.0,0.0
391,7.97,0.07,5.49,0.48,1.19,-0.46,-25.56,13.38,3.25,0.85,-0.06,-0.53,-0.04,0.391,-1.3754340000000012,0.827562,-0.1815420000000021,True,0.0,0.0,0.0
392,8.35,-0.1,4.65,0.74,0.7,-0.41,-25.56,13.38,3.25,0.85,-0.05,-0.52,-0.04,0.392,-0.3214500000000018,0.35621000000000014,-0.2927800000000005,True,0.0,0.0,0.0
393,8.53,-0.17,4.16,0.74,0.7,-0.41,-25.56,13.38,3.25,0.85,-0.05,-0.52,-0.04,0.393,0.18288999999999822,0.22208000000000017,-0.35099000000000125,True,0.0,0.0,0.0
394,8.41,-0.13,4.02,0.81,0.44,-0.39,-25.56,13.38,3.25,0.85,-0.05,-0.52,-0.04,0.394,0.2565299999999988,0.24582800000000005,-0.5224540000000015,False,0.00018288999999999838,0.00022208000000000037,-0.00035099000000000154
395,7.48,0.08,3.9,0.86,0.18,-0.35,-25.56,13.38,3.25,0.85,-0.04,-0.52,-0.04,0.395,-0.04464400000000035,0.309144,-1.4126660000000015,False,0.00043941999999999744,0.00046790800000000066,-0.0008734440000000035
396,7.1,0.11,3.83,0.94,-0.08,-0.3,-27.25,9.75,-0.88,0.85,-0.04,-0.52,-0.04,0.396,-0.15149800000000102,0.341195,-1.7822410000000009,False,0.0003947759999999971,0.000777052000000001,-0.002286110000000006
397,6.84,0.03,3.78,1.09,-0.34,-0.25,-27.25,9.75,-0.88,0.85,-0.03,-0.53,-0.04,0.397,-0.3779580000000009,0.13547099999999995,-1.9591080000000014,False,0.00024327799999999592,0.0011182470000000012,-0.004068351000000008
398,6.74,-0.13,3.83,1.24,-0.63,-0.17,-27.25,9.75,-0.88,0.85,-0.03,-0.53,-0.04,0.398,-0.48294600000000054,-0.016383000000000036,-2.025957000000001,False,-0.00013468000000000534,0.0012537180000000013,-0.006027459000000011
399,6.88,-0.52,3.92,1.29,-0.91,-0.08,-27.25,9.75,-0.88,0.85,-0.02,-0.53,-0.04,0.399,-0.5420800000000012,-0.5432240000000002,-1.868704000000001,False,-0.0006176260000000063,0.0012373350000000013,-0.008053416000000015
400,7.18,-1.12,3.5,1.11,-1.46,0.15,-31.5,8.5,-1.25,0.84,-0.01,-0.55,-0.02,0.4,-0.3904480000000019,-1.1549800000000003,-1.766732000000001,False,-0.0011597060000000082,0.0006941110000000006,-0.009922120000000017
401,7.46,-1.3,3.15,0.91,-1.73,0.25,-31.5,8.5,-1.25,0.84,-0.01,-0.55,-0.02,0.401,0.03756799999999849,-1.3562560000000001,-1.6500260000000004,False,-0.0015501540000000104,-0.0004608690000000008,-0.01168885200000002
402,7.46,-1.3,3.15,0.69,-1.96,0.33,-31.5,8.5,-1.25,0.83,-0.01,-0.56,-0.02,0.402,-0.1872000000000016,-1.34387,-1.6966,False,-0.001512586000000012,-0.0018171250000000023,-0.013338878000000023
403,7.73,-1.13,2.99,0.45,-2.18,0.41,-31.5,8.5,-1.25,0.82,-0.01,-0.57,-0.02,0.403,-0.15994600000000014,-1.1745979999999998,-1.5482140000000015,False,-0.0016997860000000137,-0.0031609950000000032,-0.015035478000000024
404,7.83,-0.98,3.05,0.24,-2.37,0.46,-31.5,8.5,-1.25,0.82,-0.01,-0.57,-0.02,0.404,-0.17466000000000026,-1.0248659999999998,-1.4328660000000024,False,-0.0018597320000000139,-0.004335593000000004,-0.01658369200000003
405,7.98,-0.49,2.87,0.1,-2.54,0.51,-32.69,8.06,-1.06,0.81,-0.01,-0.58,-0.01,0.405,-0.15849399999999836,-0.4431490000000001,-1.3906030000000005,False,-0.002034392000000014,-0.005360459000000005,-0.018016558000000033
406,8.07,-0.26,2.85,0.04,-2.68,0.55,-32.69,8.06,-1.06,0.8,-0.01,-0.59,-0.01,0.406,-0.34142499999999876,-0.211518,-1.3572989999999994,False,-0.002192886000000013,-0.005803608000000005,-0.019407161000000034
407,8.16,-0.18,2.91,0.04,-2.8,0.59,-32.69,8.06,-1.06,0.79,-0.02,-0.62,-0.01,0.407,-0.8983800000000002,0.020039999999999947,-1.1130899999999997,False,-0.002534310999999993,-0.006015125999999994,-0.02076445999999996
408,8.23,-0.3,2.81,0.11,-2.91,0.65,-32.69,8.06,-1.06,0.79,-0.02,-0.62,-0.01,0.408,-0.7885319999999998,-0.10469000000000007,-1.0661259999999988,False,-0.003432690999999994,-0.005995085999999994,-0.02187754999999996
409,8.27,-0.97,2.29,0.22,-3.0,0.72,-32.69,8.06,-1.06,0.78,-0.02,-0.63,-0.0,0.409,-0.522643,-0.6949010000000002,-1.1685610000000004,False,-0.0042212229999999944,-0.006099775999999994,-0.02294367599999996
410,8.39,-1.28,2.23,0.29,-3.07,0.77,-33.69,9.88,4.0,0.77,-0.02,-0.64,0.0,0.41,-0.6894130000000003,-0.99922,-1.0935249999999996,False,-0.004743865999999995,-0.0067946769999999955,-0.024112236999999963
411,8.65,-1.49,2.52,0.31,-3.14,0.81,-33.69,9.88,4.0,0.76,-0.02,-0.65,0.01,0.411,-1.1626500000000006,-1.0891759999999997,-0.8124979999999979,False,-0.005433278999999996,-0.007793896999999997,-0.025205761999999965
412,8.95,-1.73,2.46,0.28,-3.23,0.86,-33.69,9.88,4.0,0.74,-0.02,-0.67,0.02,0.412,-1.5530950000000017,-1.2108930000000002,-0.6019660000000027,False,-0.006595928999999997,-0.008883072999999998,-0.026018259999999963
413,9.35,-2.15,1.34,0.25,-3.32,0.88,-33.69,9.88,4.0,0.74,-0.02,-0.67,0.02,0.413,-0.4009510000000015,-1.6096630000000003,-0.2925020000000007,False,-0.008149024,-0.010093966,-0.026620225999999966
414,9.35,-2.15,1.34,0.19,-3.34,0.85,-33.69,9.88,4.0,0.73,-0.03,-0.69,0.02,0.414,-0.8419989999999996,-1.4847369999999993,-0.17307800000000206,False,-0.008549975000000001,-0.011703629,-0.026912727999999966
415,9.77,-2.16,0.93,0.05,-3.33,0.82,-32.75,10.38,8.06,0.72,-0.03,-0.7,0.02,0.415,-0.6847149999999997,-1.4694839999999998,0.20617499999999822,False,-0.009391974,-0.013188366,-0.02708580599999997
416,9.77,-2.16,0.93,-0.11,-3.31,0.83,-32.75,10.38,8.06,0.7,-0.03,-0.71,0.03,0.416,-1.0651470000000005,-1.3173839999999999,0.05341699999999783,False,-0.010076689000000002,-0.014657850000000002,-0.02687963099999997
417,9.9,-1.49,-0.11,-0.27,-3.22,0.8,-32.75,10.38,8.06,0.69,-0.03,-0.72,0.03,0.417,-0.3119580000000005,-0.6413849999999999,0.13952699999999751,False,-0.011141836000000002,-0.015975234,-0.026826213999999973
418,9.68,-1.18,-0.37,-0.4,-3.09,0.74,-32.75,10.38,8.06,0.68,-0.04,-0.73,0.03,0.418,-0.3282079999999985,-0.21516999999999978,-0.08070799999999956,False,-0.011453794000000003,-0.016616619000000003,-0.026686686999999976
419,9.38,-0.64,-0.92,-0.46,-2.98,0.7,-32.75,10.38,8.06,0.67,-0.04,-0.74,0.03,0.419,-0.016919999999999047,0.287748,-0.37713599999999836,False,-0.011782002000000001,-0.016831789000000003,-0.026767394999999975
420,9.06,-0.05,-1.78,-0.46,-2.79,0.71,-31.0,12.19,15.19,0.66,-0.04,-0.75,0.03,0.42,0.6220800000000002,0.8387119999999999,-0.6303260000000002,False,-0.011798922,-0.016544041000000002,-0.027144530999999975
421,9.04,-0.23,-1.99,-0.35,-2.55,0.73,-31.0,12.19,15.19,0.64,-0.05,-0.76,0.04,0.421,0.4275440000000006,0.917407,-0.6872330000000009,False,-0.011176842,-0.015705329,-0.027774856999999976
422,8.93,-0.56,-2.18,-0.18,-2.29,0.7,-31.0,12.19,15.19,0.64,-0.05,-0.76,0.04,0.422,0.6233330000000006,0.578384,-0.7205259999999996,False,-0.010749298,-0.014787922,-0.028462089999999978
423,8.71,-0.8,-2.42,-0.02,-2.01,0.65,-31.0,12.19,15.19,0.64,-0.05,-0.77,0.04,0.423,0.7854880000000004,0.31209400000000026,-0.7140199999999997,False,-0.010125964999999997,-0.014209537999999999,-0.029182615999999977
424,8.1,-1.42,-2.72,0.16,-1.69,0.56,-31.0,12.19,15.19,0.63,-0.05,-0.77,0.04,0.424,1.0317420000000008,-0.3715619999999999,-1.2712800000000009,False,-0.009340476999999996,-0.013897443999999998,-0.029896635999999976
425,8.1,-1.42,-2.72,0.16,-1.69,0.56,-28.87,12.56,19.19,0.62,-0.05,-0.78,0.04,0.425,0.7942260000000005,-0.36930599999999986,-1.2197040000000001,False,-0.008308734999999994,-0.014269005999999999,-0.03116791599999998
426,7.55,-2.25,-2.81,0.44,-0.94,0.27,-28.87,12.56,19.19,0.62,-0.05,-0.78,0.05,0.426,1.0046819999999999,-1.1205900000000002,-1.6009499999999992,False,-0.007514508999999993,-0.014638311999999999,-0.03238761999999998
427,7.35,-2.82,-2.33,0.45,-0.54,0.11,-28.87,12.56,19.19,0.62,-0.05,-0.78,0.05,0.427,0.573706,-1.7193160000000003,-1.821110000000001,False,-0.006509826999999992,-0.015758901999999998,-0.03398856999999998
428,7.43,-2.78,-1.83,0.15,0.27,-0.27,-28.87,12.56,19.19,0.62,-0.05,-0.78,0.05,0.428,0.07032599999999989,-1.6766040000000002,-1.8617340000000002,False,-0.005936120999999992,-0.017478218,-0.03580967999999998
429,7.45,-2.54,-1.25,0.15,0.27,-0.27,-28.87,12.56,19.19,0.62,-0.05,-0.78,0.05,0.429,-0.49419000000000013,-1.446012,-2.00601,False,-0.005865794999999992,-0.019154822000000002,-0.037671413999999986
430,7.39,-2.08,-0.76,-0.05,0.62,-0.45,-29.75,13.25,20.88,0.63,-0.05,-0.78,0.04,0.43,-0.8637740000000003,-1.1340760000000003,-2.1544120000000007,False,-0.0063599849999999925,-0.020600834000000002,-0.03967742399999999
431,7.06,-0.91,0.42,-0.23,0.97,-0.62,-29.75,13.25,20.88,0.63,-0.05,-0.78,0.04,0.431,-1.926408,-0.004336000000000038,-2.874766000000001,False,-0.007223758999999994,-0.021734910000000003,-0.04183183599999999
432,6.89,-0.56,1.02,-0.35,1.3,-0.78,-29.75,13.25,20.88,0.63,-0.05,-0.77,0.04,0.432,-2.3528189999999998,0.327222,-3.283944,False,-0.009150166999999996,-0.021739246000000004,-0.04470660199999999
433,6.74,-0.3,2.06,-0.41,1.63,-0.88,-29.75,13.25,20.88,0.64,-0.04,-0.76,0.03,0.433,-3.143234,0.38473399999999996,-3.587986,False,-0.011502985999999996,-0.021412024,-0.047990545999999995
434,6.79,-0.2,3.3,-0.48,1.92,-0.94,-29.75,13.25,20.88,0.64,-0.04,-0.76,0.03,0.434,-4.358606999999999,0.49510799999999994,-3.7583340000000005,False,-0.01464622,-0.02102729,-0.051578531999999996
435,7.16,0.1,4.62,-0.52,2.04,-0.96,-31.56,12.69,18.5,0.66,-0.04,-0.75,0.02,0.435,-5.477844,0.8235700000000001,-3.333158,False,-0.019004827000000002,-0.020532182,-0.055336866
436,8.03,0.57,2.87,-0.56,1.95,-0.97,-31.56,12.69,18.5,0.66,-0.04,-0.75,0.02,0.436,-3.836111,1.327005,-2.2879910000000008,False,-0.024482671000000008,-0.019708612,-0.058670024
437,10.87,0.98,-2.81,-0.5,1.58,-0.93,-31.56,12.69,18.5,0.67,-0.04,-0.74,0.01,0.437,1.776964000000001,1.6550380000000002,1.1745259999999984,False,-0.02831878200000001,-0.018381606999999998,-0.060958015000000004
438,23.23,-3.78,-7.55,-0.03,0.82,-0.64,-31.56,12.69,18.5,0.67,-0.04,-0.74,0.01,0.438,5.061540000000003,-2.3667860000000003,14.221346000000002,False,-0.02654181800000001,-0.016726568999999997,-0.059783489
439,30.07,-4.0,-3.0,0.75,0.34,0.01,-31.56,12.69,18.5,0.67,-0.03,-0.74,0.02,0.439,-0.044873999999996084,-1.8716160000000004,20.548128,False,-0.021480278000000002,-0.019093355,-0.045562142999999986
440,26.26,2.66,-1.78,0.79,0.41,0.83,-33.88,9.88,15.75,0.67,-0.03,-0.74,0.02,0.44,-0.7647319999999966,4.498076,16.188812000000006,False,-0.021525152,-0.020964971000000002,-0.02501401499999997
441,15.09,4.31,0.55,1.05,1.09,0.23,-33.88,9.88,15.75,0.67,-0.03,-0.74,0.03,0.441,-2.017650999999998,5.5614609999999995,4.707171000000001,False,-0.022289883999999996,-0.016466895,-0.008825202999999948
442,4.99,-1.33,0.29,2.41,1.86,-0.71,-33.88,9.88,15.75,0.69,-0.01,-0.72,0.04,0.442,-0.4526740000000003,-0.985822,-4.772798000000001,False,-0.024307534999999995,-0.010905433999999995,-0.004118031999999943
443,2.4,-3.76,1.94,3.11,2.3,-0.57,-33.88,9.88,15.75,0.69,-0.01,-0.72,0.04,0.443,-1.880848,-3.6508599999999993,-7.237968000000001,False,-0.024760208999999995,-0.011891255999999996,-0.008890829999999949
444,4.52,-5.99,4.37,2.48,1.77,-0.65,-34.75,11.06,12.25,0.7,0.01,-0.71,0.06,0.444,-3.8298699999999997,-6.050504,-4.931530000000001,False,-0.026641056999999996,-0.015542115999999998,-0.016128797999999958
445,4.52,-5.99,4.37,2.48,1.77,-0.65,-34.75,11.06,12.25,0.7,0.01,-0.71,0.06,0.445,-3.8298699999999997,-6.050504,-4.931530000000001,False,-0.030470927,-0.021592620000000003,-0.021060327999999965
446,10.47,-4.29,5.1,-0.1,1.07,-0.75,-34.75,11.06,12.25,0.71,0.02,-0.7,0.05,0.446,-4.508849999999999,-4.303878,0.8792039999999997,False,-0.034300797,-0.02764312400000001,-0.025991857999999972
447,10.79,-3.35,3.88,-0.1,1.07,-0.75,-34.75,11.06,12.25,0.72,0.02,-0.7,0.05,0.447,-3.284503,-3.2770090000000005,1.3442599999999985,False,-0.038809647,-0.031947002000000016,-0.02511265399999997
448,11.07,-1.56,3.12,-1.27,0.98,-0.77,-34.75,11.06,12.25,0.72,0.02,-0.7,0.05,0.448,-2.6915790000000004,-1.3897560000000002,1.530132,False,-0.042094150000000004,-0.03522401100000002,-0.02376839399999997
449,10.75,3.21,4.07,-2.16,0.93,-0.81,-35.56,11.56,7.25,0.72,0.01,-0.69,0.03,0.449,-3.778354999999999,3.278079,0.9663969999999988,False,-0.04478572900000001,-0.03661376700000002,-0.02223826199999997
450,9.29,4.68,4.43,-2.37,0.92,-0.81,-35.56,11.56,7.25,0.72,0.01,-0.69,0.03,0.45,-4.280214999999999,4.675511999999999,-0.509309,False,-0.048564084000000014,-0.033335688000000016,-0.02127186499999997
451,8.01,5.08,4.05,-1.05,0.93,-0.66,-35.56,11.56,7.25,0.73,0.0,-0.68,0.01,0.451,-3.531104000000001,5.117482000000001,-1.6408300000000011,False,-0.05284429900000002,-0.028660176000000013,-0.02178117399999997
452,7.77,4.77,3.44,-1.05,0.93,-0.66,-35.56,11.56,7.25,0.73,0.0,-0.68,0.01,0.452,-2.9378660000000014,4.8137620000000005,-1.9179520000000023,True,0.0,0.0,0.0
453,9.83,3.7,2.22,-0.29,0.87,-0.48,-35.56,11.56,7.25,0.73,0.0,-0.68,0.01,0.453,-1.5660040000000017,3.7955660000000004,0.0556359999999998,False,-0.002937866000000004,0.004813762000000004,-0.001917952000000004
454,10.67,3.45,2.13,0.29,0.79,-0.31,-35.56,11.56,7.25,0.73,0.01,-0.68,0.01,0.454,-1.4592930000000017,3.383699000000001,0.9389249999999993,False,-0.004503870000000007,0.008609328000000008,-0.0018623160000000043
455,10.47,3.24,2.36,0.81,0.78,-0.18,-36.06,10.69,6.69,0.74,0.01,-0.68,0.01,0.455,-1.5746040000000008,3.217292,0.9340619999999991,False,-0.00596316300000001,0.011993027000000012,-0.0009233910000000041
456,9.76,2.9,2.69,1.35,0.81,-0.14,-36.06,10.69,6.69,0.74,0.02,-0.67,0.02,0.456,-1.8655000000000017,2.763142,0.14944700000000033,False,-0.007537767000000012,0.015210319000000016,1.0670999999995846e-05
457,9.26,0.87,2.22,1.7,0.82,-0.13,-36.06,10.69,6.69,0.74,0.02,-0.67,0.02,0.457,-1.3346820000000017,0.7669790000000001,-0.39882600000000146,True,0.0,0.0,0.0
458,9.45,-0.47,1.82,1.75,0.79,-0.09,-36.06,10.69,6.69,0.74,0.03,-0.67,0.03,0.458,-0.828959000000001,-0.5817910000000001,-0.24471000000000132,True,0.0,0.0,0.0
459,9.63,-1.48,1.57,1.47,0.73,-0.05,-36.06,10.69,6.69,0.75,0.03,-0.66,0.03,0.459,-0.20421900000000037,-1.5553440000000003,-0.06772499999999937,True,0.0,0.0,0.0
460,9.63,-1.48,1.57,1.47,0.73,-0.05,-37.38,10.75,4.19,0.75,0.04,-0.66,0.03,0.46,-0.17700000000000005,-1.704974,-0.08524599999999971,True,0.0,0.0,0.0
461,10.16,-2.3,1.69,0.6,0.62,-0.12,-37.38,10.75,4.19,0.75,0.04,-0.66,0.04,0.461,-0.11894799999999983,-2.40575,0.4788129999999988,False,-0.0001770000000000002,-0.0017049740000000015,-8.524599999999979e-05
462,10.24,-2.15,1.78,0.28,0.61,-0.21,-37.38,10.75,4.19,0.75,0.04,-0.66,0.04,0.462,-0.21452799999999983,-2.266091,0.5707699999999996,False,-0.00029594800000000014,-0.004110724000000003,0.0003935669999999995
463,10.24,-2.15,1.78,0.28,0.61,-0.21,-37.38,10.75,4.19,0.75,0.04,-0.65,0.04,0.463,-0.05540400000000001,-2.22831,0.4387679999999996,False,-0.0005104760000000002,-0.006376815000000004,0.0009643369999999996
464,9.79,-1.33,1.48,-0.12,0.63,-0.27,-37.38,10.75,4.19,0.76,0.04,-0.65,0.03,0.464,0.19640199999999952,-1.537168,0.08553399999999911,True,0.0,0.0,0.0
465,9.79,-1.33,1.48,-0.12,0.63,-0.27,-37.38,10.75,4.19,0.76,0.04,-0.65,0.03,0.465,0.19640199999999952,-1.537168,0.08553399999999911,True,0.0,0.0,0.0
466,9.62,-0.66,1.03,-0.35,0.66,-0.36,-37.56,11.56,2.25,0.76,0.04,-0.65,0.03,0.466,0.5480439999999998,-0.822778,-0.13770800000000172,True,0.0,0.0,0.0
467,9.64,-0.27,0.95,-0.53,0.65,-0.39,-37.56,11.56,2.25,0.76,0.04,-0.64,0.03,0.467,0.7305240000000002,-0.41409300000000004,-0.25618500000000033,True,0.0,0.0,0.0
468,9.36,0.87,1.25,-0.75,0.64,-0.4,-37.56,11.56,2.25,0.77,0.04,-0.64,0.02,0.468,0.42557999999999985,0.570491,-0.3108630000000012,True,0.0,0.0,0.0
469,9.24,1.48,1.66,-0.91,0.64,-0.4,-37.56,11.56,2.25,0.77,0.04,-0.64,0.02,0.469,-0.05001999999999995,1.147492,-0.33270599999999817,True,0.0,0.0,0.0
470,9.23,1.88,1.79,-0.91,0.65,-0.39,-38.19,11.38,1.69,0.77,0.03,-0.64,0.01,0.47,-0.16505099999999984,1.5649199999999999,-0.31790699999999994,True,0.0,0.0,0.0
471,9.2,1.93,1.7,-0.73,0.65,-0.35,-38.19,11.38,1.69,0.77,0.03,-0.64,0.01,0.471,-0.08461400000000019,1.620995,-0.36224799999999924,True,0.0,0.0,0.0
472,9.2,1.93,1.7,-0.46,0.66,-0.29,-38.19,11.38,1.69,0.77,0.03,-0.63,0.01,0.472,0.05956399999999973,1.6023439999999998,-0.4819520000000015,True,0.0,0.0,0.0
473,9.42,1.2,1.52,-0.18,0.66,-0.25,-38.19,11.38,1.69,0.78,0.03,-0.63,0.01,0.473,0.4428420000000004,0.905748,-0.18506799999999934,True,0.0,0.0,0.0
474,9.58,0.56,1.41,0.04,0.67,-0.22,-38.19,11.38,1.69,0.78,0.03,-0.63,0.01,0.474,0.6190280000000006,0.26597800000000005,-0.07278900000000021,True,0.0,0.0,0.0
475,9.59,-0.22,1.47,0.12,0.69,-0.22,-38.88,11.25,0.56,0.78,0.03,-0.62,0.01,0.475,0.7465460000000008,-0.5123639999999999,-0.2082619999999995,True,0.0,0.0,0.0
476,9.48,-0.14,1.53,0.02,0.72,-0.23,-38.88,11.25,0.56,0.78,0.03,-0.62,0.01,0.476,0.6595980000000004,-0.4341959999999999,-0.29857599999999884,True,0.0,0.0,0.0
477,9.48,-0.14,1.53,0.02,0.72,-0.23,-38.88,11.25,0.56,0.78,0.03,-0.62,0.0,0.477,0.6574440000000008,-0.563126,-0.30615299999999834,True,0.0,0.0,0.0
478,9.27,0.42,1.85,-0.35,0.73,-0.27,-38.88,11.25,0.56,0.79,0.03,-0.62,0.0,0.478,0.4024780000000008,-0.00934199999999992,-0.2674200000000013,True,0.0,0.0,0.0
479,9.39,0.41,1.98,-0.46,0.74,-0.28,-38.88,11.25,0.56,0.79,0.03,-0.61,0.0,0.479,0.4514010000000015,-0.029453000000000007,-0.24330600000000047,True,0.0,0.0,0.0
480,9.37,0.33,2.11,-0.52,0.77,-0.27,-40.06,10.75,-1.69,0.79,0.03,-0.61,-0.0,0.48,0.3239770000000015,-0.11450699999999991,-0.23373100000000235,True,0.0,0.0,0.0
481,9.25,0.27,2.09,-0.55,0.79,-0.26,-40.06,10.75,-1.69,0.79,0.03,-0.61,-0.0,0.481,0.3151010000000012,-0.16888499999999995,-0.35725300000000004,True,0.0,0.0,0.0
482,9.13,0.28,2.16,-0.58,0.8,-0.26,-40.06,10.75,-1.69,0.8,0.03,-0.6,-0.01,0.482,0.48320800000000164,-0.27279999999999993,-0.43080600000000047,False,0.00031510100000000144,-0.0001688850000000001,-0.00035725300000000036
483,9.17,0.13,1.99,-0.6,0.82,-0.27,-40.06,10.75,-1.69,0.8,0.03,-0.6,-0.01,0.483,0.6607420000000013,-0.41861000000000004,-0.4488940000000028,False,0.0007983090000000036,-0.00044168500000000025,-0.0007880590000000012
484,9.17,0.13,1.99,-0.61,0.83,-0.27,-40.06,10.75,-1.69,0.8,0.03,-0.6,-0.01,0.484,0.6607420000000013,-0.41861000000000004,-0.4488940000000028,False,0.0014590510000000055,-0.0008602950000000007,-0.0012369530000000044
485,9.2,0.54,1.96,-0.67,0.86,-0.3,-40.0,11.06,-1.87,0.8,0.02,-0.6,-0.02,0.485,0.6971520000000004,0.008688000000000168,-0.4063200000000027,False,0.0021197930000000074,-0.0012789050000000012,-0.0016858470000000077
486,9.2,0.54,1.96,-0.67,0.86,-0.3,-40.0,11.06,-1.87,0.81,0.02,-0.59,-0.02,0.486,0.9634160000000005,0.009388000000000094,-0.3900800000000011,False,0.002816945000000008,-0.001270217000000001,-0.0020921670000000107
487,9.32,0.79,2.43,-0.75,0.94,-0.31,-40.0,11.06,-1.87,0.81,0.02,-0.59,-0.02,0.487,0.5529740000000012,0.24938200000000005,-0.11671999999999905,True,0.0,0.0,0.0
488,9.31,0.7,2.68,-0.76,0.98,-0.3,-40.0,11.06,-1.87,0.81,0.02,-0.58,-0.03,0.488,0.46818800000000094,0.031813999999999995,-0.16831999999999958,True,0.0,0.0,0.0
489,9.31,0.7,2.68,-0.76,0.98,-0.3,-40.0,11.06,-1.87,0.81,0.02,-0.58,-0.03,0.489,0.46818800000000094,0.031813999999999995,-0.16831999999999958,True,0.0,0.0,0.0
490,9.52,0.74,3.12,-0.79,1.03,-0.29,-39.69,11.19,-4.06,0.82,0.01,-0.57,-0.03,0.49,0.41010799999999925,0.21588599999999997,0.20772399999999713,True,0.0,0.0,0.0
491,9.65,0.64,3.19,-0.79,1.03,-0.29,-39.69,11.19,-4.06,0.82,0.01,-0.57,-0.04,0.491,0.3890239999999996,-0.012718000000000021,0.35608999999999824,False,0.00041010799999999963,0.00021588600000000015,0.00020772399999999732
492,9.84,0.58,3.27,-0.81,1.06,-0.27,-39.69,11.19,-4.06,0.82,0.01,-0.57,-0.04,0.492,0.37666399999999944,-0.08474799999999996,0.5577499999999969,False,0.0007991319999999995,0.00020316800000000013,0.0005638139999999959
493,9.9,0.63,3.12,-0.87,1.08,-0.26,-39.69,11.19,-4.06,0.83,0.0,-0.56,-0.04,0.493,0.8411099999999991,0.11298299999999994,0.5971919999999997,False,0.0011757959999999994,0.00011842000000000009,0.0011215639999999933
494,9.8,0.32,2.73,-0.87,1.08,-0.26,-39.69,11.19,-4.06,0.83,0.0,-0.56,-0.04,0.494,1.1456999999999993,-0.2081280000000001,0.34335300000000046,False,0.0020169059999999993,0.00023140300000000014,0.0017187559999999936
495,9.76,0.11,2.4,-0.95,1.14,-0.24,-39.5,10.0,-6.0,0.83,-0.0,-0.55,-0.05,0.495,1.5647939999999991,-0.569301,0.0402900000000006,True,0.0,0.0,0.0
496,9.77,0.02,2.16,-0.95,1.14,-0.24,-39.5,10.0,-6.0,0.83,-0.0,-0.55,-0.05,0.496,1.7802829999999987,-0.672332,-0.048866000000002074,True,0.0,0.0,0.0
497,9.74,-0.16,1.72,-0.99,1.18,-0.21,-39.5,10.0,-6.0,0.84,-0.0,-0.54,-0.06,0.497,2.420783999999999,-1.0293119999999998,-0.2659679999999991,True,0.0,0.0,0.0
498,9.74,-0.26,1.45,-0.95,1.23,-0.18,-39.5,10.0,-6.0,0.84,-0.01,-0.53,-0.06,0.498,2.784183999999998,-1.017496,-0.5170940000000019,True,0.0,0.0,0.0
499,9.74,-0.38,1.19,-0.9,1.29,-0.16,-39.5,10.0,-6.0,0.84,-0.01,-0.53,-0.06,0.499,3.0020079999999982,-1.1563359999999998,-0.6340420000000009,True,0.0,0.0,0.0
500,9.97,-1.12,-0.03,-0.75,1.51,-0.17,-39.06,9.19,-6.69,0.85,-0.02,-0.51,-0.07,0.5,4.435060999999999,-2.0807800000000003,-1.1939890000000002,True,0.0,0.0,0.0
501,9.97,-1.12,-0.03,-0.75,1.51,-0.17,-39.06,9.19,-6.69,0.86,-0.02,-0.51,-0.07,0.501,4.604285999999999,-2.113902,-1.0923599999999993,True,0.0,0.0,0.0
502,10.04,-1.33,-0.26,-0.71,1.78,-0.25,-39.06,9.19,-6.69,0.86,-0.02,-0.51,-0.07,0.502,4.809079999999998,-2.35406,-1.1498500000000025,True,0.0,0.0,0.0
503,10.09,-1.8,-0.44,-0.78,2.21,-0.35,-39.5,10.5,-10.19,0.87,-0.02,-0.49,-0.08,0.503,5.241868,-3.038932,-1.4834900000000015,False,0.004809080000000002,-0.002354060000000002,-0.0011498500000000035
504,10.09,-2.71,-1.34,-0.78,2.21,-0.35,-39.5,10.5,-10.19,0.87,-0.02,-0.49,-0.08,0.504,5.86182,-4.041894,-1.993686000000002,False,0.010050948000000007,-0.0053929920000000044,-0.0026333400000000066
505,10.58,-1.14,-1.23,-1.69,2.61,-0.4,-39.5,10.5,-10.19,0.88,-0.03,-0.47,-0.09,0.505,6.5779440000000005,-2.6708999999999996,-1.7270050000000001,False,0.015912768000000015,-0.009434886000000007,-0.00462702600000001
506,11.95,1.29,-0.07,-1.69,2.61,-0.4,-39.5,10.5,-10.19,0.88,-0.03,-0.47,-0.09,0.506,6.826524999999999,-0.2931809999999998,0.14134299999999733,False,0.02249071200000002,-0.012105786000000009,-0.006354031000000012
507,17.28,0.28,0.7,-1.39,2.66,-0.14,-39.5,10.5,-10.19,0.89,-0.03,-0.45,-0.09,0.507,9.559368000000001,-1.931648,4.5500799999999995,False,0.029317237000000024,-0.012398967000000009,-0.006212688000000014
508,18.74,-1.1,-0.21,-0.79,2.71,-0.16,-39.5,10.5,-10.19,0.9,-0.04,-0.43,-0.1,0.508,11.481978000000002,-3.843354,4.696244999999999,False,0.038876605000000036,-0.01433061500000001,-0.0016626080000000107
509,18.59,-2.01,-1.78,-0.39,2.77,-0.48,-39.69,9.06,-13.19,0.9,-0.04,-0.43,-0.1,0.509,12.396989000000001,-4.964377000000001,3.5716099999999997,False,0.05035858300000005,-0.018173969000000012,0.0030336369999999927
510,17.3,-1.71,-3.21,-0.38,2.78,-0.71,-39.69,9.06,-13.19,0.91,-0.03,-0.41,-0.11,0.51,13.213948000000002,-5.183960000000001,0.9980119999999992,False,0.06275557200000006,-0.023138346000000018,0.0066052469999999955
511,15.36,0.61,-2.99,-0.59,2.73,-0.78,-39.69,9.06,-13.19,0.91,-0.03,-0.41,-0.11,0.511,12.314100000000002,-2.5304160000000007,-0.23216400000000093,False,0.07596952000000008,-0.028322306000000023,0.007603258999999996
512,14.89,2.02,-0.94,-0.86,2.68,-0.75,-39.69,9.06,-13.19,0.91,-0.04,-0.39,-0.12,0.512,11.037428000000002,-0.9961399999999999,0.2964100000000016,False,0.08828362000000009,-0.030852722000000027,0.007371094999999995
513,13.65,3.25,2.65,-1.16,2.74,-0.75,-39.69,9.06,-13.19,0.92,-0.04,-0.38,-0.12,0.513,8.396540000000003,1.00586,1.8165400000000016,False,0.0993210480000001,-0.031848862000000026,0.007667504999999997
514,13.65,3.25,2.65,-1.52,2.87,-0.71,-35.88,8.5,-18.37,0.92,-0.04,-0.37,-0.13,0.514,8.57287,0.7245300000000001,1.6190499999999997,False,0.10771758800000011,-0.030843002000000026,0.009484045
515,8.64,6.43,12.77,-1.75,2.98,-0.66,-35.88,8.5,-18.37,0.93,-0.05,-0.34,-0.14,0.515,0.3222320000000005,6.609730000000001,5.575970000000003,False,0.11629045800000012,-0.030118472000000025,0.011103095
516,8.83,6.14,14.04,-1.29,2.81,-0.52,-35.88,8.5,-18.37,0.93,-0.05,-0.34,-0.14,0.516,-0.4093940000000007,6.527792000000002,6.671476,False,0.11661269000000013,-0.02350874200000002,0.016679065000000007
517,8.83,6.14,14.04,-0.8,2.48,-0.42,-35.88,8.5,-18.37,0.93,-0.05,-0.33,-0.14,0.517,-0.09522899999999801,6.438512,6.584114000000001,False,0.11620329600000012,-0.016980950000000012,0.023350541000000013
518,9.23,2.76,11.05,-0.4,2.13,-0.27,-35.88,8.5,-18.37,0.94,-0.05,-0.32,-0.15,0.518,1.4105859999999986,2.4443600000000005,4.739997999999998,False,0.11610806700000012,-0.010542438000000006,0.02993465500000002
519,9.23,2.76,11.05,-0.4,2.13,-0.27,-35.5,8.5,-22.75,0.94,-0.05,-0.31,-0.15,0.519,1.6737149999999996,2.3845919999999996,4.627809000000001,False,0.11751865300000013,-0.008098078000000003,0.03467465300000002
520,6.61,0.91,9.83,0.37,1.48,-0.01,-35.5,8.5,-22.75,0.94,-0.05,-0.3,-0.15,0.52,0.0007460000000003575,1.0062259999999998,2.0112380000000005,False,0.11919236800000013,-0.005713486000000002,0.039302462000000024
521,5.12,-0.04,10.29,0.49,1.19,0.07,-35.5,8.5,-22.75,0.94,-0.04,-0.3,-0.15,0.521,-1.736095999999998,0.3409680000000004,1.519732999999997,False,0.11919311400000013,-0.004707260000000001,0.04131370000000003
522,3.54,-0.11,9.54,0.18,0.8,0.04,-35.5,8.5,-22.75,0.94,-0.04,-0.29,-0.15,0.522,-2.364055999999998,0.5274400000000001,-0.012194000000002703,False,0.11745701800000012,-0.004366292000000001,0.042833433000000025
523,3.61,0.22,8.47,-0.26,0.4,-0.06,-35.5,8.5,-22.75,0.94,-0.04,-0.29,-0.15,0.523,-1.6383139999999994,0.6471580000000003,-0.8471240000000009,False,0.11509296200000012,-0.0038388520000000002,0.042821239000000025
524,4.09,0.78,8.07,-0.49,0.02,-0.09,-31.0,8.56,-26.19,0.94,-0.05,-0.29,-0.15,0.524,-0.8479789999999996,1.161206,-0.910877000000001,False,0.11345464800000012,-0.0031916939999999993,0.04197411500000002
525,4.59,1.55,8.08,-0.44,-0.33,-0.0,-31.0,8.56,-26.19,0.94,-0.05,-0.29,-0.15,0.525,-0.22406099999999984,1.762395,-0.6279720000000015,False,0.11260666900000012,-0.0020304879999999983,0.041063238000000016
526,4.59,1.55,8.08,-0.08,-0.65,0.14,-31.0,8.56,-26.19,0.94,-0.05,-0.3,-0.15,0.526,-0.40149599999999985,1.8003700000000002,-0.5847020000000018,False,0.11238260800000012,-0.0002680929999999968,0.04043526600000001
527,4.41,2.11,8.35,0.45,-0.96,0.23,-31.0,8.56,-26.19,0.94,-0.04,-0.31,-0.14,0.527,-0.7716849999999988,2.323791,-0.4400590000000033,True,0.0,0.0,0.0
528,3.97,1.96,8.5,1.0,-1.27,0.24,-31.0,8.56,-26.19,0.94,-0.04,-0.31,-0.14,0.528,-1.2392049999999997,2.3092119999999996,-0.5823340000000012,True,0.0,0.0,0.0
529,3.79,1.69,8.39,1.44,-1.59,0.23,-31.75,9.25,-26.87,0.94,-0.04,-0.32,-0.14,0.529,-1.5728560000000011,2.11268,-0.7578640000000014,False,-0.0012392050000000008,0.0023092120000000015,-0.0005823340000000017
530,3.85,1.4,8.03,1.78,-1.92,0.26,-31.75,9.25,-26.87,0.94,-0.03,-0.33,-0.13,0.53,-1.628302999999999,1.6417359999999994,-1.000949000000002,False,-0.0028120610000000033,0.004421892000000004,-0.0013401980000000038
531,3.95,1.04,7.87,2.04,-2.23,0.31,-31.75,9.25,-26.87,0.93,-0.02,-0.35,-0.12,0.531,-1.9617259999999996,1.139008,-1.2180499999999999,False,-0.004440364000000004,0.006063628000000005,-0.002341147000000007
532,4.02,0.72,7.85,2.25,-2.52,0.38,-31.75,9.25,-26.87,0.93,-0.02,-0.35,-0.12,0.532,-1.9737179999999994,0.8107080000000001,-1.202247999999999,False,-0.006402090000000005,0.007202636000000006,-0.003559197000000008
533,3.9,0.51,8.0,2.39,-2.78,0.47,-31.75,9.25,-26.87,0.92,-0.01,-0.36,-0.12,0.533,-2.4239699999999997,0.495725,-1.3338,False,-0.008375808000000005,0.008013344000000007,-0.004761445000000008
534,3.79,0.52,7.9,2.43,-3.03,0.57,-35.25,8.38,-24.25,0.92,0.0,-0.38,-0.11,0.534,-2.8037110000000003,0.4022680000000002,-1.4751700000000003,False,-0.010799778000000006,0.008509069000000008,-0.0060952450000000095
535,3.77,0.32,7.82,2.43,-3.26,0.66,-35.25,8.38,-24.25,0.91,0.01,-0.39,-0.1,0.535,-2.999335000000001,0.06252200000000002,-1.7470719999999993,False,-0.013603489000000009,0.008911337000000009,-0.007570415000000011
536,3.83,-0.02,7.71,2.36,-3.5,0.75,-35.25,8.38,-24.25,0.9,0.02,-0.43,-0.09,0.536,-3.63355,-0.3868700000000001,-1.982747999999999,False,-0.016602824000000013,0.00897385900000001,-0.009317487000000011
537,4.23,-0.74,7.28,2.14,-3.72,0.81,-35.25,8.38,-24.25,0.9,0.02,-0.43,-0.09,0.537,-3.156478000000001,-1.18656,-2.028339999999999,False,-0.020236374000000015,0.008586989000000008,-0.011300235000000013
538,4.23,-0.74,7.28,1.78,-3.94,0.89,-35.25,8.38,-24.25,0.89,0.03,-0.45,-0.08,0.538,-3.480877,-1.311756,-2.202542000000001,False,-0.02339285200000002,0.007400429000000007,-0.013328575000000013
539,4.78,-1.1,6.87,1.28,-4.13,0.96,-37.56,6.75,-21.06,0.88,0.03,-0.46,-0.07,0.539,-3.024902,-1.719352,-2.1951920000000005,False,-0.026873729000000023,0.006088673000000006,-0.015531117000000016
540,4.78,-1.1,6.87,1.28,-4.13,0.96,-37.56,6.75,-21.06,0.87,0.03,-0.48,-0.07,0.54,-3.3714279999999994,-1.6964679999999999,-2.3246249999999993,False,-0.029898631000000026,0.004369321000000005,-0.01772630900000002
541,5.77,0.0,6.43,0.22,-4.44,1.02,-37.56,6.75,-21.06,0.86,0.02,-0.5,-0.06,0.541,-2.7387040000000002,-0.546256,-1.6929440000000007,False,-0.033270059000000025,0.0026728530000000037,-0.02005093400000002
542,6.17,0.64,6.59,-0.15,-4.57,1.0,-37.56,6.75,-21.06,0.85,0.02,-0.52,-0.06,0.542,-3.0196950000000005,0.06237599999999996,-1.3084050000000005,False,-0.03600876300000003,0.002126597000000003,-0.021743878000000022
543,6.89,2.08,6.92,0.0,-4.86,0.93,-42.69,6.75,-12.88,0.81,0.01,-0.58,-0.05,0.543,-4.178402999999999,1.7102340000000003,-0.959778,False,-0.03902845800000003,0.002188973000000003,-0.023052283000000024
544,6.97,2.23,6.77,0.0,-4.86,0.93,-42.69,6.75,-12.88,0.81,0.01,-0.58,-0.05,0.544,-4.001518999999999,1.8450410000000004,-0.921875,False,-0.043206861000000034,0.003899207000000005,-0.024012061000000025
545,6.99,2.19,6.59,0.29,-4.92,0.94,-42.69,6.75,-12.88,0.8,0.0,-0.6,-0.05,0.545,-4.211474999999998,2.020725,-1.1065249999999995,False,-0.047208380000000036,0.0057442480000000065,-0.024933936000000025
546,6.97,1.84,6.4,0.56,-4.96,0.97,-42.69,6.75,-12.88,0.77,-0.0,-0.64,-0.04,0.546,-4.928047000000001,1.739984,-1.6628000000000007,False,-0.051419855000000035,0.007764973000000008,-0.026040461000000025
547,7.11,0.71,5.82,0.75,-5.01,0.99,-42.69,6.75,-12.88,0.77,-0.0,-0.64,-0.04,0.547,-4.400569000000001,0.5706469999999999,-1.689914,False,-0.05634790200000004,0.00950495700000001,-0.027703261000000028
548,7.28,0.13,5.35,0.82,-5.03,1.01,-43.75,8.88,-3.5,0.74,-0.0,-0.67,-0.02,0.548,-4.585588000000001,0.05738500000000002,-2.0574830000000004,False,-0.06074847100000005,0.01007560400000001,-0.02939317500000003
549,7.4,-0.3,4.92,0.84,-5.03,1.06,-43.75,8.88,-3.5,0.74,-0.0,-0.67,-0.02,0.549,-4.160132000000001,-0.3860140000000001,-1.9926280000000007,False,-0.06533405900000006,0.01013298900000001,-0.031450658000000034
550,7.64,-0.52,4.55,0.76,-5.01,1.17,-43.75,8.88,-3.5,0.72,-0.0,-0.69,-0.02,0.55,-4.2157399999999985,-0.611384,-2.0389630000000007,False,-0.06949419100000007,0.00974697500000001,-0.03344328600000004
551,8.68,-1.07,4.19,0.62,-4.96,1.2,-43.75,8.88,-3.5,0.69,-0.01,-0.72,-0.0,0.551,-4.544888000000001,-0.881194,-1.3484420000000021,False,-0.07370993100000006,0.009135591000000009,-0.03548224900000004
552,9.35,-1.23,3.76,0.45,-4.91,1.18,-43.75,8.88,-3.5,0.69,-0.01,-0.72,-0.0,0.552,-4.148218,-1.036584,-0.6622900000000023,False,-0.07825481900000007,0.008254397000000009,-0.03683069100000005
553,9.94,-1.26,3.34,0.26,-4.81,1.15,-43.19,10.75,5.56,0.67,-0.01,-0.74,0.0,0.553,-4.310675999999999,-1.0635960000000002,-0.26660400000000095,False,-0.08240303700000008,0.007217813000000008,-0.03749298100000005
554,10.33,-1.1,2.84,0.06,-4.68,1.09,-43.19,10.75,5.56,0.66,-0.02,-0.76,0.0,0.554,-4.345255999999999,-0.7250719999999999,0.1776800000000005,False,-0.08671371300000008,0.006154217000000007,-0.037759585000000054
555,10.33,-1.1,2.84,0.06,-4.68,1.09,-43.19,10.75,5.56,0.64,-0.02,-0.77,0.01,0.555,-4.710429999999999,-0.6228440000000001,-0.10920799999999886,False,-0.09105896900000009,0.005429145000000007,-0.037581905000000054
556,9.73,-0.42,1.05,-0.13,-4.29,0.94,-43.19,10.75,5.56,0.62,-0.02,-0.78,0.01,0.556,-3.2004770000000002,0.017121999999999967,-0.6215829999999976,False,-0.09576939900000009,0.004806301000000006,-0.037691113000000054
557,9.05,-0.36,0.32,-0.05,-3.97,0.87,-43.19,10.75,5.56,0.61,-0.03,-0.79,0.01,0.557,-2.594640000000001,0.18776400000000004,-1.1550719999999988,False,-0.0989698760000001,0.0048234230000000055,-0.03831269600000005
558,7.69,-1.32,-1.74,0.08,-3.56,0.83,-39.88,13.75,14.75,0.59,-0.03,-0.8,0.02,0.558,-0.6284260000000013,-0.7578880000000002,-1.9621240000000002,False,-0.1015645160000001,0.0050111870000000055,-0.03946776800000005
559,6.89,-1.94,-3.16,0.18,-3.04,0.74,-39.88,13.75,14.75,0.58,-0.03,-0.81,0.02,0.559,0.7243639999999991,-1.4358100000000003,-2.202224000000001,False,-0.1021929420000001,0.004253299000000005,-0.04142989200000005
560,6.22,-2.39,-4.62,0.19,-2.42,0.56,-39.88,13.75,14.75,0.56,-0.03,-0.82,0.02,0.56,1.9558740000000014,-1.911777,-2.286354000000001,False,-0.1014685780000001,0.002817489000000003,-0.043632116000000054
561,6.37,-2.62,-5.97,0.12,-1.68,0.34,-39.88,13.75,14.75,0.56,-0.03,-0.82,0.02,0.561,3.1374250000000004,-2.128598,-1.6484470000000009,False,-0.09951270400000009,0.0009057120000000012,-0.04591847000000006
562,6.37,-2.62,-5.97,0.0,-0.87,0.09,-39.88,13.75,14.75,0.56,-0.03,-0.83,0.02,0.562,3.0976120000000003,-2.1656180000000003,-1.477549999999999,False,-0.09637527900000009,-0.0012228860000000007,-0.04756691700000006
563,6.58,-1.13,-3.93,-0.13,-0.04,-0.18,-34.75,15.19,22.56,0.56,-0.03,-0.83,0.02,0.563,1.1608980000000009,-0.657852,-2.1487499999999997,False,-0.09327766700000044,-0.0033885039999997624,-0.0490444669999999
564,6.58,-1.13,-3.93,-0.17,0.71,-0.4,-34.75,15.19,22.56,0.56,-0.03,-0.82,0.02,0.564,1.2261300000000013,-0.6447269999999998,-2.2877430000000007,False,-0.09211676900000043,-0.004046355999999763,-0.0511932169999999
565,5.26,0.46,1.71,-0.09,1.36,-0.53,-34.75,15.19,22.56,0.58,-0.03,-0.82,0.02,0.565,-3.381373999999999,0.847694,-5.419511000000001,False,-0.09089063900000043,-0.004691082999999764,-0.053480959999999904
566,5.05,0.7,3.18,0.04,1.88,-0.62,-34.75,15.19,22.56,0.58,-0.03,-0.82,0.02,0.566,-4.704706999999999,1.0772299999999997,-6.129890000000001,False,-0.09427201300000043,-0.003843388999999763,-0.05890047099999991
567,5.05,0.7,3.18,0.21,2.32,-0.69,-34.75,15.19,22.56,0.59,-0.03,-0.81,0.02,0.567,-4.578635,1.07618,-6.017760000000001,False,-0.09897672000000043,-0.002766158999999762,-0.06503036099999993
568,4.88,0.62,5.29,0.39,2.75,-0.75,-34.25,15.38,23.38,0.6,-0.02,-0.8,0.02,0.568,-6.444072000000001,0.850464,-6.645024000000001,False,-0.10355535500000043,-0.0016899789999997613,-0.07104812099999994
569,4.88,0.62,5.29,0.39,2.75,-0.75,-34.25,15.38,23.38,0.61,-0.02,-0.79,0.01,0.569,-6.316886,0.8765720000000001,-6.468199000000001,False,-0.10999942700000044,-0.0008395149999997606,-0.07769314499999995
570,11.04,0.06,1.47,0.56,3.32,-0.77,-34.25,15.38,23.38,0.62,-0.01,-0.78,0.01,0.57,-3.894846,0.363972,0.5347199999999983,False,-0.11631631300000045,3.705700000024032e-05,-0.08416134399999996
571,21.87,-0.54,-8.56,1.17,1.08,-0.42,-34.25,15.38,23.38,0.63,-0.01,-0.78,0.02,0.571,3.7893099999999995,0.50892,13.506611999999999,False,-0.12021115900000046,0.00040102900000024065,-0.08362662399999995
572,32.15,-6.57,-7.17,1.94,-0.31,0.32,-34.25,15.38,23.38,0.63,-0.0,-0.78,0.03,0.572,0.4663619999999984,-5.048082000000001,23.604498,False,-0.11642184900000045,0.0009099490000002411,-0.07012001199999994
573,25.69,4.69,-1.63,0.85,0.43,1.2,-38.69,14.25,18.19,0.63,-0.01,-0.78,0.03,0.573,-3.955163000000001,6.137759000000002,15.487573,False,-0.11595548700000045,-0.004138132999999764,-0.046515513999999925
574,9.91,1.95,-1.26,1.59,2.01,-0.58,-38.69,14.25,18.19,0.65,0.01,-0.76,0.04,0.574,-0.4390739999999995,2.404556,0.08933400000000091,False,-0.11991065000000045,0.0019996260000002437,-0.031027940999999913
575,4.1,-1.73,-2.72,2.39,3.27,-1.42,-38.69,14.25,18.19,0.65,0.01,-0.76,0.04,0.575,2.1593800000000005,-1.375616,-5.255434000000001,False,-0.12034972400000045,0.004404182000000246,-0.030938606999999913
576,4.1,-1.73,-2.72,1.6,3.0,-1.05,-38.69,14.25,18.19,0.66,0.02,-0.75,0.04,0.576,2.3064820000000004,-1.3947649999999998,-5.344408000000001,False,-0.11819034400000045,0.0030285660000002445,-0.03619404099999992
577,3.52,-3.17,4.19,0.83,2.14,-0.8,-38.69,14.25,18.19,0.67,0.03,-0.74,0.05,0.577,-4.142151999999999,-3.547073,-6.608711,False,-0.11588386200000045,0.0016338010000002433,-0.04153844899999993
578,3.52,-3.17,4.19,0.26,1.73,-0.64,-40.38,15.38,14.38,0.67,0.03,-0.74,0.04,0.578,-4.183976,-3.535082,-6.66151,False,-0.12002601400000046,-0.00191327199999976,-0.04814715999999993
579,10.33,1.08,6.22,-0.32,1.62,-0.85,-40.38,15.38,14.38,0.68,0.03,-0.73,0.04,0.579,-7.001839999999999,0.5646980000000001,0.017252000000000933,False,-0.12420999000000046,-0.005448353999999763,-0.054808669999999934
580,9.35,0.35,3.71,-0.71,1.44,-0.86,-40.38,15.38,14.38,0.68,0.03,-0.73,0.04,0.58,-4.374473999999998,0.07855799999999996,-0.7699980000000011,True,0.0,0.0,0.0
581,10.59,1.57,3.42,-1.24,1.29,-0.61,-40.38,15.38,14.38,0.69,0.03,-0.72,0.02,0.581,-3.9478260000000005,1.154036,0.5983379999999983,False,-0.004374474000000002,7.855800000000003e-05,-0.0007699980000000018
582,11.57,3.73,3.41,-1.34,1.29,-0.52,-40.38,15.38,14.38,0.69,0.03,-0.72,0.02,0.582,-4.131794000000001,3.2847619999999993,1.6008859999999991,False,-0.008322300000000006,0.0012325940000000011,-0.00017166000000000295
583,10.59,5.05,3.98,-0.75,1.35,-0.54,-42.75,14.19,9.5,0.7,0.03,-0.71,0.02,0.583,-4.451898,4.5788340000000005,0.7397399999999976,False,-0.012454094000000011,0.004517356000000004,0.0014292259999999976
584,7.78,3.91,4.5,0.1,1.38,-0.39,-42.75,14.19,9.5,0.7,0.03,-0.71,0.02,0.584,-4.849454,3.45146,-2.079868000000002,True,0.0,0.0,0.0
585,8.3,1.62,3.77,0.78,1.33,-0.29,-42.75,14.19,9.5,0.71,0.03,-0.71,0.02,0.585,-3.9072599999999995,1.245648,-1.4108609999999988,False,-0.004849454000000004,0.003451460000000003,-0.002079868000000004
586,9.39,-0.52,2.56,0.97,1.23,-0.24,-42.75,14.19,9.5,0.72,0.04,-0.7,0.02,0.586,-2.2543439999999992,-0.997872,-0.2756159999999994,True,0.0,0.0,0.0
587,10.17,-0.54,1.38,0.38,1.1,-0.28,-43.19,13.25,7.5,0.72,0.04,-0.69,0.02,0.587,-0.8812049999999987,-0.922014,0.3517019999999995,False,-0.0022543440000000014,-0.0009978720000000008,-0.0002756159999999997
588,10.17,-0.54,1.38,0.38,1.1,-0.28,-43.19,13.25,7.5,0.72,0.04,-0.69,0.02,0.588,-0.8812049999999987,-0.922014,0.3517019999999995,False,-0.003135549000000001,-0.0019198860000000017,7.608600000000017e-05
589,9.42,0.89,2.01,0.09,1.1,-0.4,-43.19,13.25,7.5,0.73,0.04,-0.69,0.02,0.589,-1.5504139999999988,0.47845,-0.1660520000000023,True,0.0,0.0,0.0
590,9.42,0.89,2.01,0.09,1.1,-0.4,-43.19,13.25,7.5,0.73,0.04,-0.68,0.02,0.59,-1.3913020000000007,0.47459700000000005,-0.27569100000000013,True,0.0,0.0,0.0
591,9.43,0.13,1.18,-0.1,1.05,-0.36,-43.19,13.25,7.5,0.73,0.04,-0.68,0.02,0.591,-0.504353000000001,-0.209515,-0.346978,True,0.0,0.0,0.0
592,9.46,-0.02,1.13,-0.42,1.01,-0.32,-43.19,13.25,7.5,0.73,0.04,-0.68,0.02,0.592,-0.4401020000000009,-0.354986,-0.325291,True,0.0,0.0,0.0
593,9.45,0.29,1.24,-0.74,0.96,-0.33,-43.5,12.69,3.5,0.74,0.04,-0.67,0.02,0.593,-0.30767300000000064,-0.045034999999999964,-0.293963999999999,True,0.0,0.0,0.0
594,9.5,0.78,1.44,-0.88,0.93,-0.36,-43.5,12.69,3.5,0.74,0.04,-0.67,0.01,0.594,-0.5282040000000006,0.30280000000000007,-0.20650799999999947,True,0.0,0.0,0.0
595,9.57,1.33,2.08,-0.87,0.91,-0.35,-43.5,12.69,3.5,0.75,0.04,-0.66,0.01,0.595,-0.9189219999999996,0.81121,-0.004967999999999861,True,0.0,0.0,0.0
596,9.51,1.12,2.14,-0.74,0.9,-0.29,-43.5,12.69,3.5,0.75,0.04,-0.66,0.01,0.596,-0.9717399999999998,0.599842,-0.06672000000000189,True,0.0,0.0,0.0
597,9.51,1.12,2.14,-0.57,0.9,-0.25,-43.5,12.69,3.5,0.75,0.04,-0.66,0.0,0.597,-0.9557010000000004,0.48555199999999993,-0.0597580000000022,True,0.0,0.0,0.0
598,9.03,0.13,1.86,-0.44,0.89,-0.25,-44.38,11.88,0.75,0.75,0.03,-0.66,0.0,0.598,-0.6925140000000005,-0.311652,-0.6300900000000009,False,-0.0009557010000000012,0.00048555200000000037,-5.975800000000225e-05
599,9.03,0.13,1.86,-0.36,0.89,-0.27,-44.38,11.88,0.75,0.75,0.03,-0.66,-0.0,0.599,-0.6925140000000005,-0.311652,-0.6300900000000009,False,-0.0016482150000000024,0.0001739000000000001,-0.0006898480000000036
600,9.53,0.72,1.78,-0.4,0.86,-0.28,-44.38,11.88,0.75,0.76,0.03,-0.65,-0.01,0.6,-0.2911170000000005,0.14479800000000004,-0.08323200000000064,True,0.0,0.0,0.0
601,9.51,1.61,2.06,-0.39,0.86,-0.27,-44.38,11.88,0.75,0.76,0.03,-0.65,-0.01,0.601,-0.5922250000000004,1.0259530000000003,-0.00762200000000135,True,0.0,0.0,0.0
602,9.42,1.75,2.15,-0.32,0.86,-0.25,-43.69,11.38,-0.5,0.77,0.03,-0.64,-0.01,0.602,-0.426358,1.1740190000000001,-0.035675000000001234,True,0.0,0.0,0.0
603,9.36,1.63,2.12,-0.2,0.84,-0.21,-43.69,11.38,-0.5,0.77,0.03,-0.64,-0.01,0.603,-0.4050580000000006,1.058069,-0.10732999999999926,True,0.0,0.0,0.0
604,9.39,1.46,2.06,-0.12,0.82,-0.18,-43.69,11.38,-0.5,0.77,0.03,-0.64,-0.01,0.604,-0.3364530000000001,0.8882040000000001,-0.0987600000000004,True,0.0,0.0,0.0
605,9.4,1.14,2.26,-0.11,0.81,-0.16,-43.69,11.38,-0.5,0.78,0.03,-0.63,-0.01,0.605,-0.2521719999999996,0.5656499999999998,-0.03342199999999984,True,0.0,0.0,0.0
606,9.32,1.04,2.38,-0.13,0.8,-0.15,-43.69,11.38,-0.5,0.78,0.03,-0.63,-0.01,0.606,-0.38494399999999973,0.465388,-0.09265399999999957,True,0.0,0.0,0.0
607,9.25,1.0,2.47,-0.15,0.78,-0.14,-45.25,12.06,-1.69,0.78,0.03,-0.62,-0.02,0.607,-0.3213229999999996,0.30446,-0.2508549999999996,True,0.0,0.0,0.0
608,9.19,0.98,2.67,-0.18,0.77,-0.14,-45.25,12.06,-1.69,0.78,0.03,-0.62,-0.02,0.608,-0.5283529999999996,0.284334,-0.26554699999999976,True,0.0,0.0,0.0
609,9.19,0.98,2.67,-0.18,0.75,-0.13,-45.25,12.06,-1.69,0.78,0.03,-0.62,-0.02,0.609,-0.5283529999999996,0.284334,-0.26554699999999976,True,0.0,0.0,0.0
610,9.31,0.54,2.5,-0.16,0.74,-0.12,-45.25,12.06,-1.69,0.79,0.03,-0.62,-0.02,0.61,-0.218761999999999,-0.15313999999999994,-0.06410799999999917,True,0.0,0.0,0.0
611,9.33,0.12,2.36,-0.15,0.74,-0.11,-45.25,12.06,-1.69,0.79,0.03,-0.62,-0.02,0.611,-0.07429399999999875,-0.574376,-0.108352,True,0.0,0.0,0.0
612,9.43,-0.92,1.95,-0.19,0.74,-0.11,-44.19,10.69,-3.56,0.79,0.03,-0.61,-0.02,0.612,0.5039250000000011,-1.6032840000000002,-0.30831300000000006,True,0.0,0.0,0.0
613,9.55,-1.52,1.59,-0.29,0.76,-0.13,-44.19,10.69,-3.56,0.79,0.03,-0.61,-0.02,0.613,0.8846250000000013,-2.2001280000000007,-0.32642099999999985,True,0.0,0.0,0.0
614,9.65,-1.8,1.25,-0.46,0.78,-0.17,-44.19,10.69,-3.56,0.8,0.03,-0.6,-0.02,0.614,1.5125250000000017,-2.4838600000000004,-0.33780499999999947,True,0.0,0.0,0.0
615,9.62,-1.46,1.04,-0.71,0.82,-0.24,-44.19,10.69,-3.56,0.8,0.03,-0.6,-0.02,0.615,1.7046020000000013,-2.1372220000000004,-0.4007840000000016,True,0.0,0.0,0.0
616,9.62,0.09,1.53,-0.95,0.9,-0.3,-44.19,10.69,-3.56,0.8,0.02,-0.6,-0.03,0.616,1.2203140000000006,-0.596637,-0.15105900000000183,True,0.0,0.0,0.0
617,9.8,0.75,1.76,-1.08,0.99,-0.3,-44.19,11.19,-4.75,0.8,0.02,-0.6,-0.03,0.617,1.065388000000001,0.05046499999999993,0.13092000000000148,True,0.0,0.0,0.0
618,9.93,1.15,2.01,-1.07,1.07,-0.27,-44.19,11.19,-4.75,0.81,0.02,-0.59,-0.04,0.618,1.1695300000000013,0.3044659999999998,0.37823799999999785,False,0.0010653880000000017,5.046499999999997e-05,0.0001309200000000016
619,10.24,1.11,2.32,-1.05,1.14,-0.24,-44.19,11.19,-4.75,0.81,0.01,-0.58,-0.04,0.619,1.135692000000002,0.3875160000000001,0.6179819999999996,False,0.002234918000000004,0.00035493100000000006,0.0005091579999999998
620,10.32,0.95,2.43,-1.04,1.18,-0.21,-44.19,11.19,-4.75,0.81,0.01,-0.58,-0.04,0.62,1.0491920000000015,0.22619799999999995,0.7184019999999993,False,0.0033706100000000074,0.0007424470000000005,0.00112714
621,10.32,0.95,2.43,-1.06,1.21,-0.18,-44.19,11.19,-4.75,0.82,0.01,-0.58,-0.05,0.621,1.1957859999999991,0.09102599999999987,0.8890559999999983,False,0.00441980200000001,0.0009686450000000006,0.001845542
622,10.31,0.7,2.21,-1.08,1.24,-0.16,-44.56,10.38,-7.19,0.82,0.0,-0.57,-0.05,0.622,1.5484419999999992,-0.023090000000000194,0.6411879999999979,False,0.00561558800000001,0.0010596710000000005,0.002734597999999999
623,10.31,0.7,2.21,-1.1,1.27,-0.16,-44.56,10.38,-7.19,0.82,0.0,-0.57,-0.05,0.623,1.5484419999999992,-0.023090000000000194,0.6411879999999979,False,0.0071640300000000105,0.0010365810000000004,0.003375785999999998
624,10.38,1.13,1.35,-1.09,1.3,-0.17,-44.56,10.38,-7.19,0.83,-0.01,-0.56,-0.06,0.624,2.7311479999999992,0.3241819999999998,0.4202620000000028,False,0.008712472000000011,0.0010134910000000003,0.004016973999999996
625,10.49,0.71,1.19,-1.05,1.35,-0.15,-44.56,10.38,-7.19,0.83,-0.01,-0.56,-0.06,0.625,2.874053999999999,-0.11844600000000002,0.44079000000000157,False,0.011443620000000012,0.0013376730000000004,0.004437235999999999
626,10.48,0.01,0.99,-0.93,1.41,-0.09,-44.56,10.38,-7.19,0.84,-0.01,-0.54,-0.07,0.626,3.392957999999999,-1.017866,0.12732800000000033,False,0.014317674000000013,0.0012192270000000002,0.004878026000000001
627,10.04,-0.66,0.37,-0.8,1.48,-0.08,-44.69,11.06,-9.0,0.84,-0.01,-0.54,-0.07,0.627,3.688477999999998,-1.6929359999999998,-0.5715080000000015,True,0.0,0.0,0.0
628,9.79,-0.85,0.19,-0.7,1.57,-0.15,-44.69,11.06,-9.0,0.85,-0.01,-0.53,-0.07,0.628,3.9951879999999984,-1.892548,-0.9393080000000005,True,0.0,0.0,0.0
629,9.59,-1.03,0.07,-0.65,1.68,-0.18,-44.69,11.06,-9.0,0.85,-0.01,-0.53,-0.07,0.629,3.992451999999999,-2.061524,-1.1836520000000004,True,0.0,0.0,0.0
630,9.63,-1.25,-0.2,-0.65,1.81,-0.19,-44.69,11.06,-9.0,0.85,-0.02,-0.52,-0.08,0.63,4.276102999999999,-2.365441,-1.4193840000000009,True,0.0,0.0,0.0
631,9.96,-1.2,-0.34,-0.71,1.95,-0.19,-44.69,11.06,-9.0,0.85,-0.02,-0.51,-0.08,0.631,4.651755999999999,-2.36164,-1.359183999999999,False,0.004276103000000003,-0.0023654410000000024,-0.001419384000000002
632,10.48,-0.76,-0.67,-0.81,2.09,-0.22,-44.69,11.38,-13.0,0.86,-0.02,-0.5,-0.08,0.632,5.522407999999999,-2.056024,-1.1303719999999995,False,0.008927859000000007,-0.0047270810000000045,-0.002778568000000002
633,11.33,1.23,-0.79,-1.15,2.25,-0.27,-44.69,11.38,-13.0,0.87,-0.03,-0.48,-0.09,0.633,6.767253000000002,-0.3541589999999999,-0.6655590000000018,False,0.01445026700000001,-0.006783105000000006,-0.003908940000000003
634,14.47,2.77,-0.13,-1.45,2.41,-0.25,-44.69,11.38,-13.0,0.87,-0.03,-0.48,-0.09,0.634,8.135703000000003,0.8426069999999998,2.3788349999999987,False,0.021217520000000017,-0.007137264000000007,-0.004574499000000005
635,14.47,2.77,-0.13,-1.1,2.67,0.07,-44.69,11.38,-13.0,0.88,-0.03,-0.47,-0.09,0.635,8.528677,0.830195,2.2529169999999983,False,0.029353223000000025,-0.0062946570000000064,-0.0021956640000000043
636,17.31,-1.33,-0.61,-0.52,2.94,0.24,-44.69,11.38,-13.0,0.88,-0.03,-0.46,-0.09,0.636,9.860618,-3.646273999999999,3.9100499999999982,False,0.03788190000000003,-0.005464462000000006,5.725299999999583e-05
637,17.31,-1.33,-0.61,-0.52,2.94,0.24,-42.5,11.38,-16.0,0.89,-0.03,-0.45,-0.09,0.637,10.317683999999998,-3.698524,3.748027999999998,False,0.04774251800000004,-0.009110736000000008,0.0039673029999999975
638,16.32,-4.31,-4.72,0.01,2.98,-0.48,-42.5,11.38,-16.0,0.9,-0.03,-0.43,-0.1,0.638,12.791082000000001,-7.4183840000000005,-0.2117439999999977,False,0.05806020200000005,-0.012809260000000012,0.007715330999999999
639,15.97,-3.47,-5.61,-0.34,2.84,-0.84,-42.5,11.38,-16.0,0.9,-0.03,-0.42,-0.1,0.639,13.468721000000002,-6.631321000000001,-1.3505070000000021,False,0.07085128400000006,-0.020227644000000017,0.007503587000000001
640,15.91,-1.99,-5.28,-0.82,2.69,-0.93,-42.5,11.38,-16.0,0.91,-0.03,-0.4,-0.11,0.64,13.814113,-5.496719,-1.775684,False,0.08432000500000007,-0.026858965000000023,0.006153079999999997
641,15.24,-0.37,-2.43,-1.34,2.66,-0.94,-42.5,11.38,-16.0,0.91,-0.03,-0.4,-0.11,0.641,11.681204000000001,-3.3925930000000006,-0.2777529999999988,False,0.09813411800000009,-0.03235568400000003,0.004377395999999996
642,11.79,2.73,1.7,-1.87,2.7,-0.93,-40.25,12.25,-20.56,0.92,-0.04,-0.37,-0.13,0.642,7.778762,0.4513799999999998,-0.3668940000000003,False,0.1098153220000001,-0.03574827700000004,0.004099642999999997
643,9.78,5.75,12.04,-2.84,2.64,-0.68,-40.25,12.25,-20.56,0.93,-0.06,-0.34,-0.15,0.643,1.5847860000000003,5.729948,5.744839999999998,False,0.11759408400000011,-0.035296897000000035,0.003732748999999996
644,10.14,5.87,12.61,-2.56,2.44,-0.42,-40.25,12.25,-20.56,0.93,-0.06,-0.34,-0.15,0.644,1.5358980000000022,5.880476000000001,6.415706000000002,False,0.11917887000000012,-0.02956694900000003,0.009477589
645,10.14,5.87,12.61,-2.18,2.18,-0.31,-40.25,12.25,-20.56,0.93,-0.07,-0.33,-0.15,0.645,1.9210920000000025,6.084988000000001,6.198824,False,0.12071476800000012,-0.023686473000000024,0.01589329500000001
646,9.08,4.68,12.69,-1.49,1.94,-0.32,-36.56,12.25,-25.0,0.93,-0.07,-0.32,-0.16,0.646,1.0691440000000005,5.040494000000001,5.606512,False,0.12263586000000012,-0.017601485000000017,0.022092119000000014
647,9.08,4.68,12.69,-0.49,1.7,-0.15,-36.56,12.25,-25.0,0.93,-0.07,-0.32,-0.16,0.647,1.0691440000000005,5.040494000000001,5.606512,False,0.12370500400000013,-0.012560991000000011,0.02769863100000002
648,6.59,2.4,9.73,0.32,1.38,0.01,-36.56,12.25,-25.0,0.93,-0.07,-0.31,-0.16,0.648,0.3560130000000008,2.790084,1.7448449999999998,False,0.12477414800000014,-0.007520497000000005,0.03330514300000002
649,6.43,1.41,8.91,0.87,0.99,0.03,-36.56,12.25,-25.0,0.94,-0.07,-0.31,-0.16,0.649,0.422682,1.7397179999999999,1.236813999999999,False,0.12513016100000013,-0.004730413000000003,0.035049988000000025
650,6.48,1.12,8.02,1.07,0.51,0.08,-36.56,12.25,-25.0,0.94,-0.06,-0.3,-0.15,0.65,0.9972960000000013,1.0935759999999997,0.45207399999999787,False,0.12555284300000014,-0.0029906950000000015,0.03628680200000003
651,6.17,1.13,7.52,1.07,0.04,0.12,-34.38,14.0,-29.0,0.94,-0.06,-0.3,-0.15,0.651,1.0333190000000005,1.0779109999999998,-0.13482400000000183,True,0.0,0.0,0.0
652,4.77,1.49,7.97,1.06,-0.4,0.1,-34.38,14.0,-29.0,0.94,-0.05,-0.31,-0.15,0.652,-0.39802100000000085,1.7156230000000001,-0.5242090000000008,False,0.0010333190000000015,0.0010779110000000008,-0.00013482400000000195
653,4.28,1.68,8.34,1.14,-0.78,0.1,-34.38,14.0,-29.0,0.94,-0.05,-0.31,-0.15,0.653,-0.9247119999999995,2.089196,-0.5185460000000006,True,0.0,0.0,0.0
654,3.93,1.67,8.55,1.31,-1.14,0.11,-34.38,14.0,-29.0,0.94,-0.04,-0.32,-0.15,0.654,-1.539409000000001,2.062481,-0.5058610000000012,True,0.0,0.0,0.0
655,3.89,0.99,8.46,1.53,-1.53,0.1,-34.38,14.0,-29.0,0.93,-0.04,-0.33,-0.14,0.655,-1.943244,1.4439420000000003,-0.8128899999999994,False,-0.0015394090000000022,0.002062481000000002,-0.0005058610000000017
656,3.99,0.62,8.48,1.7,-1.93,0.13,-33.5,12.19,-29.75,0.93,-0.03,-0.34,-0.14,0.656,-2.2023300000000003,0.9180800000000002,-0.7161400000000011,False,-0.003482653000000004,0.0035064230000000033,-0.0013187510000000017
657,4.08,0.43,8.73,1.76,-2.31,0.21,-33.5,12.19,-29.75,0.92,-0.02,-0.36,-0.13,0.657,-2.771084,0.6334490000000002,-0.6600589999999986,False,-0.005684983000000006,0.004424503000000004,-0.0020348910000000035
658,4.07,0.38,8.99,1.69,-2.66,0.32,-33.5,12.19,-29.75,0.92,-0.02,-0.36,-0.13,0.658,-2.961639,0.621666,-0.47891699999999915,False,-0.008456067000000008,0.0050579520000000044,-0.002694950000000003
659,4.07,0.38,8.99,1.54,-3.01,0.43,-33.5,12.19,-29.75,0.92,-0.02,-0.37,-0.13,0.659,-3.1566140000000007,0.6494419999999999,-0.4686679999999992,False,-0.01141770600000001,0.005679618000000005,-0.0031738670000000025
660,3.86,0.58,8.14,1.4,-3.36,0.53,-33.5,12.19,-29.75,0.91,-0.01,-0.39,-0.12,0.66,-3.0728780000000016,0.6572420000000002,-1.3981340000000007,False,-0.014574320000000014,0.006329060000000005,-0.0036425350000000023
661,3.86,0.58,8.14,1.4,-3.36,0.53,-36.69,9.56,-27.0,0.91,-0.01,-0.41,-0.12,0.661,-3.430702,0.7071379999999999,-1.3850859999999994,False,-0.017647198000000017,0.006986302000000006,-0.0050406690000000046
662,3.81,0.9,8.13,1.3,-3.99,0.73,-36.69,9.56,-27.0,0.9,-0.01,-0.43,-0.11,0.662,-3.752883000000001,1.078254,-1.6041149999999984,False,-0.02107790000000002,0.007693440000000006,-0.006425755000000005
663,4.2,1.19,8.42,1.31,-4.25,0.82,-36.69,9.56,-27.0,0.89,-0.01,-0.44,-0.1,0.663,-3.8832919999999995,1.34116,-1.3058940000000003,False,-0.024830783000000026,0.008771694000000007,-0.008029870000000005
664,4.41,1.16,8.42,1.35,-4.48,0.91,-36.69,9.56,-27.0,0.87,-0.0,-0.48,-0.09,0.664,-4.564584,1.1727539999999999,-1.5252120000000016,False,-0.02871407500000003,0.010112854000000008,-0.009335764000000007
665,4.67,0.98,8.28,1.38,-4.68,0.98,-36.69,9.56,-27.0,0.87,-0.0,-0.48,-0.09,0.665,-4.341059999999999,0.943686,-1.3984560000000013,False,-0.03327865900000004,0.01128560800000001,-0.01086097600000001
666,5.36,0.44,7.31,1.39,-4.86,1.03,-42.19,9.56,-20.37,0.85,-0.0,-0.53,-0.07,0.666,-4.193238000000001,0.343902,-1.6840770000000003,False,-0.03761971900000004,0.01222929400000001,-0.012259432000000013
667,5.92,0.23,6.84,1.32,-5.01,1.07,-42.19,9.56,-20.37,0.85,-0.0,-0.53,-0.07,0.667,-3.550206000000001,0.03270300000000015,-1.4049540000000018,False,-0.04181295700000004,0.01257319600000001,-0.013943509000000014
668,5.92,0.23,6.84,1.18,-5.13,1.1,-42.19,9.56,-20.37,0.83,-0.0,-0.55,-0.07,0.668,-3.9597140000000013,0.06567099999999998,-1.7108380000000007,False,-0.04536316300000005,0.01260589900000001,-0.015348463000000017
669,7.07,-0.11,6.47,0.99,-5.19,1.12,-42.19,9.56,-20.37,0.81,-0.0,-0.59,-0.05,0.669,-4.033050999999999,-0.3011270000000002,-1.0500489999999996,False,-0.04932287700000005,0.01267157000000001,-0.01705930100000002
670,7.56,-0.26,6.14,0.82,-5.23,1.08,-42.19,9.56,-20.37,0.81,-0.0,-0.59,-0.05,0.67,-3.5800919999999983,-0.510542,-0.6930220000000009,False,-0.05335592800000005,0.01237044300000001,-0.01810935000000002
671,7.5,-0.35,5.92,0.69,-5.23,1.0,-46.88,9.56,-10.19,0.78,-0.01,-0.63,-0.04,0.671,-4.26469,-0.33404000000000006,-1.1842199999999998,False,-0.05693602000000005,0.01185990100000001,-0.018802372000000022
672,7.41,-0.39,5.67,0.57,-5.2,0.89,-46.88,9.56,-10.19,0.78,-0.01,-0.63,-0.04,0.672,-4.04109,-0.38620200000000005,-1.3273860000000006,False,-0.061200710000000054,0.011525861000000009,-0.019986592000000022
673,7.28,-0.29,5.45,0.55,-5.13,0.74,-46.88,9.56,-10.19,0.74,-0.01,-0.67,-0.03,0.673,-4.705000000000001,-0.2146249999999999,-2.051875000000001,False,-0.06524180000000006,0.011139659000000008,-0.021313978000000025
674,7.85,-0.09,5.11,0.55,-5.13,0.74,-46.88,9.56,-10.19,0.74,-0.01,-0.67,-0.03,0.674,-4.300697000000001,-0.05189499999999991,-1.5150710000000007,False,-0.06994680000000006,0.010925034000000009,-0.023365853000000027
675,8.35,-0.31,5.0,0.6,-5.09,0.75,-46.88,9.56,-10.19,0.73,-0.01,-0.69,-0.03,0.675,-4.584256,-0.28298000000000006,-1.1135080000000013,False,-0.07424749700000007,0.010873139000000009,-0.02488092400000003
676,8.78,-0.6,4.55,0.66,-5.03,0.76,-47.0,12.75,1.0,0.71,-0.01,-0.7,-0.02,0.676,-4.4251559999999985,-0.5305820000000001,-1.0219280000000008,False,-0.07883175300000007,0.010590159000000009,-0.025994432000000033
677,9.0,-1.17,4.91,0.65,-4.93,0.75,-47.0,12.75,1.0,0.69,-0.01,-0.72,-0.02,0.677,-5.309152,-1.072614,-1.0877700000000008,False,-0.08325690900000007,0.010059577000000009,-0.027016360000000034
