Timestamp,AccelX,AccelY,AccelZ,GyroX,GyroY,GyroZ,QuatW,QuatX,QuatY,QuatZ,Tilt,Obliquity,Rotation
2.059202194213867,0.23,-0.0,9.8,-0.0,0.0,-0.0,0.01,-0.0,0.83,0.55,-1.8609115353683976e-14,1.2385485795834728e-13,1.1796689743450771e-14
2.120020627975464,0.23,-0.0,9.8,0.0,-0.0,0.0,0.01,-0.0,0.83,0.55,-1.8609115353683976e-14,1.2385485795834728e-13,1.1796689743450771e-14
2.120340585708618,0.23,-0.0,9.8,0.0,-0.0,0.0,0.01,-0.0,0.83,0.55,-1.8609115353683976e-14,1.2385485795834728e-13,1.1796689743450771e-14
2.120540142059326,0.23,0.07,9.76,0.0,-0.0,0.0,0.01,-0.0,0.83,0.55,-1.8609115353683976e-14,1.2385485795834728e-13,1.1796689743450771e-14
2.1207222938537598,0.23,0.07,9.76,0.0,-0.0,0.0,0.01,-0.0,0.83,0.55,-1.8609115353683976e-14,1.2385485795834728e-13,1.1796689743450771e-14
2.12109112739563,0.23,0.07,9.76,0.0,0.0,0.0,0.01,-0.0,0.83,0.55,-1.8609115353683976e-14,1.2385485795834728e-13,1.1796689743450771e-14
2.1212997436523438,0.23,0.07,9.76,0.0,0.0,0.0,0.01,-0.0,0.83,0.55,-1.8609115353683976e-14,1.2385485795834728e-13,1.1796689743450771e-14
2.1215059757232666,0.23,0.07,9.76,-0.0,-0.0,0.0,0.01,-0.0,0.83,0.55,-1.8609115353683976e-14,1.2385485795834728e-13,1.1796689743450771e-14
2.121718645095825,0.23,0.07,9.76,-0.0,-0.0,0.0,0.01,-0.0,0.83,0.55,-1.8609115353683976e-14,1.2385485795834728e-13,1.1796689743450771e-14
2.1218957901000977,0.23,0.04,9.84,-0.0,-0.0,0.0,0.01,-0.0,0.83,0.55,-1.8609115353683976e-14,1.2385485795834728e-13,1.1796689743450771e-14
2.122074842453003,0.23,0.04,9.84,-0.0,-0.0,0.0,0.01,-0.0,0.83,0.55,-1.8609115353683976e-14,1.2385485795834728e-13,1.1796689743450771e-14
2.1222422122955322,0.23,0.04,9.84,-0.0,-0.0,0.0,0.01,-0.0,0.83,0.55,-1.8609115353683976e-14,1.2385485795834728e-13,1.1796689743450771e-14
2.122384786605835,0.23,0.04,9.84,-0.0,-0.0,0.0,0.01,-0.0,0.83,0.55,-1.8609115353683976e-14,1.2385485795834728e-13,1.1796689743450771e-14
2.12251877784729,0.23,0.04,9.84,-0.0,-0.0,-0.0,0.01,-0.0,0.83,0.55,-1.8609115353683976e-14,1.2385485795834728e-13,1.1796689743450771e-14
2.122661590576172,0.23,0.04,9.84,-0.0,-0.0,-0.0,0.01,-0.0,0.83,0.55,-1.8609115353683976e-14,1.2385485795834728e-13,1.1796689743450771e-14
2.122802495956421,0.23,0.04,9.84,0.0,-0.01,-0.01,0.01,-0.0,0.83,0.55,-1.8609115353683976e-14,1.2385485795834728e-13,1.1796689743450771e-14
2.1867737770080566,0.23,0.04,9.84,0.0,-0.01,-0.01,0.01,-0.0,0.83,0.55,-1.8609115353683976e-14,1.2385485795834728e-13,1.1796689743450771e-14
2.18709659576416,0.23,0.04,9.84,0.0,0.0,-0.01,0.01,-0.0,0.83,0.55,-1.8609115353683976e-14,1.2385485795834728e-13,1.1796689743450771e-14
2.187366485595703,0.23,0.04,9.84,0.0,0.0,-0.01,0.01,-0.0,0.83,0.55,-1.8609115353683976e-14,1.2385485795834728e-13,1.1796689743450771e-14
2.1875922679901123,0.23,0.07,9.8,0.0,0.0,-0.01,0.01,-0.0,0.83,0.55,-1.8609115353683976e-14,1.2385485795834728e-13,1.1796689743450771e-14
2.1878509521484375,0.23,0.07,9.8,0.0,0.0,-0.01,0.01,-0.0,0.83,0.55,-1.8609115353683976e-14,1.2385485795834728e-13,1.1796689743450771e-14
2.1880459785461426,0.23,0.07,9.8,0.0,0.0,-0.0,0.01,-0.0,0.83,0.55,-1.8609115353683976e-14,1.2385485795834728e-13,1.1796689743450771e-14
2.188283920288086,0.23,0.07,9.8,0.0,0.0,-0.0,0.01,-0.0,0.83,0.55,-1.8609115353683976e-14,1.2385485795834728e-13,1.1796689743450771e-14
2.188445568084717,0.23,0.07,9.8,-0.0,0.0,-0.0,0.01,-0.0,0.83,0.55,-1.8609115353683976e-14,1.2385485795834728e-13,1.1796689743450771e-14
2.255647897720337,0.23,0.07,9.8,-0.0,0.0,-0.0,0.01,-0.0,0.83,0.55,-1.8609115353683976e-14,1.2385485795834728e-13,1.1796689743450771e-14
2.255974292755127,0.23,-0.0,9.8,-0.0,0.0,-0.0,0.01,-0.0,0.83,0.55,-1.8609115353683976e-14,1.2385485795834728e-13,1.1796689743450771e-14
2.2562034130096436,0.23,-0.0,9.8,0.01,0.0,0.0,0.01,-0.0,0.83,0.55,-1.8609115353683976e-14,1.2385485795834728e-13,1.1796689743450771e-14
2.2563765048980713,0.23,-0.0,9.8,0.01,0.0,0.0,0.01,-0.0,0.83,0.55,-1.8609115353683976e-14,1.2385485795834728e-13,1.1796689743450771e-14
2.2565603256225586,0.23,-0.0,9.8,0.01,0.0,0.0,0.01,-0.0,0.83,0.55,-1.8609115353683976e-14,1.2385485795834728e-13,1.1796689743450771e-14
2.256749153137207,0.23,-0.0,9.8,0.01,0.0,0.0,0.01,-0.0,0.83,0.55,-1.8609115353683976e-14,1.2385485795834728e-13,1.1796689743450771e-14
2.256927967071533,0.23,-0.0,9.8,0.01,0.0,0.0,0.01,-0.0,0.83,0.55,-1.8609115353683976e-14,1.2385485795834728e-13,1.1796689743450771e-14
2.2570641040802,0.23,-0.0,9.8,0.0,0.0,-0.01,0.01,-0.0,0.83,0.55,-1.8609115353683976e-14,1.2385485795834728e-13,1.1796689743450771e-14
2.2572240829467773,0.23,-0.0,9.8,0.0,0.0,-0.01,0.01,-0.0,0.83,0.55,-1.8609115353683976e-14,1.2385485795834728e-13,1.1796689743450771e-14
2.25736665725708,0.23,0.07,9.84,0.0,0.0,-0.01,0.01,-0.0,0.83,0.55,-1.8609115353683976e-14,1.2385485795834728e-13,1.1796689743450771e-14
2.2574849128723145,0.23,0.07,9.84,-0.0,0.0,0.0,0.01,-0.0,0.83,0.55,-1.8609115353683976e-14,1.2385485795834728e-13,1.1796689743450771e-14
2.2576308250427246,0.23,0.07,9.84,-0.0,0.0,0.0,0.01,-0.0,0.83,0.55,-1.8609115353683976e-14,1.2385485795834728e-13,1.1796689743450771e-14
2.2577528953552246,0.23,0.07,9.84,-0.0,0.0,0.0,0.01,-0.0,0.83,0.55,-1.8609115353683976e-14,1.2385485795834728e-13,1.1796689743450771e-14
2.257901668548584,0.23,0.07,9.84,-0.0,-0.0,0.0,0.01,-0.0,0.83,0.55,-1.8609115353683976e-14,1.2385485795834728e-13,1.1796689743450771e-14
2.258009672164917,0.23,0.07,9.84,-0.0,-0.0,0.0,0.01,-0.0,0.83,0.55,-1.8609115353683976e-14,1.2385485795834728e-13,1.1796689743450771e-14
2.2581093311309814,0.23,0.07,9.84,0.01,0.0,0.01,0.01,-0.0,0.83,0.55,-1.8609115353683976e-14,1.2385485795834728e-13,1.1796689743450771e-14
2.2582695484161377,0.23,0.07,9.84,0.01,0.0,0.01,0.01,-0.0,0.83,0.55,-1.8609115353683976e-14,1.2385485795834728e-13,1.1796689743450771e-14
2.2583839893341064,0.23,0.07,9.84,0.0,0.0,-0.0,0.01,-0.0,0.83,0.55,-1.8609115353683976e-14,1.2385485795834728e-13,1.1796689743450771e-14
2.258513927459717,0.23,0.07,9.84,0.0,0.0,-0.0,0.01,-0.0,0.83,0.55,-1.8609115353683976e-14,1.2385485795834728e-13,1.1796689743450771e-14
2.2586448192596436,0.27,0.04,9.84,0.0,0.0,-0.0,0.01,-0.0,0.83,0.55,-1.8609115353683976e-14,1.2385485795834728e-13,1.1796689743450771e-14
2.258772850036621,0.27,0.04,9.84,0.0,0.0,-0.0,0.01,-0.0,0.83,0.55,-1.8609115353683976e-14,1.2385485795834728e-13,1.1796689743450771e-14
2.321986198425293,0.27,0.04,9.84,-0.0,-0.0,0.01,0.01,-0.0,0.83,0.55,-1.8609115353683976e-14,1.2385485795834728e-13,1.1796689743450771e-14
2.322303056716919,0.27,0.04,9.84,-0.0,-0.0,0.01,0.01,-0.0,0.83,0.55,-1.8609115353683976e-14,1.2385485795834728e-13,1.1796689743450771e-14
2.3225834369659424,0.27,0.04,9.84,-0.0,0.0,0.0,0.01,-0.0,0.83,0.55,-1.8609115353683976e-14,1.2385485795834728e-13,1.1796689743450771e-14
2.3228843212127686,0.27,0.04,9.84,-0.0,0.0,0.0,0.01,-0.0,0.83,0.55,-1.8609115353683976e-14,1.2385485795834728e-13,1.1796689743450771e-14
2.323457717895508,0.27,0.04,9.84,0.0,0.0,0.0,0.01,-0.0,0.83,0.55,-1.8609115353683976e-14,1.2385485795834728e-13,1.1796689743450771e-14
2.3237252235412598,0.27,0.04,9.84,0.0,0.0,0.0,0.01,-0.0,0.83,0.55,-1.8609115353683976e-14,1.2385485795834728e-13,1.1796689743450771e-14
2.323914051055908,0.27,0.04,9.84,0.0,0.0,0.0,0.01,-0.0,0.83,0.55,-1.8609115353683976e-14,1.2385485795834728e-13,1.1796689743450771e-14
2.324141263961792,0.27,0.04,9.84,0.0,-0.0,0.0,0.01,-0.0,0.83,0.55,-1.8609115353683976e-14,1.2385485795834728e-13,1.1796689743450771e-14
2.324479341506958,0.27,0.04,9.84,0.0,-0.0,0.0,0.01,-0.0,0.83,0.55,-1.8609115353683976e-14,1.2385485795834728e-13,1.1796689743450771e-14
2.3247077465057373,0.27,0.04,9.84,0.0,-0.0,0.0,0.01,-0.0,0.83,0.55,-1.8609115353683976e-14,1.2385485795834728e-13,1.1796689743450771e-14
2.324948310852051,0.27,0.04,9.84,-0.0,-0.0,0.0,0.01,-0.0,0.83,0.55,-1.8609115353683976e-14,1.2385485795834728e-13,1.1796689743450771e-14
2.3251442909240723,0.27,0.04,9.84,-0.0,-0.0,0.0,0.01,-0.0,0.83,0.55,-1.8609115353683976e-14,1.2385485795834728e-13,1.1796689743450771e-14
2.325305700302124,0.27,0.04,9.84,-0.0,0.0,0.0,0.01,-0.0,0.83,0.55,-1.8609115353683976e-14,1.2385485795834728e-13,1.1796689743450771e-14
2.3255014419555664,0.27,0.04,9.84,-0.0,0.0,0.0,0.01,-0.0,0.83,0.55,-1.8609115353683976e-14,1.2385485795834728e-13,1.1796689743450771e-14
2.3257296085357666,0.3,-0.0,9.88,-0.0,0.0,0.0,0.01,-0.0,0.83,0.55,-1.8609115353683976e-14,1.2385485795834728e-13,1.1796689743450771e-14
2.393033027648926,0.3,-0.0,9.88,0.0,0.0,0.0,0.01,-0.0,0.83,0.55,-1.8609115353683976e-14,1.2385485795834728e-13,1.1796689743450771e-14
2.3934240341186523,0.3,-0.0,9.88,0.0,0.0,0.0,0.01,-0.0,0.83,0.55,-1.8609115353683976e-14,1.2385485795834728e-13,1.1796689743450771e-14
2.3936898708343506,0.3,-0.0,9.88,0.0,0.0,0.0,0.01,-0.0,0.83,0.55,-1.8609115353683976e-14,1.2385485795834728e-13,1.1796689743450771e-14
2.3940327167510986,0.3,-0.0,9.88,0.0,0.0,0.0,0.01,-0.0,0.83,0.55,-1.8609115353683976e-14,1.2385485795834728e-13,1.1796689743450771e-14
2.3941946029663086,0.3,-0.0,9.88,0.0,0.0,0.0,0.01,-0.0,0.83,0.55,-1.8609115353683976e-14,1.2385485795834728e-13,1.1796689743450771e-14
2.3943729400634766,0.3,-0.0,9.88,-0.0,0.0,-0.01,0.01,-0.0,0.83,0.55,-1.8609115353683976e-14,1.2385485795834728e-13,1.1796689743450771e-14
2.3945837020874023,0.3,-0.0,9.88,-0.0,0.0,-0.01,0.01,-0.0,0.83,0.55,-1.8609115353683976e-14,1.2385485795834728e-13,1.1796689743450771e-14
2.3947362899780273,0.27,0.04,9.8,-0.0,0.0,-0.01,0.01,-0.0,0.83,0.55,-1.8609115353683976e-14,1.2385485795834728e-13,1.1796689743450771e-14
2.39487624168396,0.27,0.04,9.8,-0.0,0.0,-0.01,0.01,-0.0,0.83,0.55,-1.8609115353683976e-14,1.2385485795834728e-13,1.1796689743450771e-14
2.3950090408325195,0.27,0.04,9.8,0.0,-0.0,0.01,0.01,-0.0,0.83,0.55,-1.8609115353683976e-14,1.2385485795834728e-13,1.1796689743450771e-14
2.39516019821167,0.27,0.04,9.8,0.0,-0.0,0.01,0.01,-0.0,0.83,0.55,-1.8609115353683976e-14,1.2385485795834728e-13,1.1796689743450771e-14
2.3953540325164795,0.27,0.04,9.8,0.0,-0.0,-0.0,0.01,-0.0,0.83,0.55,-1.8609115353683976e-14,1.2385485795834728e-13,1.1796689743450771e-14
2.3955166339874268,0.27,0.04,9.8,0.0,-0.0,-0.0,0.01,-0.0,0.83,0.55,-1.8609115353683976e-14,1.2385485795834728e-13,1.1796689743450771e-14
2.395663261413574,0.19,-0.0,9.84,0.0,-0.0,-0.0,0.01,-0.0,0.83,0.55,-1.8609115353683976e-14,1.2385485795834728e-13,1.1796689743450771e-14
2.3958027362823486,0.19,-0.0,9.84,-0.0,-0.0,0.0,0.01,-0.0,0.83,0.55,-1.8609115353683976e-14,1.2385485795834728e-13,1.1796689743450771e-14
2.395953893661499,0.19,-0.0,9.84,-0.0,-0.0,0.0,0.01,-0.0,0.83,0.55,-1.8609115353683976e-14,1.2385485795834728e-13,1.1796689743450771e-14
2.4570884704589844,0.19,-0.0,9.84,-0.0,-0.0,0.0,0.01,-0.0,0.83,0.55,-1.8609115353683976e-14,1.2385485795834728e-13,1.1796689743450771e-14
2.4574670791625977,0.19,-0.0,9.84,0.0,0.0,0.0,0.01,-0.0,0.83,0.55,-1.8609115353683976e-14,1.2385485795834728e-13,1.1796689743450771e-14
2.4577720165252686,0.19,-0.0,9.84,0.0,0.0,0.0,0.01,-0.0,0.83,0.55,-1.8609115353683976e-14,1.2385485795834728e-13,1.1796689743450771e-14
2.4580070972442627,0.19,-0.0,9.84,0.01,0.0,0.0,0.01,-0.0,0.83,0.55,-1.8609115353683976e-14,1.2385485795834728e-13,1.1796689743450771e-14
2.458287239074707,0.19,-0.0,9.84,0.01,0.0,0.0,0.01,-0.0,0.83,0.55,-1.8609115353683976e-14,1.2385485795834728e-13,1.1796689743450771e-14
2.45881724357605,0.19,-0.0,9.84,-0.0,0.0,0.0,0.01,-0.0,0.83,0.55,-1.8609115353683976e-14,1.2385485795834728e-13,1.1796689743450771e-14
2.459103584289551,0.19,-0.0,9.84,-0.0,0.0,0.0,0.01,-0.0,0.83,0.55,-1.8609115353683976e-14,1.2385485795834728e-13,1.1796689743450771e-14
2.459351062774658,0.19,-0.0,9.84,0.0,0.0,0.0,0.01,-0.0,0.83,0.55,-1.8609115353683976e-14,1.2385485795834728e-13,1.1796689743450771e-14
2.4595930576324463,0.19,-0.0,9.84,0.0,0.0,0.0,0.01,-0.0,0.83,0.55,-1.8609115353683976e-14,1.2385485795834728e-13,1.1796689743450771e-14
2.4599947929382324,0.19,0.07,9.8,0.0,0.0,0.0,0.01,-0.0,0.83,0.55,-1.8609115353683976e-14,1.2385485795834728e-13,1.1796689743450771e-14
2.460268020629883,0.19,0.07,9.8,0.0,0.0,0.0,0.01,-0.0,0.83,0.55,-1.8609115353683976e-14,1.2385485795834728e-13,1.1796689743450771e-14
2.4605300426483154,0.19,0.07,9.8,0.01,-0.0,0.01,0.01,-0.0,0.83,0.55,-1.8609115353683976e-14,1.2385485795834728e-13,1.1796689743450771e-14
2.4607927799224854,0.19,0.07,9.8,0.01,-0.0,0.01,0.01,-0.0,0.83,0.55,-1.8609115353683976e-14,1.2385485795834728e-13,1.1796689743450771e-14
2.526785135269165,0.19,0.07,9.8,0.0,0.0,0.0,0.01,-0.0,0.83,0.55,-1.8609115353683976e-14,1.2385485795834728e-13,1.1796689743450771e-14
2.527120590209961,0.19,0.07,9.8,0.0,0.0,0.0,0.01,-0.0,0.83,0.55,-1.8609115353683976e-14,1.2385485795834728e-13,1.1796689743450771e-14
2.5273377895355225,0.19,0.07,9.8,0.0,-0.01,0.0,0.01,-0.0,0.83,0.55,-1.8609115353683976e-14,1.2385485795834728e-13,1.1796689743450771e-14
2.527498722076416,0.19,0.07,9.8,0.0,-0.01,0.0,0.01,-0.0,0.83,0.55,-1.8609115353683976e-14,1.2385485795834728e-13,1.1796689743450771e-14
2.527648687362671,0.19,0.07,9.8,0.0,0.0,-0.0,0.01,-0.0,0.83,0.55,-1.8609115353683976e-14,1.2385485795834728e-13,1.1796689743450771e-14
2.527839422225952,0.19,0.07,9.8,0.0,0.0,-0.0,0.01,-0.0,0.83,0.55,-1.8609115353683976e-14,1.2385485795834728e-13,1.1796689743450771e-14
2.5280051231384277,0.19,0.07,9.8,0.0,-0.0,0.0,0.01,-0.0,0.83,0.55,-1.8609115353683976e-14,1.2385485795834728e-13,1.1796689743450771e-14
2.5281474590301514,0.19,0.07,9.8,0.0,-0.0,0.0,0.01,-0.0,0.83,0.55,-1.8609115353683976e-14,1.2385485795834728e-13,1.1796689743450771e-14
2.5282936096191406,0.19,0.07,9.8,-0.0,0.0,0.0,0.01,-0.0,0.83,0.55,-1.8609115353683976e-14,1.2385485795834728e-13,1.1796689743450771e-14
2.5284583568573,0.19,0.07,9.8,-0.0,0.0,0.0,0.01,-0.0,0.83,0.55,-1.8609115353683976e-14,1.2385485795834728e-13,1.1796689743450771e-14
2.604626178741455,0.23,0.04,9.84,-0.0,0.0,0.0,0.01,-0.0,0.83,0.55,-1.8609115353683964e-14,1.238548579583472e-13,1.1796689743450767e-14
2.6070985794067383,0.23,0.04,9.84,0.0,0.0,-0.01,0.01,-0.0,0.83,0.55,-1.8609115353683964e-14,1.238548579583472e-13,1.1796689743450767e-14
2.608531951904297,0.23,0.04,9.84,0.0,0.0,-0.01,0.01,-0.0,0.83,0.55,-1.8609115353683964e-14,1.238548579583472e-13,1.1796689743450767e-14
2.6092867851257324,0.23,0.04,9.84,0.0,0.0,-0.01,0.01,-0.0,0.83,0.55,-1.8609115353683964e-14,1.238548579583472e-13,1.1796689743450767e-14
2.6097891330718994,0.23,0.04,9.84,0.0,0.01,-0.0,0.01,-0.0,0.83,0.55,-1.8609115353683964e-14,1.238548579583472e-13,1.1796689743450767e-14
2.6102359294891357,0.23,0.04,9.84,0.0,0.01,-0.0,0.01,-0.0,0.83,0.55,-1.8609115353683964e-14,1.238548579583472e-13,1.1796689743450767e-14
2.6106910705566406,0.3,0.11,9.8,0.0,0.01,-0.0,0.01,-0.0,0.83,0.55,-1.8609115353683964e-14,1.238548579583472e-13,1.1796689743450767e-14
2.611117362976074,0.3,0.11,9.8,0.01,0.0,-0.0,0.01,-0.0,0.83,0.55,-1.8609115353683964e-14,1.238548579583472e-13,1.1796689743450767e-14
2.6115331649780273,0.3,0.11,9.8,0.01,0.0,-0.0,0.01,-0.0,0.83,0.55,-1.8609115353683964e-14,1.238548579583472e-13,1.1796689743450767e-14
2.61201548576355,0.3,0.11,9.8,0.01,0.0,-0.0,0.01,-0.0,0.83,0.55,-1.8609115353683964e-14,1.238548579583472e-13,1.1796689743450767e-14
2.6124699115753174,0.3,0.11,9.8,0.0,0.0,0.0,0.01,-0.0,0.83,0.55,-1.8609115353683964e-14,1.238548579583472e-13,1.1796689743450767e-14
2.612921714782715,0.3,0.11,9.8,0.0,0.0,0.0,0.01,-0.0,0.83,0.55,-1.8609115353683964e-14,1.238548579583472e-13,1.1796689743450767e-14
2.6133275032043457,0.23,0.04,9.8,0.0,0.0,0.0,0.01,-0.0,0.83,0.55,-1.8609115353683964e-14,1.238548579583472e-13,1.1796689743450767e-14
2.613748073577881,0.23,0.04,9.8,0.0,-0.0,0.0,0.01,-0.0,0.83,0.55,-1.8609115353683964e-14,1.238548579583472e-13,1.1796689743450767e-14
2.6142098903656006,0.23,0.04,9.8,0.0,-0.0,0.0,0.01,-0.0,0.83,0.55,-1.8609115353683964e-14,1.238548579583472e-13,1.1796689743450767e-14
2.61464786529541,0.23,0.04,9.8,0.0,-0.0,0.0,0.01,-0.0,0.83,0.55,-1.8609115353683964e-14,1.238548579583472e-13,1.1796689743450767e-14
2.6150505542755127,0.23,0.04,9.8,-0.01,-0.0,0.0,0.01,-0.0,0.83,0.55,-1.8609115353683964e-14,1.238548579583472e-13,1.1796689743450767e-14
2.6154966354370117,0.23,0.04,9.8,-0.01,-0.0,0.0,0.01,-0.0,0.83,0.55,-1.8609115353683964e-14,1.238548579583472e-13,1.1796689743450767e-14
2.615910530090332,0.23,0.04,9.8,-0.0,-0.0,0.0,0.01,-0.0,0.83,0.55,-1.8609115353683964e-14,1.238548579583472e-13,1.1796689743450767e-14
2.6163840293884277,0.23,0.04,9.8,-0.0,-0.0,0.0,0.01,-0.0,0.83,0.55,-1.8609115353683964e-14,1.238548579583472e-13,1.1796689743450767e-14
2.6168694496154785,0.23,0.04,9.8,0.0,-0.0,0.0,0.01,-0.0,0.83,0.55,-1.8609115353683964e-14,1.238548579583472e-13,1.1796689743450767e-14
2.617846727371216,0.23,0.04,9.8,0.0,-0.0,0.0,0.01,-0.0,0.83,0.55,-1.8609115353683964e-14,1.238548579583472e-13,1.1796689743450767e-14
2.711831569671631,0.27,0.07,9.8,0.0,-0.0,0.0,0.01,-0.0,0.83,0.55,-1.8609115353683964e-14,1.238548579583472e-13,1.1796689743450767e-14
2.713123321533203,0.27,0.07,9.8,-0.0,0.0,0.0,0.01,-0.0,0.83,0.55,-1.8609115353683964e-14,1.238548579583472e-13,1.1796689743450767e-14
2.713881015777588,0.27,0.07,9.8,-0.0,0.0,0.0,0.01,-0.0,0.83,0.55,-1.8609115353683964e-14,1.238548579583472e-13,1.1796689743450767e-14
2.7145256996154785,0.27,0.07,9.8,-0.0,0.0,0.0,0.01,-0.0,0.83,0.55,-1.8609115353683964e-14,1.238548579583472e-13,1.1796689743450767e-14
2.7150561809539795,0.27,0.07,9.8,-0.0,0.0,-0.01,0.01,-0.0,0.83,0.55,-1.8609115353683964e-14,1.238548579583472e-13,1.1796689743450767e-14
2.715669870376587,0.27,0.07,9.8,-0.0,0.0,-0.01,0.01,-0.0,0.83,0.55,-1.8609115353683964e-14,1.238548579583472e-13,1.1796689743450767e-14
2.716265916824341,0.27,0.07,9.8,0.0,-0.0,-0.0,0.01,-0.0,0.83,0.55,-1.8609115353683964e-14,1.238548579583472e-13,1.1796689743450767e-14
2.7169296741485596,0.27,0.07,9.8,0.0,-0.0,-0.0,0.01,-0.0,0.83,0.55,-1.8609115353683964e-14,1.238548579583472e-13,1.1796689743450767e-14
2.717555522918701,0.27,0.07,9.8,-0.0,0.0,0.0,0.01,-0.0,0.83,0.55,-1.8609115353683964e-14,1.238548579583472e-13,1.1796689743450767e-14
2.7181594371795654,0.27,0.07,9.8,-0.0,0.0,0.0,0.01,-0.0,0.83,0.55,-1.8609115353683964e-14,1.238548579583472e-13,1.1796689743450767e-14
2.7186901569366455,0.23,0.04,9.84,-0.0,0.0,0.0,0.01,-0.0,0.83,0.55,-1.8609115353683964e-14,1.238548579583472e-13,1.1796689743450767e-14
2.7191553115844727,0.23,0.04,9.84,-0.0,0.0,0.0,0.01,-0.0,0.83,0.55,-1.8609115353683964e-14,1.238548579583472e-13,1.1796689743450767e-14
2.719606876373291,0.23,0.04,9.84,0.0,0.0,0.0,0.01,-0.0,0.83,0.55,-1.8609115353683964e-14,1.238548579583472e-13,1.1796689743450767e-14
2.7201087474823,0.23,0.04,9.84,0.0,0.0,0.0,0.01,-0.0,0.83,0.55,-1.8609115353683964e-14,1.238548579583472e-13,1.1796689743450767e-14
2.7205746173858643,0.23,0.04,9.84,-0.0,-0.01,0.0,0.01,-0.0,0.83,0.55,-1.8609115353683964e-14,1.238548579583472e-13,1.1796689743450767e-14
2.7210850715637207,0.23,0.04,9.84,-0.0,-0.01,0.0,0.01,-0.0,0.83,0.55,-1.8609115353683964e-14,1.238548579583472e-13,1.1796689743450767e-14
2.721766471862793,0.27,0.15,9.8,-0.0,-0.01,0.0,0.01,-0.0,0.83,0.55,-1.8609115353683964e-14,1.238548579583472e-13,1.1796689743450767e-14
2.722266674041748,0.27,0.15,9.8,-0.0,0.0,-0.0,0.01,-0.0,0.83,0.55,-1.8609115353683964e-14,1.238548579583472e-13,1.1796689743450767e-14
2.7227401733398438,0.27,0.15,9.8,-0.0,0.0,-0.0,0.01,-0.0,0.83,0.55,-1.8609115353683964e-14,1.238548579583472e-13,1.1796689743450767e-14
2.7233405113220215,0.27,0.15,9.8,-0.0,0.0,-0.0,0.01,-0.0,0.83,0.55,-1.8609115353683964e-14,1.238548579583472e-13,1.1796689743450767e-14
2.7240853309631348,0.27,0.15,9.8,-0.0,-0.0,0.0,0.01,-0.0,0.83,0.55,-1.8609115353683964e-14,1.238548579583472e-13,1.1796689743450767e-14
2.724637746810913,0.27,0.15,9.8,-0.0,-0.0,0.0,0.01,-0.0,0.83,0.55,-1.8609115353683964e-14,1.238548579583472e-13,1.1796689743450767e-14
2.7251880168914795,0.27,0.15,9.8,0.0,-0.0,0.0,0.01,-0.0,0.83,0.55,-1.8609115353683964e-14,1.238548579583472e-13,1.1796689743450767e-14
2.8038597106933594,0.27,0.15,9.8,0.0,-0.0,0.0,0.01,-0.0,0.83,0.55,-1.8609115353683964e-14,1.238548579583472e-13,1.1796689743450767e-14
2.8060624599456787,0.27,0.15,9.8,-0.0,-0.01,0.0,0.01,-0.0,0.83,0.55,-1.8609115353683964e-14,1.238548579583472e-13,1.1796689743450767e-14
2.8073790073394775,0.27,0.15,9.8,-0.0,-0.01,0.0,0.01,-0.0,0.83,0.55,-1.8609115353683964e-14,1.238548579583472e-13,1.1796689743450767e-14
2.8081507682800293,0.27,0.07,9.84,-0.0,-0.01,0.0,0.01,-0.0,0.83,0.55,-1.8609115353683964e-14,1.238548579583472e-13,1.1796689743450767e-14
2.8089122772216797,0.27,0.07,9.84,-0.0,-0.01,0.0,0.01,-0.0,0.83,0.55,-1.8609115353683964e-14,1.238548579583472e-13,1.1796689743450767e-14
2.809598922729492,0.27,0.07,9.84,0.0,0.0,0.0,0.01,-0.0,0.83,0.55,-1.8609115353683964e-14,1.238548579583472e-13,1.1796689743450767e-14
2.810110330581665,0.27,0.07,9.84,0.0,0.0,0.0,0.01,-0.0,0.83,0.55,-1.8609115353683964e-14,1.238548579583472e-13,1.1796689743450767e-14
2.8106329441070557,0.27,0.07,9.84,-0.0,-0.0,0.0,0.01,-0.0,0.83,0.55,-1.8609115353683964e-14,1.238548579583472e-13,1.1796689743450767e-14
2.8113203048706055,0.27,0.07,9.84,-0.0,-0.0,0.0,0.01,-0.0,0.83,0.55,-1.8609115353683964e-14,1.238548579583472e-13,1.1796689743450767e-14
2.811818838119507,0.27,0.07,9.84,-0.0,-0.01,0.0,0.01,-0.0,0.83,0.55,-1.8609115353683964e-14,1.238548579583472e-13,1.1796689743450767e-14
2.812453031539917,0.27,0.07,9.84,-0.0,-0.01,0.0,0.01,-0.0,0.83,0.55,-1.8609115353683964e-14,1.238548579583472e-13,1.1796689743450767e-14
2.812943935394287,0.27,0.07,9.84,-0.0,0.0,-0.01,0.01,-0.0,0.83,0.55,-1.8609115353683964e-14,1.238548579583472e-13,1.1796689743450767e-14
2.8136088848114014,0.27,0.07,9.84,-0.0,0.0,-0.01,0.01,-0.0,0.83,0.55,-1.8609115353683964e-14,1.238548579583472e-13,1.1796689743450767e-14
2.8142614364624023,0.23,-0.0,9.76,-0.0,0.0,-0.01,0.01,-0.0,0.83,0.55,-1.8609115353683964e-14,1.238548579583472e-13,1.1796689743450767e-14
2.8150110244750977,0.23,-0.0,9.76,-0.0,0.0,-0.01,0.01,-0.0,0.83,0.55,-1.8609115353683964e-14,1.238548579583472e-13,1.1796689743450767e-14
2.8156771659851074,0.23,-0.0,9.76,0.0,-0.0,0.0,0.01,-0.0,0.83,0.55,-1.8609115353683964e-14,1.238548579583472e-13,1.1796689743450767e-14
2.8163888454437256,0.23,-0.0,9.76,0.0,-0.0,0.0,0.01,-0.0,0.83,0.55,-1.8609115353683964e-14,1.238548579583472e-13,1.1796689743450767e-14
2.8170838356018066,0.23,-0.0,9.76,0.0,-0.0,0.0,0.01,-0.0,0.83,0.55,-1.8609115353683964e-14,1.238548579583472e-13,1.1796689743450767e-14
2.817763328552246,0.23,-0.0,9.76,0.0,-0.0,0.0,0.01,-0.0,0.83,0.55,-1.8609115353683964e-14,1.238548579583472e-13,1.1796689743450767e-14
2.8184123039245605,0.23,-0.0,9.76,0.0,0.0,0.0,0.01,-0.0,0.83,0.55,-1.8609115353683964e-14,1.238548579583472e-13,1.1796689743450767e-14
2.885383129119873,0.23,-0.0,9.76,0.0,0.0,0.0,0.01,-0.0,0.83,0.55,-1.8609115353683964e-14,1.238548579583472e-13,1.1796689743450767e-14
2.886110305786133,0.23,-0.0,9.76,-0.0,0.01,0.0,0.01,-0.0,0.83,0.55,-1.8609115353683964e-14,1.238548579583472e-13,1.1796689743450767e-14
2.8866333961486816,0.23,-0.0,9.76,-0.0,0.01,0.0,0.01,-0.0,0.83,0.55,-1.8609115353683964e-14,1.238548579583472e-13,1.1796689743450767e-14
2.8870272636413574,0.23,-0.0,9.76,0.0,-0.0,-0.0,0.01,-0.0,0.83,0.55,-1.8609115353683964e-14,1.238548579583472e-13,1.1796689743450767e-14
2.8874402046203613,0.23,-0.0,9.76,0.0,-0.0,-0.0,0.01,-0.0,0.83,0.55,-1.8609115353683964e-14,1.238548579583472e-13,1.1796689743450767e-14
2.8879079818725586,0.19,0.04,9.8,0.0,-0.0,-0.0,0.01,-0.0,0.83,0.55,-1.8609115353683964e-14,1.238548579583472e-13,1.1796689743450767e-14
2.888312578201294,0.19,0.04,9.8,0.0,-0.0,-0.0,0.01,-0.0,0.83,0.55,-1.8609115353683964e-14,1.238548579583472e-13,1.1796689743450767e-14
2.888718843460083,0.19,0.04,9.8,0.0,-0.0,0.0,0.01,-0.0,0.83,0.55,-1.8609115353683964e-14,1.238548579583472e-13,1.1796689743450767e-14
2.889153242111206,0.19,0.04,9.8,0.0,-0.0,0.0,0.01,-0.0,0.83,0.55,-1.8609115353683964e-14,1.238548579583472e-13,1.1796689743450767e-14
2.8896005153656006,0.19,0.04,9.8,0.0,-0.01,-0.01,0.01,-0.0,0.83,0.55,-1.8609115353683964e-14,1.238548579583472e-13,1.1796689743450767e-14
2.8900082111358643,0.19,0.04,9.8,0.0,-0.01,-0.01,0.01,-0.0,0.83,0.55,-1.8609115353683964e-14,1.238548579583472e-13,1.1796689743450767e-14
2.890453338623047,0.19,0.04,9.8,0.0,-0.01,0.0,0.01,-0.0,0.83,0.55,-1.8609115353683964e-14,1.238548579583472e-13,1.1796689743450767e-14
2.8909101486206055,0.19,0.04,9.8,0.0,-0.01,0.0,0.01,-0.0,0.83,0.55,-1.8609115353683964e-14,1.238548579583472e-13,1.1796689743450767e-14
2.8913626670837402,0.19,0.04,9.8,0.0,-0.0,0.0,0.01,-0.0,0.83,0.55,-1.8609115353683964e-14,1.238548579583472e-13,1.1796689743450767e-14
2.8917996883392334,0.19,0.04,9.8,0.0,-0.0,0.0,0.01,-0.0,0.83,0.55,-1.8609115353683964e-14,1.238548579583472e-13,1.1796689743450767e-14
2.8923838138580322,0.27,-0.0,9.84,0.0,-0.0,0.0,0.01,-0.0,0.83,0.55,-1.8609115353683964e-14,1.238548579583472e-13,1.1796689743450767e-14
2.957246780395508,0.27,-0.0,9.84,0.0,-0.0,0.0,0.01,-0.0,0.83,0.55,-1.8609115353683964e-14,1.238548579583472e-13,1.1796689743450767e-14
2.9578912258148193,0.27,-0.0,9.84,-0.0,0.0,0.0,0.01,-0.0,0.83,0.55,-1.8609115353683964e-14,1.238548579583472e-13,1.1796689743450767e-14
2.9585113525390625,0.27,-0.0,9.84,-0.0,0.0,0.0,0.01,-0.0,0.83,0.55,-1.8609115353683964e-14,1.238548579583472e-13,1.1796689743450767e-14
2.959041118621826,0.27,-0.0,9.84,-0.0,-0.0,0.0,0.01,-0.0,0.83,0.55,-1.8609115353683964e-14,1.238548579583472e-13,1.1796689743450767e-14
2.9595441818237305,0.27,-0.0,9.84,-0.0,-0.0,0.0,0.01,-0.0,0.83,0.55,-1.8609115353683964e-14,1.238548579583472e-13,1.1796689743450767e-14
2.9600393772125244,0.27,-0.0,9.84,-0.0,0.0,0.0,0.01,-0.0,0.83,0.55,-1.8609115353683964e-14,1.238548579583472e-13,1.1796689743450767e-14
2.960458993911743,0.27,-0.0,9.84,-0.0,0.0,0.0,0.01,-0.0,0.83,0.55,-1.8609115353683964e-14,1.238548579583472e-13,1.1796689743450767e-14
2.960848093032837,0.27,0.04,9.84,-0.0,0.0,0.0,0.01,-0.0,0.83,0.55,-1.8609115353683964e-14,1.238548579583472e-13,1.1796689743450767e-14
2.96125864982605,0.27,0.04,9.84,-0.0,0.0,0.0,0.01,-0.0,0.83,0.55,-1.8609115353683964e-14,1.238548579583472e-13,1.1796689743450767e-14
2.9616458415985107,0.27,0.04,9.84,-0.0,0.0,0.0,0.01,-0.0,0.83,0.55,-1.8609115353683964e-14,1.238548579583472e-13,1.1796689743450767e-14
2.9620606899261475,0.27,0.04,9.84,-0.0,0.0,0.0,0.01,-0.0,0.83,0.55,-1.8609115353683964e-14,1.238548579583472e-13,1.1796689743450767e-14
2.9624381065368652,0.27,0.04,9.84,-0.0,0.0,0.0,0.01,-0.0,0.83,0.55,-1.8609115353683964e-14,1.238548579583472e-13,1.1796689743450767e-14
2.96281099319458,0.27,0.04,9.84,-0.0,0.0,0.0,0.01,-0.0,0.83,0.55,-1.8609115353683964e-14,1.238548579583472e-13,1.1796689743450767e-14
2.9632513523101807,0.27,0.04,9.84,-0.01,0.0,-0.0,0.01,-0.0,0.83,0.55,-1.8609115353683964e-14,1.238548579583472e-13,1.1796689743450767e-14
2.963637113571167,0.27,0.04,9.84,-0.01,0.0,-0.0,0.01,-0.0,0.83,0.55,-1.8609115353683964e-14,1.238548579583472e-13,1.1796689743450767e-14
2.9640631675720215,0.3,-0.0,9.84,-0.01,0.0,-0.0,0.01,-0.0,0.83,0.55,-1.8609115353683964e-14,1.238548579583472e-13,1.1796689743450767e-14
2.9644742012023926,0.3,-0.0,9.84,-0.0,0.0,-0.0,0.01,-0.0,0.83,0.55,-1.8609115353683964e-14,1.238548579583472e-13,1.1796689743450767e-14
3.0266947746276855,0.3,-0.0,9.84,-0.0,0.0,-0.0,0.01,-0.0,0.83,0.55,-1.8609115353683964e-14,1.238548579583472e-13,1.1796689743450767e-14
3.0273895263671875,0.3,-0.0,9.84,-0.0,0.0,-0.0,0.01,-0.0,0.83,0.55,-1.8609115353683964e-14,1.238548579583472e-13,1.1796689743450767e-14
3.0278680324554443,0.3,-0.0,9.84,-0.0,0.0,0.0,0.01,-0.0,0.83,0.55,-1.8609115353683964e-14,1.238548579583472e-13,1.1796689743450767e-14
3.028394937515259,0.3,-0.0,9.84,-0.0,0.0,0.0,0.01,-0.0,0.83,0.55,-1.8609115353683964e-14,1.238548579583472e-13,1.1796689743450767e-14
3.02898907661438,0.3,-0.0,9.84,0.0,0.0,-0.0,0.01,-0.0,0.83,0.55,-1.8609115353683964e-14,1.238548579583472e-13,1.1796689743450767e-14
3.0296268463134766,0.3,-0.0,9.84,0.0,0.0,-0.0,0.01,-0.0,0.83,0.55,-1.8609115353683964e-14,1.238548579583472e-13,1.1796689743450767e-14
3.0303702354431152,0.3,0.04,9.92,0.0,0.0,-0.0,0.01,-0.0,0.83,0.55,-1.8609115353683964e-14,1.238548579583472e-13,1.1796689743450767e-14
3.031033992767334,0.3,0.04,9.92,0.0,0.0,-0.0,0.01,-0.0,0.83,0.55,-1.8609115353683964e-14,1.238548579583472e-13,1.1796689743450767e-14
3.0314931869506836,0.3,0.04,9.92,0.0,0.0,0.0,0.01,-0.0,0.83,0.55,-1.8609115353683964e-14,1.238548579583472e-13,1.1796689743450767e-14
3.0321693420410156,0.3,0.04,9.92,0.0,0.0,0.0,0.01,-0.0,0.83,0.55,-1.8609115353683964e-14,1.238548579583472e-13,1.1796689743450767e-14
3.097261667251587,0.3,0.04,9.92,0.0,0.01,-0.0,0.01,-0.0,0.83,0.55,-1.8609115353683964e-14,1.238548579583472e-13,1.1796689743450767e-14
3.0980284214019775,0.3,0.04,9.92,0.0,0.01,-0.0,0.01,-0.0,0.83,0.55,-1.8609115353683964e-14,1.238548579583472e-13,1.1796689743450767e-14
3.098557710647583,0.3,0.04,9.92,0.0,0.0,0.0,0.01,-0.0,0.83,0.55,-1.8609115353683964e-14,1.238548579583472e-13,1.1796689743450767e-14
3.099137783050537,0.3,0.04,9.92,0.0,0.0,0.0,0.01,-0.0,0.83,0.55,-1.8609115353683964e-14,1.238548579583472e-13,1.1796689743450767e-14
3.0995500087738037,0.3,0.04,9.92,0.0,0.0,0.0,0.01,-0.0,0.83,0.55,-1.8609115353683964e-14,1.238548579583472e-13,1.1796689743450767e-14
3.100170373916626,0.3,0.04,9.92,0.0,0.0,0.0,0.01,-0.0,0.83,0.55,-1.8609115353683964e-14,1.238548579583472e-13,1.1796689743450767e-14
3.100715398788452,0.19,0.11,9.8,0.0,0.0,0.0,0.01,-0.0,0.83,0.55,-1.8609115353683964e-14,1.238548579583472e-13,1.1796689743450767e-14
3.1011927127838135,0.19,0.11,9.8,0.0,0.0,0.0,0.01,-0.0,0.83,0.55,-1.8609115353683964e-14,1.238548579583472e-13,1.1796689743450767e-14
3.101860523223877,0.19,0.11,9.8,0.0,0.0,0.0,0.01,-0.0,0.83,0.55,-1.8609115353683964e-14,1.238548579583472e-13,1.1796689743450767e-14
3.1022961139678955,0.19,0.11,9.8,0.0,0.0,0.0,0.01,-0.0,0.83,0.55,-1.8609115353683964e-14,1.238548579583472e-13,1.1796689743450767e-14
3.102756977081299,0.19,0.11,9.8,0.0,0.0,0.0,0.01,-0.0,0.83,0.55,-1.8609115353683964e-14,1.238548579583472e-13,1.1796689743450767e-14
3.1031646728515625,0.19,0.11,9.8,0.0,0.0,0.0,0.01,-0.0,0.83,0.55,-1.8609115353683964e-14,1.238548579583472e-13,1.1796689743450767e-14
3.103602170944214,0.19,0.11,9.8,0.0,0.0,0.0,0.01,-0.0,0.83,0.55,-1.8609115353683964e-14,1.238548579583472e-13,1.1796689743450767e-14
3.104377269744873,0.19,0.11,9.8,0.0,0.0,0.0,0.01,-0.0,0.83,0.55,-1.8609115353683964e-14,1.238548579583472e-13,1.1796689743450767e-14
3.1052162647247314,0.19,0.11,9.8,0.0,0.0,0.0,0.01,-0.0,0.83,0.55,-1.8609115353683964e-14,1.238548579583472e-13,1.1796689743450767e-14
3.1059730052948,0.19,0.11,9.8,0.0,0.0,0.0,0.01,-0.0,0.83,0.55,-1.8609115353683964e-14,1.238548579583472e-13,1.1796689743450767e-14
3.106480598449707,0.23,0.07,9.8,0.0,0.0,0.0,0.01,-0.0,0.83,0.55,-1.8609115353683964e-14,1.238548579583472e-13,1.1796689743450767e-14
3.106907367706299,0.23,0.07,9.8,0.0,0.0,0.0,0.01,-0.0,0.83,0.55,-1.8609115353683964e-14,1.238548579583472e-13,1.1796689743450767e-14
3.173461437225342,0.23,0.07,9.8,0.0,0.0,0.0,0.01,-0.0,0.83,0.55,-1.8609115353683964e-14,1.238548579583472e-13,1.1796689743450767e-14
3.1742160320281982,0.23,0.07,9.8,0.0,0.0,0.0,0.01,-0.0,0.83,0.55,-1.8609115353683964e-14,1.238548579583472e-13,1.1796689743450767e-14
3.1748228073120117,0.23,0.07,9.8,0.0,0.0,0.0,0.01,-0.0,0.83,0.55,-1.8609115353683964e-14,1.238548579583472e-13,1.1796689743450767e-14
3.175309419631958,0.23,0.07,9.8,0.0,0.0,0.0,0.01,-0.0,0.83,0.55,-1.8609115353683964e-14,1.238548579583472e-13,1.1796689743450767e-14
3.175858497619629,0.23,0.07,9.8,0.0,0.0,0.0,0.01,-0.0,0.83,0.55,-1.8609115353683964e-14,1.238548579583472e-13,1.1796689743450767e-14
3.176283836364746,0.23,0.07,9.8,0.0,0.0,0.0,0.01,-0.0,0.83,0.55,-1.8609115353683964e-14,1.238548579583472e-13,1.1796689743450767e-14
3.176715612411499,0.23,0.07,9.76,0.0,0.0,0.0,0.01,-0.0,0.83,0.55,-1.8609115353683964e-14,1.238548579583472e-13,1.1796689743450767e-14
3.1771256923675537,0.23,0.07,9.76,0.0,0.0,0.0,0.01,-0.0,0.83,0.55,-1.8609115353683964e-14,1.238548579583472e-13,1.1796689743450767e-14
3.1775753498077393,0.23,0.07,9.76,0.0,0.0,0.0,0.01,-0.0,0.83,0.55,-1.8609115353683964e-14,1.238548579583472e-13,1.1796689743450767e-14
3.178253412246704,0.23,0.07,9.76,0.0,0.0,0.0,0.01,-0.0,0.83,0.55,-1.8609115353683964e-14,1.238548579583472e-13,1.1796689743450767e-14
3.17887544631958,0.23,0.07,9.76,0.0,0.0,0.0,0.01,-0.0,0.83,0.55,-1.8609115353683964e-14,1.238548579583472e-13,1.1796689743450767e-14
3.179455041885376,0.23,0.07,9.76,0.0,0.0,0.0,0.01,-0.0,0.83,0.55,-1.8609115353683964e-14,1.238548579583472e-13,1.1796689743450767e-14
3.180104970932007,0.23,0.07,9.76,0.0,0.0,0.0,0.01,-0.0,0.83,0.55,-1.8609115353683964e-14,1.238548579583472e-13,1.1796689743450767e-14
3.1806678771972656,0.23,0.07,9.76,0.0,0.0,0.0,0.01,-0.0,0.83,0.55,-1.8609115353683964e-14,1.238548579583472e-13,1.1796689743450767e-14
3.243851900100708,0.3,0.11,9.8,0.0,0.0,0.0,0.01,-0.0,0.83,0.55,-1.8609115353683964e-14,1.238548579583472e-13,1.1796689743450767e-14
3.2446799278259277,0.3,0.11,9.8,0.0,0.0,0.0,0.01,-0.0,0.83,0.55,-1.8609115353683964e-14,1.238548579583472e-13,1.1796689743450767e-14
3.2456319332122803,0.3,0.11,9.8,0.0,0.0,0.0,0.01,-0.0,0.83,0.55,-1.8609115353683964e-14,1.238548579583472e-13,1.1796689743450767e-14
3.246105194091797,0.3,0.11,9.8,0.0,0.0,0.0,0.01,-0.0,0.83,0.55,-1.8609115353683964e-14,1.238548579583472e-13,1.1796689743450767e-14
3.246535301208496,0.3,0.11,9.8,0.0,0.0,0.0,0.01,-0.0,0.83,0.55,-1.8609115353683964e-14,1.238548579583472e-13,1.1796689743450767e-14
3.2469992637634277,0.3,0.11,9.8,0.0,0.0,0.0,0.01,-0.0,0.83,0.55,-1.8609115353683964e-14,1.238548579583472e-13,1.1796689743450767e-14
3.247406244277954,0.3,0.11,9.8,0.0,0.0,0.0,0.01,-0.0,0.83,0.55,-1.8609115353683964e-14,1.238548579583472e-13,1.1796689743450767e-14
3.247800827026367,0.3,0.11,9.8,0.0,0.0,0.0,0.01,-0.0,0.83,0.55,-1.8609115353683964e-14,1.238548579583472e-13,1.1796689743450767e-14
3.311218023300171,0.3,0.11,9.8,0.0,0.0,0.0,0.01,-0.0,0.83,0.55,-1.8609115353683964e-14,1.238548579583472e-13,1.1796689743450767e-14
3.311882257461548,0.3,0.11,9.8,0.0,0.0,0.0,0.01,-0.0,0.83,0.55,-1.8609115353683964e-14,1.238548579583472e-13,1.1796689743450767e-14
3.312408924102783,0.19,0.07,9.8,0.0,0.0,0.0,0.01,-0.0,0.83,0.55,-1.8609115353683964e-14,1.238548579583472e-13,1.1796689743450767e-14
3.312896966934204,0.19,0.07,9.8,0.0,0.0,0.0,0.01,-0.0,0.83,0.55,-1.8609115353683964e-14,1.238548579583472e-13,1.1796689743450767e-14
3.3133857250213623,0.19,0.07,9.8,0.0,0.0,0.0,0.01,-0.0,0.83,0.55,-1.8609115353683964e-14,1.238548579583472e-13,1.1796689743450767e-14
3.3138227462768555,0.19,0.07,9.8,0.0,0.0,0.0,0.01,-0.0,0.83,0.55,-1.8609115353683964e-14,1.238548579583472e-13,1.1796689743450767e-14
3.3142664432525635,0.19,0.07,9.8,0.0,0.0,0.0,0.01,-0.0,0.83,0.55,-1.8609115353683964e-14,1.238548579583472e-13,1.1796689743450767e-14
3.3146607875823975,0.19,0.07,9.8,0.0,0.0,0.0,0.01,-0.0,0.83,0.55,-1.8609115353683964e-14,1.238548579583472e-13,1.1796689743450767e-14
3.315114736557007,0.19,0.07,9.8,0.0,0.0,0.0,0.01,-0.0,0.83,0.55,-1.8609115353683964e-14,1.238548579583472e-13,1.1796689743450767e-14
3.31551456451416,0.19,0.07,9.8,0.0,0.0,0.0,0.01,-0.0,0.83,0.55,-1.8609115353683964e-14,1.238548579583472e-13,1.1796689743450767e-14
3.3159139156341553,0.19,0.07,9.8,0.0,0.0,0.0,0.01,-0.0,0.83,0.55,-1.8609115353683964e-14,1.238548579583472e-13,1.1796689743450767e-14
3.3163299560546875,0.19,0.07,9.8,0.0,0.0,0.0,0.01,-0.0,0.83,0.55,-1.8609115353683964e-14,1.238548579583472e-13,1.1796689743450767e-14
3.3167057037353516,0.19,0.07,9.8,0.0,0.0,0.0,0.01,-0.0,0.83,0.55,-1.8609115353683964e-14,1.238548579583472e-13,1.1796689743450767e-14
3.3172173500061035,0.19,0.07,9.8,0.0,0.0,0.0,0.01,-0.0,0.83,0.55,-1.8609115353683964e-14,1.238548579583472e-13,1.1796689743450767e-14
3.3178813457489014,0.19,0.07,9.8,0.0,0.0,0.0,0.01,-0.0,0.83,0.55,-1.8609115353683964e-14,1.238548579583472e-13,1.1796689743450767e-14
3.318364143371582,0.19,0.07,9.8,0.0,0.0,0.0,0.01,-0.0,0.83,0.55,-1.8609115353683964e-14,1.238548579583472e-13,1.1796689743450767e-14
3.318845510482788,0.19,0.07,9.8,0.0,0.0,0.0,0.01,-0.0,0.83,0.55,-1.8609115353683964e-14,1.238548579583472e-13,1.1796689743450767e-14
3.3193185329437256,0.19,0.07,9.8,0.0,0.0,0.0,0.01,-0.0,0.83,0.55,-1.8609115353683964e-14,1.238548579583472e-13,1.1796689743450767e-14
3.319777250289917,0.27,-0.0,9.84,0.0,0.0,0.0,0.01,-0.0,0.83,0.55,-1.8609115353683964e-14,1.238548579583472e-13,1.1796689743450767e-14
3.320167064666748,0.27,-0.0,9.84,0.0,0.0,0.0,0.01,-0.0,0.83,0.55,-1.8609115353683964e-14,1.238548579583472e-13,1.1796689743450767e-14
3.3205668926239014,0.27,-0.0,9.84,0.0,0.0,0.0,0.01,-0.0,0.83,0.55,-1.8609115353683964e-14,1.238548579583472e-13,1.1796689743450767e-14
3.3840725421905518,0.27,-0.0,9.84,0.0,0.0,0.0,0.01,-0.0,0.83,0.55,-1.8609115353683964e-14,1.238548579583472e-13,1.1796689743450767e-14
3.384765148162842,0.27,-0.0,9.84,0.0,0.0,0.0,0.01,-0.0,0.83,0.55,-1.8609115353683964e-14,1.238548579583472e-13,1.1796689743450767e-14
3.3853514194488525,0.27,-0.0,9.84,0.0,0.0,0.0,0.01,-0.0,0.83,0.55,-1.8609115353683964e-14,1.238548579583472e-13,1.1796689743450767e-14
3.3857839107513428,0.27,-0.0,9.84,0.0,0.0,0.0,0.01,-0.0,0.83,0.55,-1.8609115353683964e-14,1.238548579583472e-13,1.1796689743450767e-14
3.38623046875,0.27,-0.0,9.84,0.0,0.0,0.0,0.01,-0.0,0.83,0.55,-1.8609115353683964e-14,1.238548579583472e-13,1.1796689743450767e-14
3.3866400718688965,0.27,-0.0,9.84,0.0,0.0,0.0,0.01,-0.0,0.83,0.55,-1.8609115353683964e-14,1.238548579583472e-13,1.1796689743450767e-14
3.3870391845703125,0.27,-0.0,9.84,0.0,0.0,0.0,0.01,-0.0,0.83,0.55,-1.8609115353683964e-14,1.238548579583472e-13,1.1796689743450767e-14
3.3875253200531006,0.27,-0.0,9.84,0.0,0.0,0.0,0.01,-0.0,0.83,0.55,-1.8609115353683964e-14,1.238548579583472e-13,1.1796689743450767e-14
3.3879661560058594,0.27,-0.0,9.84,0.0,0.0,0.0,0.01,-0.0,0.83,0.55,-1.8609115353683964e-14,1.238548579583472e-13,1.1796689743450767e-14
3.388385772705078,0.3,0.04,9.84,0.0,0.0,0.0,0.01,-0.0,0.83,0.55,-1.8609115353683964e-14,1.238548579583472e-13,1.1796689743450767e-14
3.3887956142425537,0.3,0.04,9.84,0.0,0.0,0.0,0.01,-0.0,0.83,0.55,-1.8609115353683964e-14,1.238548579583472e-13,1.1796689743450767e-14
3.3892109394073486,0.3,0.04,9.84,0.0,0.0,0.0,0.01,-0.0,0.83,0.55,-1.8609115353683964e-14,1.238548579583472e-13,1.1796689743450767e-14
3.389678955078125,0.3,0.04,9.84,0.0,0.0,0.0,0.01,-0.0,0.83,0.55,-1.8609115353683964e-14,1.238548579583472e-13,1.1796689743450767e-14
3.3900952339172363,0.3,0.04,9.84,0.0,0.0,0.0,0.01,-0.0,0.83,0.55,-1.8609115353683964e-14,1.238548579583472e-13,1.1796689743450767e-14
3.3905296325683594,0.3,0.04,9.84,0.0,0.0,0.0,0.01,-0.0,0.83,0.55,-1.8609115353683964e-14,1.238548579583472e-13,1.1796689743450767e-14
3.4602739810943604,0.3,0.04,9.84,0.0,0.0,0.0,0.01,-0.0,0.83,0.55,-1.8609115353683964e-14,1.238548579583472e-13,1.1796689743450767e-14
3.460911989212036,0.3,0.04,9.84,0.0,0.0,0.0,0.01,-0.0,0.83,0.55,-1.8609115353683964e-14,1.238548579583472e-13,1.1796689743450767e-14
3.461548089981079,0.3,0.04,9.88,0.0,0.0,0.0,0.01,-0.0,0.83,0.55,-1.8609115353683964e-14,1.238548579583472e-13,1.1796689743450767e-14
3.462002754211426,0.3,0.04,9.88,0.0,0.0,0.0,0.01,-0.0,0.83,0.55,-1.8609115353683964e-14,1.238548579583472e-13,1.1796689743450767e-14
3.4623982906341553,0.3,0.04,9.88,0.0,0.0,0.0,0.01,-0.0,0.83,0.55,-1.8609115353683964e-14,1.238548579583472e-13,1.1796689743450767e-14
3.462850332260132,0.3,0.04,9.88,0.0,0.0,0.0,0.01,-0.0,0.83,0.55,-1.8609115353683964e-14,1.238548579583472e-13,1.1796689743450767e-14
3.4632413387298584,0.3,0.04,9.88,0.0,0.0,0.0,0.01,-0.0,0.83,0.55,-1.8609115353683964e-14,1.238548579583472e-13,1.1796689743450767e-14
3.463641405105591,0.3,0.04,9.88,0.0,0.0,0.0,0.01,-0.0,0.83,0.55,-1.8609115353683964e-14,1.238548579583472e-13,1.1796689743450767e-14
3.46402645111084,0.3,0.04,9.88,0.0,0.0,0.0,0.01,-0.0,0.83,0.55,-1.8609115353683964e-14,1.238548579583472e-13,1.1796689743450767e-14
3.464402198791504,0.3,0.04,9.88,0.0,0.0,0.0,0.01,-0.0,0.83,0.55,-1.8609115353683964e-14,1.238548579583472e-13,1.1796689743450767e-14
3.464820384979248,0.3,-0.08,9.92,0.0,0.0,0.0,0.01,-0.0,0.83,0.55,-1.8609115353683964e-14,1.238548579583472e-13,1.1796689743450767e-14
3.4652035236358643,0.3,-0.08,9.92,0.0,0.0,0.0,0.01,-0.0,0.83,0.55,-1.8609115353683964e-14,1.238548579583472e-13,1.1796689743450767e-14
3.465665817260742,0.3,-0.08,9.92,0.0,0.0,0.0,0.01,-0.0,0.83,0.55,-1.8609115353683964e-14,1.238548579583472e-13,1.1796689743450767e-14
3.466057300567627,0.3,-0.08,9.92,0.0,0.0,0.0,0.01,-0.0,0.83,0.55,-1.8609115353683964e-14,1.238548579583472e-13,1.1796689743450767e-14
3.4664340019226074,0.3,-0.08,9.92,0.0,0.0,0.0,0.01,-0.0,0.83,0.55,-1.8609115353683964e-14,1.238548579583472e-13,1.1796689743450767e-14
3.4668450355529785,0.3,-0.08,9.92,0.0,0.0,0.0,0.01,-0.0,0.83,0.55,-1.8609115353683964e-14,1.238548579583472e-13,1.1796689743450767e-14
3.467262029647827,0.3,-0.08,9.92,0.0,0.0,0.0,0.01,-0.0,0.83,0.55,-1.8609115353683964e-14,1.238548579583472e-13,1.1796689743450767e-14
3.46802020072937,0.3,-0.08,9.92,0.0,0.0,0.0,0.01,-0.0,0.83,0.55,-1.8609115353683964e-14,1.238548579583472e-13,1.1796689743450767e-14
3.468583345413208,0.23,0.11,9.76,0.0,0.0,0.0,0.01,-0.0,0.83,0.55,-1.8609115353683964e-14,1.238548579583472e-13,1.1796689743450767e-14
3.5549919605255127,0.23,0.11,9.76,0.0,0.0,0.0,0.01,-0.0,0.83,0.55,-1.8609115353683964e-14,1.238548579583472e-13,1.1796689743450767e-14
3.5558478832244873,0.23,0.11,9.76,0.0,0.0,0.0,0.01,-0.0,0.83,0.55,-1.8609115353683964e-14,1.238548579583472e-13,1.1796689743450767e-14
3.5564634799957275,0.23,0.11,9.76,0.0,0.0,0.0,0.01,-0.0,0.83,0.55,-1.8609115353683964e-14,1.238548579583472e-13,1.1796689743450767e-14
3.5570740699768066,0.23,0.11,9.76,0.0,0.0,0.0,0.01,-0.0,0.83,0.55,-1.8609115353683964e-14,1.238548579583472e-13,1.1796689743450767e-14
3.557931661605835,0.23,0.11,9.76,0.0,0.0,0.0,0.01,-0.0,0.83,0.55,-1.8609115353683964e-14,1.238548579583472e-13,1.1796689743450767e-14
3.558746814727783,0.23,0.11,9.76,0.0,0.0,0.0,0.01,-0.0,0.83,0.55,-1.8609115353683964e-14,1.238548579583472e-13,1.1796689743450767e-14
3.5594308376312256,0.23,0.11,9.76,0.0,0.0,0.0,0.01,-0.0,0.83,0.55,-1.8609115353683964e-14,1.238548579583472e-13,1.1796689743450767e-14
3.5601162910461426,0.23,0.11,9.76,0.0,0.0,0.0,0.01,-0.0,0.83,0.55,-1.8609115353683964e-14,1.238548579583472e-13,1.1796689743450767e-14
3.560717821121216,0.23,0.11,9.76,0.0,0.0,0.0,0.01,-0.0,0.83,0.55,-1.8609115353683964e-14,1.238548579583472e-13,1.1796689743450767e-14
3.5613934993743896,0.23,0.11,9.76,0.0,0.0,0.0,0.01,-0.0,0.83,0.55,-1.8609115353683964e-14,1.238548579583472e-13,1.1796689743450767e-14
3.562004804611206,0.23,0.11,9.76,0.0,0.0,0.0,0.01,-0.0,0.83,0.55,-1.8609115353683964e-14,1.238548579583472e-13,1.1796689743450767e-14
3.5626723766326904,0.19,0.11,9.72,0.0,0.0,0.0,0.01,-0.0,0.83,0.55,-1.8609115353683964e-14,1.238548579583472e-13,1.1796689743450767e-14
3.563321590423584,0.19,0.11,9.72,0.0,0.0,0.0,0.01,-0.0,0.83,0.55,-1.8609115353683964e-14,1.238548579583472e-13,1.1796689743450767e-14
3.563962697982788,0.19,0.11,9.72,0.0,0.0,0.0,0.01,-0.0,0.83,0.55,-1.8609115353683964e-14,1.238548579583472e-13,1.1796689743450767e-14
3.564671754837036,0.19,0.11,9.72,0.0,0.0,0.0,0.01,-0.0,0.83,0.55,-1.8609115353683964e-14,1.238548579583472e-13,1.1796689743450767e-14
3.5653116703033447,0.19,0.11,9.72,0.0,0.0,0.0,0.01,-0.0,0.83,0.55,-1.8609115353683964e-14,1.238548579583472e-13,1.1796689743450767e-14
3.5659666061401367,0.19,0.11,9.72,0.0,0.0,0.0,0.01,-0.0,0.83,0.55,-1.8609115353683964e-14,1.238548579583472e-13,1.1796689743450767e-14
3.566696882247925,0.19,0.11,9.72,0.0,0.0,0.0,0.01,-0.0,0.83,0.55,-1.8609115353683964e-14,1.238548579583472e-13,1.1796689743450767e-14
3.5674657821655273,0.19,0.11,9.72,0.0,0.0,0.0,0.01,-0.0,0.83,0.55,-1.8609115353683964e-14,1.238548579583472e-13,1.1796689743450767e-14
3.568350315093994,0.27,-0.08,9.88,0.0,0.0,0.0,0.01,-0.0,0.83,0.55,-1.8609115353683964e-14,1.238548579583472e-13,1.1796689743450767e-14
3.651554584503174,0.27,-0.08,9.88,0.0,0.0,0.0,0.01,-0.0,0.83,0.55,-1.8609115353683964e-14,1.238548579583472e-13,1.1796689743450767e-14
3.652507781982422,0.27,-0.08,9.88,0.0,0.0,0.0,0.01,-0.0,0.83,0.55,-1.8609115353683964e-14,1.238548579583472e-13,1.1796689743450767e-14
3.653031587600708,0.27,-0.08,9.88,0.0,0.0,0.0,0.01,-0.0,0.83,0.55,-1.8609115353683964e-14,1.238548579583472e-13,1.1796689743450767e-14
3.653531074523926,0.27,-0.08,9.88,0.0,0.0,0.0,0.01,-0.0,0.83,0.55,-1.8609115353683964e-14,1.238548579583472e-13,1.1796689743450767e-14
3.653974771499634,0.27,-0.08,9.88,0.0,0.0,0.0,0.01,-0.0,0.83,0.55,-1.8609115353683964e-14,1.238548579583472e-13,1.1796689743450767e-14
3.654390335083008,0.27,-0.08,9.88,0.0,0.0,0.0,0.01,-0.0,0.83,0.55,-1.8609115353683964e-14,1.238548579583472e-13,1.1796689743450767e-14
3.654788017272949,0.27,-0.08,9.88,0.0,0.0,0.0,0.01,-0.0,0.83,0.55,-1.8609115353683964e-14,1.238548579583472e-13,1.1796689743450767e-14
3.6552200317382812,0.27,-0.08,9.88,0.0,0.0,0.0,0.01,-0.0,0.83,0.55,-1.8609115353683964e-14,1.238548579583472e-13,1.1796689743450767e-14
3.655663013458252,0.27,-0.08,9.88,0.0,0.0,0.0,0.01,-0.0,0.83,0.55,-1.8609115353683964e-14,1.238548579583472e-13,1.1796689743450767e-14
3.6561319828033447,0.27,-0.08,9.88,0.0,0.0,0.0,0.01,-0.0,0.83,0.55,-1.8609115353683964e-14,1.238548579583472e-13,1.1796689743450767e-14
3.6565840244293213,0.27,-0.08,9.88,0.0,0.0,0.0,0.01,-0.0,0.83,0.55,-1.8609115353683964e-14,1.238548579583472e-13,1.1796689743450767e-14
3.6572015285491943,0.27,-0.08,9.88,0.0,0.0,0.0,0.01,-0.0,0.83,0.55,-1.8609115353683964e-14,1.238548579583472e-13,1.1796689743450767e-14
3.6581027507781982,0.27,-0.08,9.88,0.0,0.0,0.0,0.01,-0.0,0.83,0.55,-1.8609115353683964e-14,1.238548579583472e-13,1.1796689743450767e-14
3.6590895652770996,0.27,0.07,9.84,0.0,0.0,0.0,0.01,-0.0,0.83,0.55,-1.8609115353683964e-14,1.238548579583472e-13,1.1796689743450767e-14
3.659956932067871,0.27,0.07,9.84,0.0,0.0,0.0,0.01,-0.0,0.83,0.55,-1.8609115353683964e-14,1.238548579583472e-13,1.1796689743450767e-14
3.6609370708465576,0.27,0.07,9.84,0.0,0.0,0.0,0.01,-0.0,0.83,0.55,-1.8609115353683964e-14,1.238548579583472e-13,1.1796689743450767e-14
3.6618030071258545,0.27,0.07,9.84,0.0,0.0,0.0,0.01,-0.0,0.83,0.55,-1.8609115353683964e-14,1.238548579583472e-13,1.1796689743450767e-14
3.6625804901123047,0.27,0.07,9.84,0.0,0.0,0.0,0.01,-0.0,0.83,0.55,-1.8609115353683964e-14,1.238548579583472e-13,1.1796689743450767e-14
3.663203477859497,0.27,0.07,9.84,0.0,0.0,0.0,0.01,-0.0,0.83,0.55,-1.8609115353683964e-14,1.238548579583472e-13,1.1796689743450767e-14
3.6640186309814453,0.27,0.07,9.84,0.0,0.0,0.0,0.01,-0.0,0.83,0.55,-1.8609115353683964e-14,1.238548579583472e-13,1.1796689743450767e-14
3.664633274078369,0.27,0.07,9.84,0.0,0.0,0.0,0.01,-0.0,0.83,0.55,-1.8609115353683964e-14,1.238548579583472e-13,1.1796689743450767e-14
3.737304449081421,0.23,0.07,9.84,0.0,0.0,0.0,0.01,-0.0,0.83,0.55,-1.8609115353683964e-14,1.238548579583472e-13,1.1796689743450767e-14
3.7379682064056396,0.23,0.07,9.84,0.0,0.0,0.0,0.01,-0.0,0.83,0.55,-1.8609115353683964e-14,1.238548579583472e-13,1.1796689743450767e-14
3.7384555339813232,0.23,0.07,9.84,0.0,0.0,0.0,0.01,-0.0,0.83,0.55,-1.8609115353683964e-14,1.238548579583472e-13,1.1796689743450767e-14
3.7389042377471924,0.23,0.07,9.84,0.0,0.0,0.0,0.01,-0.0,0.83,0.55,-1.8609115353683964e-14,1.238548579583472e-13,1.1796689743450767e-14
3.7393500804901123,0.23,0.07,9.84,0.0,0.0,0.0,0.01,-0.0,0.83,0.55,-1.8609115353683964e-14,1.238548579583472e-13,1.1796689743450767e-14
3.739762783050537,0.23,0.07,9.84,0.0,0.0,0.0,0.01,-0.0,0.83,0.55,-1.8609115353683964e-14,1.238548579583472e-13,1.1796689743450767e-14
3.7401633262634277,0.23,0.07,9.84,0.0,0.0,0.0,0.01,-0.0,0.83,0.55,-1.8609115353683964e-14,1.238548579583472e-13,1.1796689743450767e-14
3.740605592727661,0.23,0.07,9.84,0.0,0.0,0.0,0.01,-0.0,0.83,0.55,-1.8609115353683964e-14,1.238548579583472e-13,1.1796689743450767e-14
3.741041421890259,0.23,0.07,9.84,0.0,0.0,0.0,0.01,-0.0,0.83,0.55,-1.8609115353683964e-14,1.238548579583472e-13,1.1796689743450767e-14
3.7415034770965576,0.23,0.07,9.84,0.0,0.0,0.0,0.01,-0.0,0.83,0.55,-1.8609115353683964e-14,1.238548579583472e-13,1.1796689743450767e-14
3.7419345378875732,0.23,0.07,9.84,0.0,0.0,0.0,0.01,-0.0,0.83,0.55,-1.8609115353683964e-14,1.238548579583472e-13,1.1796689743450767e-14
3.742351531982422,0.23,0.07,9.84,0.0,0.0,0.0,0.01,-0.0,0.83,0.55,-1.8609115353683964e-14,1.238548579583472e-13,1.1796689743450767e-14
3.7428195476531982,0.27,0.07,9.76,0.0,0.0,0.0,0.01,-0.0,0.83,0.55,-1.8609115353683964e-14,1.238548579583472e-13,1.1796689743450767e-14
3.743284225463867,0.27,0.07,9.76,0.0,0.0,0.0,0.01,-0.0,0.83,0.55,-1.8609115353683964e-14,1.238548579583472e-13,1.1796689743450767e-14
3.7437195777893066,0.27,0.07,9.76,0.0,0.0,0.0,0.01,-0.0,0.83,0.55,-1.8609115353683964e-14,1.238548579583472e-13,1.1796689743450767e-14
3.7441256046295166,0.27,0.07,9.76,0.0,0.0,0.0,0.01,-0.0,0.83,0.55,-1.8609115353683964e-14,1.238548579583472e-13,1.1796689743450767e-14
3.8088934421539307,0.27,0.07,9.76,0.0,0.0,0.0,0.01,-0.0,0.83,0.55,-1.8609115353683964e-14,1.238548579583472e-13,1.1796689743450767e-14
3.809792995452881,0.27,0.07,9.76,0.0,0.0,0.0,0.01,-0.0,0.83,0.55,-1.8609115353683964e-14,1.238548579583472e-13,1.1796689743450767e-14
3.8105320930480957,0.27,0.07,9.76,0.0,0.0,0.0,0.01,-0.0,0.83,0.55,-1.8609115353683964e-14,1.238548579583472e-13,1.1796689743450767e-14
3.811156988143921,0.27,0.07,9.76,0.0,0.0,0.0,0.01,-0.0,0.83,0.55,-1.8609115353683964e-14,1.238548579583472e-13,1.1796689743450767e-14
3.811633825302124,0.27,0.07,9.76,0.0,0.0,0.0,0.01,-0.0,0.83,0.55,-1.8609115353683964e-14,1.238548579583472e-13,1.1796689743450767e-14
3.812047004699707,0.27,0.07,9.76,0.0,0.0,0.0,0.01,-0.0,0.83,0.55,-1.8609115353683964e-14,1.238548579583472e-13,1.1796689743450767e-14
3.8124501705169678,0.27,0.11,9.76,0.0,0.0,0.0,0.01,-0.0,0.83,0.55,-1.8609115353683964e-14,1.238548579583472e-13,1.1796689743450767e-14
3.8130943775177,0.27,0.11,9.76,0.0,0.0,0.0,0.01,-0.0,0.83,0.55,-1.8609115353683964e-14,1.238548579583472e-13,1.1796689743450767e-14
3.813507080078125,0.27,0.11,9.76,0.0,0.0,0.0,0.01,-0.0,0.83,0.55,-1.8609115353683964e-14,1.238548579583472e-13,1.1796689743450767e-14
3.8139491081237793,0.27,0.11,9.76,0.0,0.0,0.0,0.01,-0.0,0.83,0.55,-1.8609115353683964e-14,1.238548579583472e-13,1.1796689743450767e-14
3.8144123554229736,0.27,0.11,9.76,0.0,0.0,0.0,0.01,-0.0,0.83,0.55,-1.8609115353683964e-14,1.238548579583472e-13,1.1796689743450767e-14
3.8148276805877686,0.27,0.11,9.76,0.0,0.0,0.0,0.01,-0.0,0.83,0.55,-1.8609115353683964e-14,1.238548579583472e-13,1.1796689743450767e-14
3.8152236938476562,0.27,0.11,9.76,0.0,0.0,0.0,0.01,-0.0,0.83,0.55,-1.8609115353683964e-14,1.238548579583472e-13,1.1796689743450767e-14
3.815654754638672,0.27,0.11,9.76,0.0,0.0,0.0,0.01,-0.0,0.83,0.55,-1.8609115353683964e-14,1.238548579583472e-13,1.1796689743450767e-14
3.8160815238952637,0.27,0.11,9.76,0.0,0.0,0.0,0.01,-0.0,0.83,0.55,-1.8609115353683964e-14,1.238548579583472e-13,1.1796689743450767e-14
3.8165152072906494,0.27,0.11,9.76,0.0,0.0,0.0,0.01,-0.0,0.83,0.55,-1.8609115353683964e-14,1.238548579583472e-13,1.1796689743450767e-14
3.8812382221221924,0.27,0.04,9.76,0.0,0.0,0.0,0.01,-0.0,0.83,0.55,-1.8609115353683964e-14,1.238548579583472e-13,1.1796689743450767e-14
3.881916046142578,0.27,0.04,9.76,0.0,0.0,0.0,0.01,-0.0,0.83,0.55,-1.8609115353683964e-14,1.238548579583472e-13,1.1796689743450767e-14
3.882404327392578,0.27,0.04,9.76,0.0,0.0,0.0,0.01,-0.0,0.83,0.55,-1.8609115353683964e-14,1.238548579583472e-13,1.1796689743450767e-14
3.882824182510376,0.27,0.04,9.76,0.0,0.0,0.0,0.01,-0.0,0.83,0.55,-1.8609115353683964e-14,1.238548579583472e-13,1.1796689743450767e-14
3.8833930492401123,0.27,0.04,9.76,0.0,0.0,0.0,0.01,-0.0,0.83,0.55,-1.8609115353683964e-14,1.238548579583472e-13,1.1796689743450767e-14
3.8839237689971924,0.27,0.04,9.76,0.0,0.0,0.0,0.01,-0.0,0.83,0.55,-1.8609115353683964e-14,1.238548579583472e-13,1.1796689743450767e-14
3.884528875350952,0.27,0.04,9.76,0.0,0.0,0.0,0.01,-0.0,0.83,0.55,-1.8609115353683964e-14,1.238548579583472e-13,1.1796689743450767e-14
3.88498854637146,0.27,0.04,9.76,0.0,0.0,0.0,0.01,-0.0,0.83,0.55,-1.8609115353683964e-14,1.238548579583472e-13,1.1796689743450767e-14
3.8854124546051025,0.27,0.04,9.76,0.0,0.0,0.0,0.01,-0.0,0.83,0.55,-1.8609115353683964e-14,1.238548579583472e-13,1.1796689743450767e-14
3.885810613632202,0.27,0.04,9.76,0.0,0.0,0.0,0.01,-0.0,0.83,0.55,-1.8609115353683964e-14,1.238548579583472e-13,1.1796689743450767e-14
3.8862106800079346,0.27,0.04,9.76,0.0,0.0,0.0,0.01,-0.0,0.83,0.55,-1.8609115353683964e-14,1.238548579583472e-13,1.1796689743450767e-14
3.886618137359619,0.27,0.04,9.76,0.0,0.0,0.0,0.01,-0.0,0.83,0.55,-1.8609115353683964e-14,1.238548579583472e-13,1.1796689743450767e-14
3.887004852294922,0.27,0.07,9.8,0.0,0.0,0.0,0.01,-0.0,0.83,0.55,-1.8609115353683964e-14,1.238548579583472e-13,1.1796689743450767e-14
3.887436866760254,0.27,0.07,9.8,0.0,0.0,0.0,0.01,-0.0,0.83,0.55,-1.8609115353683964e-14,1.238548579583472e-13,1.1796689743450767e-14
3.8878581523895264,0.27,0.07,9.8,0.0,0.0,0.0,0.01,-0.0,0.83,0.55,-1.8609115353683964e-14,1.238548579583472e-13,1.1796689743450767e-14
3.888256072998047,0.27,0.07,9.8,0.0,0.0,0.0,0.01,-0.0,0.83,0.55,-1.8609115353683964e-14,1.238548579583472e-13,1.1796689743450767e-14
3.95375394821167,0.27,0.07,9.8,0.0,0.0,0.0,0.01,-0.0,0.83,0.55,-1.8609115353683964e-14,1.238548579583472e-13,1.1796689743450767e-14
3.9544856548309326,0.27,0.07,9.8,0.0,0.0,0.0,0.01,-0.0,0.83,0.55,-1.8609115353683964e-14,1.238548579583472e-13,1.1796689743450767e-14
3.954982280731201,0.3,0.15,9.84,0.0,0.0,0.0,0.01,-0.0,0.83,0.55,-1.8609115353683964e-14,1.238548579583472e-13,1.1796689743450767e-14
3.955432176589966,0.3,0.15,9.84,0.0,0.0,0.0,0.01,-0.0,0.83,0.55,-1.8609115353683964e-14,1.238548579583472e-13,1.1796689743450767e-14
3.95595645904541,0.3,0.15,9.84,0.0,0.0,0.0,0.01,-0.0,0.83,0.55,-1.8609115353683964e-14,1.238548579583472e-13,1.1796689743450767e-14
3.9566731452941895,0.3,0.15,9.84,0.0,0.0,0.0,0.01,-0.0,0.83,0.55,-1.8609115353683964e-14,1.238548579583472e-13,1.1796689743450767e-14
3.9573867321014404,0.3,0.15,9.84,0.0,0.0,0.0,0.01,-0.0,0.83,0.55,-1.8609115353683964e-14,1.238548579583472e-13,1.1796689743450767e-14
3.957831382751465,0.3,0.15,9.84,0.0,0.0,0.0,0.01,-0.0,0.83,0.55,-1.8609115353683964e-14,1.238548579583472e-13,1.1796689743450767e-14
3.958238124847412,0.3,0.15,9.84,0.0,0.0,0.0,0.01,-0.0,0.83,0.55,-1.8609115353683964e-14,1.238548579583472e-13,1.1796689743450767e-14
3.958754301071167,0.3,0.15,9.84,0.0,0.0,0.0,0.01,-0.0,0.83,0.55,-1.8609115353683964e-14,1.238548579583472e-13,1.1796689743450767e-14
3.9593286514282227,0.3,0.15,9.84,0.0,0.0,0.0,0.01,-0.0,0.83,0.55,-1.8609115353683964e-14,1.238548579583472e-13,1.1796689743450767e-14
3.9598042964935303,0.3,0.15,9.84,0.0,0.0,0.0,0.01,-0.0,0.83,0.55,-1.8609115353683964e-14,1.238548579583472e-13,1.1796689743450767e-14
3.9603381156921387,0.27,0.15,9.72,0.0,0.0,0.0,0.01,-0.0,0.83,0.55,-1.8609115353683964e-14,1.238548579583472e-13,1.1796689743450767e-14
3.960811138153076,0.27,0.15,9.72,0.0,0.0,0.0,0.01,-0.0,0.83,0.55,-1.8609115353683964e-14,1.238548579583472e-13,1.1796689743450767e-14
3.9612574577331543,0.27,0.15,9.72,0.0,0.0,0.0,0.01,-0.0,0.83,0.55,-1.8609115353683964e-14,1.238548579583472e-13,1.1796689743450767e-14
3.9616992473602295,0.27,0.15,9.72,0.0,0.0,0.0,0.01,-0.0,0.83,0.55,-1.8609115353683964e-14,1.238548579583472e-13,1.1796689743450767e-14
4.0290257930755615,0.27,0.15,9.72,0.0,0.0,0.0,0.01,-0.0,0.83,0.55,-1.8609115353683964e-14,1.238548579583472e-13,1.1796689743450767e-14
4.029731512069702,0.27,0.15,9.72,0.0,0.0,0.0,0.01,-0.0,0.83,0.55,-1.8609115353683964e-14,1.238548579583472e-13,1.1796689743450767e-14
4.030272722244263,0.27,0.15,9.72,0.0,0.0,0.0,0.01,-0.0,0.83,0.55,-1.8609115353683964e-14,1.238548579583472e-13,1.1796689743450767e-14
4.0307722091674805,0.27,0.15,9.72,0.0,0.0,0.0,0.01,-0.0,0.83,0.55,-1.8609115353683964e-14,1.238548579583472e-13,1.1796689743450767e-14
4.031237840652466,0.27,0.15,9.72,0.0,0.0,0.0,0.01,-0.0,0.83,0.55,-1.8609115353683964e-14,1.238548579583472e-13,1.1796689743450767e-14
4.031680583953857,0.27,0.15,9.72,0.0,0.0,0.0,0.01,-0.0,0.83,0.55,-1.8609115353683964e-14,1.238548579583472e-13,1.1796689743450767e-14
4.032133340835571,0.27,0.15,9.72,0.0,0.0,0.0,0.01,-0.0,0.83,0.55,-1.8609115353683964e-14,1.238548579583472e-13,1.1796689743450767e-14
4.0325586795806885,0.27,0.15,9.72,0.0,0.0,0.0,0.01,-0.0,0.83,0.55,-1.8609115353683964e-14,1.238548579583472e-13,1.1796689743450767e-14
4.033053636550903,0.3,0.07,9.8,0.0,0.0,0.0,0.01,-0.0,0.83,0.55,-1.8609115353683964e-14,1.238548579583472e-13,1.1796689743450767e-14
4.033484220504761,0.3,0.07,9.8,0.0,0.0,0.0,0.01,-0.0,0.83,0.55,-1.8609115353683964e-14,1.238548579583472e-13,1.1796689743450767e-14
4.033996820449829,0.3,0.07,9.8,0.0,0.0,0.0,0.01,-0.0,0.83,0.55,-1.8609115353683964e-14,1.238548579583472e-13,1.1796689743450767e-14
4.034413576126099,0.3,0.07,9.8,0.0,0.0,0.0,0.01,-0.0,0.83,0.55,-1.8609115353683964e-14,1.238548579583472e-13,1.1796689743450767e-14
4.034864187240601,0.3,0.07,9.8,0.0,0.0,0.0,0.01,-0.0,0.83,0.55,-1.8609115353683964e-14,1.238548579583472e-13,1.1796689743450767e-14
4.035358905792236,0.3,0.07,9.8,0.0,0.0,0.0,0.01,-0.0,0.83,0.55,-1.8609115353683964e-14,1.238548579583472e-13,1.1796689743450767e-14
4.035889148712158,0.3,0.07,9.8,0.0,0.0,0.0,0.01,-0.0,0.83,0.55,-1.8609115353683964e-14,1.238548579583472e-13,1.1796689743450767e-14
4.1018455028533936,0.3,0.07,9.8,0.0,0.0,0.0,0.01,-0.0,0.83,0.55,-1.8609115353683964e-14,1.238548579583472e-13,1.1796689743450767e-14
4.102537393569946,0.3,0.07,9.8,0.0,0.0,0.0,0.01,-0.0,0.83,0.55,-1.8609115353683964e-14,1.238548579583472e-13,1.1796689743450767e-14
4.103039979934692,0.3,0.07,9.8,0.0,0.0,0.0,0.01,-0.0,0.83,0.55,-1.8609115353683964e-14,1.238548579583472e-13,1.1796689743450767e-14
4.1034321784973145,0.3,0.07,9.8,0.0,0.0,0.0,0.01,-0.0,0.83,0.55,-1.8609115353683964e-14,1.238548579583472e-13,1.1796689743450767e-14
4.103834629058838,0.3,0.07,9.8,0.0,0.0,0.0,0.01,-0.0,0.83,0.55,-1.8609115353683964e-14,1.238548579583472e-13,1.1796689743450767e-14
4.104220390319824,0.3,0.07,9.8,0.0,0.0,0.0,0.01,-0.0,0.83,0.55,-1.8609115353683964e-14,1.238548579583472e-13,1.1796689743450767e-14
4.104634046554565,0.3,0.07,9.8,0.0,0.0,0.0,0.01,-0.0,0.83,0.55,-1.8609115353683964e-14,1.238548579583472e-13,1.1796689743450767e-14
4.1050286293029785,0.27,0.11,9.88,0.0,0.0,0.0,0.01,-0.0,0.83,0.55,-1.8609115353683964e-14,1.238548579583472e-13,1.1796689743450767e-14
4.1053972244262695,0.27,0.11,9.88,0.0,0.0,0.0,0.01,-0.0,0.83,0.55,-1.8609115353683964e-14,1.238548579583472e-13,1.1796689743450767e-14
4.105806827545166,0.27,0.11,9.88,0.0,0.0,0.0,0.01,-0.0,0.83,0.55,-1.8609115353683964e-14,1.238548579583472e-13,1.1796689743450767e-14
4.106176853179932,0.27,0.11,9.88,0.0,0.0,0.0,0.01,-0.0,0.83,0.55,-1.8609115353683964e-14,1.238548579583472e-13,1.1796689743450767e-14
4.106569290161133,0.27,0.11,9.88,0.0,0.0,0.0,0.01,-0.0,0.83,0.55,-1.8609115353683964e-14,1.238548579583472e-13,1.1796689743450767e-14
4.107030153274536,0.27,0.11,9.88,0.0,0.0,0.0,0.01,-0.0,0.83,0.55,-1.8609115353683964e-14,1.238548579583472e-13,1.1796689743450767e-14
4.1074018478393555,0.27,0.11,9.88,0.0,0.0,0.0,0.01,-0.0,0.83,0.55,-1.8609115353683964e-14,1.238548579583472e-13,1.1796689743450767e-14
4.107808351516724,0.27,0.11,9.88,0.0,0.0,0.0,0.01,-0.0,0.83,0.55,-1.8609115353683964e-14,1.238548579583472e-13,1.1796689743450767e-14
4.108263254165649,0.27,0.11,9.88,0.0,0.0,0.0,0.01,-0.0,0.83,0.55,-1.8609115353683964e-14,1.238548579583472e-13,1.1796689743450767e-14
4.167064905166626,0.27,0.11,9.88,0.0,0.0,0.0,0.01,-0.0,0.83,0.55,-1.8609115353683964e-14,1.238548579583472e-13,1.1796689743450767e-14
4.167862415313721,0.23,0.15,9.8,0.0,0.0,0.0,0.01,-0.0,0.83,0.55,-1.8609115353683964e-14,1.238548579583472e-13,1.1796689743450767e-14
4.168712615966797,0.23,0.15,9.8,0.0,0.0,0.0,0.01,-0.0,0.83,0.55,-1.8609115353683964e-14,1.238548579583472e-13,1.1796689743450767e-14
4.169588804244995,0.23,0.15,9.8,0.0,0.0,0.0,0.01,-0.0,0.83,0.55,-1.8609115353683964e-14,1.238548579583472e-13,1.1796689743450767e-14
4.1702916622161865,0.23,0.15,9.8,0.0,0.0,0.0,0.01,-0.0,0.83,0.55,-1.8609115353683964e-14,1.238548579583472e-13,1.1796689743450767e-14
4.170743703842163,0.23,0.15,9.8,0.0,0.0,0.0,0.01,-0.0,0.83,0.55,-1.8609115353683964e-14,1.238548579583472e-13,1.1796689743450767e-14
4.171149253845215,0.23,0.15,9.8,0.0,0.0,0.0,0.01,-0.0,0.83,0.55,-1.8609115353683964e-14,1.238548579583472e-13,1.1796689743450767e-14
4.171601057052612,0.19,-0.0,9.76,0.0,0.0,0.0,0.01,-0.0,0.83,0.55,-1.8609115353683964e-14,1.238548579583472e-13,1.1796689743450767e-14
4.172006607055664,0.19,-0.0,9.76,0.0,0.0,0.0,0.01,-0.0,0.83,0.55,-1.8609115353683964e-14,1.238548579583472e-13,1.1796689743450767e-14
4.233940839767456,0.19,-0.0,9.76,0.0,0.0,0.0,0.01,-0.0,0.83,0.55,-1.8609115353683964e-14,1.238548579583472e-13,1.1796689743450767e-14
4.234655857086182,0.19,-0.0,9.76,0.0,0.0,0.0,0.01,-0.0,0.83,0.55,-1.8609115353683964e-14,1.238548579583472e-13,1.1796689743450767e-14
4.235199451446533,0.19,-0.0,9.76,0.0,0.0,0.0,0.01,-0.0,0.83,0.55,-1.8609115353683964e-14,1.238548579583472e-13,1.1796689743450767e-14
4.2356040477752686,0.19,-0.0,9.76,0.0,0.0,0.0,0.01,-0.0,0.83,0.55,-1.8609115353683964e-14,1.238548579583472e-13,1.1796689743450767e-14
4.2360029220581055,0.19,-0.0,9.76,0.0,0.0,0.0,0.01,-0.0,0.83,0.55,-1.8609115353683964e-14,1.238548579583472e-13,1.1796689743450767e-14
4.236445665359497,0.19,-0.0,9.76,0.0,0.0,0.0,0.01,-0.0,0.83,0.55,-1.8609115353683964e-14,1.238548579583472e-13,1.1796689743450767e-14
4.236839771270752,0.19,-0.0,9.76,0.0,0.0,0.0,0.01,-0.0,0.83,0.55,-1.8609115353683964e-14,1.238548579583472e-13,1.1796689743450767e-14
4.237286567687988,0.19,-0.0,9.76,0.0,0.0,0.0,0.01,-0.0,0.83,0.55,-1.8609115353683964e-14,1.238548579583472e-13,1.1796689743450767e-14
4.237770318984985,0.19,0.07,9.76,0.0,0.0,0.0,0.01,-0.0,0.83,0.55,-1.8609115353683964e-14,1.238548579583472e-13,1.1796689743450767e-14
4.238240957260132,0.19,0.07,9.76,0.0,0.0,0.0,0.01,-0.0,0.83,0.55,-1.8609115353683964e-14,1.238548579583472e-13,1.1796689743450767e-14
4.238723278045654,0.19,0.07,9.76,0.0,0.0,0.0,0.01,-0.0,0.83,0.55,-1.8609115353683964e-14,1.238548579583472e-13,1.1796689743450767e-14
4.239153861999512,0.19,0.07,9.76,0.0,0.0,0.0,0.01,-0.0,0.83,0.55,-1.8609115353683964e-14,1.238548579583472e-13,1.1796689743450767e-14
4.239583730697632,0.19,0.07,9.76,0.0,0.0,0.0,0.01,-0.0,0.83,0.55,-1.8609115353683964e-14,1.238548579583472e-13,1.1796689743450767e-14
4.240067481994629,0.19,0.07,9.76,0.0,0.0,0.0,0.01,-0.0,0.83,0.55,-1.8609115353683964e-14,1.238548579583472e-13,1.1796689743450767e-14
4.240479946136475,0.19,0.07,9.76,0.0,0.0,0.0,0.01,-0.0,0.83,0.55,-1.8609115353683964e-14,1.238548579583472e-13,1.1796689743450767e-14
4.240859270095825,0.19,0.07,9.76,0.0,0.0,0.0,0.01,-0.0,0.83,0.55,-1.8609115353683964e-14,1.238548579583472e-13,1.1796689743450767e-14
4.241227626800537,0.19,0.07,9.76,0.0,0.0,0.0,0.01,-0.0,0.83,0.55,-1.8609115353683964e-14,1.238548579583472e-13,1.1796689743450767e-14
4.241644620895386,0.19,0.07,9.76,0.0,0.0,0.0,0.01,-0.0,0.83,0.55,-1.8609115353683964e-14,1.238548579583472e-13,1.1796689743450767e-14
4.242077112197876,0.27,0.11,9.8,0.0,0.0,0.0,0.01,-0.0,0.83,0.55,-1.8609115353683964e-14,1.238548579583472e-13,1.1796689743450767e-14
4.24245548248291,0.27,0.11,9.8,0.0,0.0,0.0,0.01,-0.0,0.83,0.55,-1.8609115353683964e-14,1.238548579583472e-13,1.1796689743450767e-14
4.3031768798828125,0.27,0.11,9.8,0.0,0.0,0.0,0.01,-0.0,0.83,0.55,-1.8609115353683964e-14,1.238548579583472e-13,1.1796689743450767e-14
4.303870439529419,0.27,0.11,9.8,0.0,0.0,0.0,0.01,-0.0,0.83,0.55,-1.8609115353683964e-14,1.238548579583472e-13,1.1796689743450767e-14
4.3043718338012695,0.27,0.11,9.8,0.0,0.0,0.0,0.01,-0.0,0.83,0.55,-1.8609115353683964e-14,1.238548579583472e-13,1.1796689743450767e-14
4.304786443710327,0.27,0.11,9.8,0.0,0.0,0.0,0.01,-0.0,0.83,0.55,-1.8609115353683964e-14,1.238548579583472e-13,1.1796689743450767e-14
4.305194139480591,0.27,0.11,9.8,0.0,0.0,0.0,0.01,-0.0,0.83,0.55,-1.8609115353683964e-14,1.238548579583472e-13,1.1796689743450767e-14
4.305581331253052,0.27,0.11,9.8,0.0,0.0,0.0,0.01,-0.0,0.83,0.55,-1.8609115353683964e-14,1.238548579583472e-13,1.1796689743450767e-14
4.305970668792725,0.27,0.11,9.8,0.0,0.0,0.0,0.01,-0.0,0.83,0.55,-1.8609115353683964e-14,1.238548579583472e-13,1.1796689743450767e-14
4.306428670883179,0.27,0.11,9.8,0.0,0.0,0.0,0.01,-0.0,0.83,0.55,-1.8609115353683964e-14,1.238548579583472e-13,1.1796689743450767e-14
4.30686354637146,0.3,0.11,9.76,0.0,0.0,0.0,0.01,-0.0,0.83,0.55,-1.8609115353683964e-14,1.238548579583472e-13,1.1796689743450767e-14
4.307288885116577,0.3,0.11,9.76,0.0,0.0,0.0,0.01,-0.0,0.83,0.55,-1.8609115353683964e-14,1.238548579583472e-13,1.1796689743450767e-14
4.307775974273682,0.3,0.11,9.76,0.0,0.0,0.0,0.01,-0.0,0.83,0.55,-1.8609115353683964e-14,1.238548579583472e-13,1.1796689743450767e-14
4.308186292648315,0.3,0.11,9.76,0.0,0.0,0.0,0.01,-0.0,0.83,0.55,-1.8609115353683964e-14,1.238548579583472e-13,1.1796689743450767e-14
4.308598756790161,0.3,0.11,9.76,0.0,0.0,0.0,0.01,-0.0,0.83,0.55,-1.8609115353683964e-14,1.238548579583472e-13,1.1796689743450767e-14
4.309077262878418,0.3,0.11,9.76,0.0,0.0,0.0,0.01,-0.0,0.83,0.55,-1.8609115353683964e-14,1.238548579583472e-13,1.1796689743450767e-14
4.375630140304565,0.3,0.11,9.76,0.0,0.0,0.0,0.01,-0.0,0.83,0.55,-1.8609115353683964e-14,1.238548579583472e-13,1.1796689743450767e-14
4.37721061706543,0.3,0.11,9.76,0.0,0.0,0.0,0.01,-0.0,0.83,0.55,-1.8609115353683964e-14,1.238548579583472e-13,1.1796689743450767e-14
4.378167629241943,0.3,0.11,9.76,0.0,0.0,0.0,0.01,-0.0,0.83,0.55,-1.8609115353683964e-14,1.238548579583472e-13,1.1796689743450767e-14
4.378979682922363,0.3,0.11,9.76,0.0,0.0,0.0,0.01,-0.0,0.83,0.55,-1.8609115353683964e-14,1.238548579583472e-13,1.1796689743450767e-14
4.37964653968811,0.19,0.04,9.76,0.0,0.0,0.0,0.01,-0.0,0.83,0.55,-1.8609115353683964e-14,1.238548579583472e-13,1.1796689743450767e-14
4.380372762680054,0.19,0.04,9.76,0.0,0.0,0.0,0.01,-0.0,0.83,0.55,-1.8609115353683964e-14,1.238548579583472e-13,1.1796689743450767e-14
4.381199836730957,0.19,0.04,9.76,0.0,0.0,0.0,0.01,-0.0,0.83,0.55,-1.8609115353683964e-14,1.238548579583472e-13,1.1796689743450767e-14
4.3821141719818115,0.19,0.04,9.76,0.0,0.0,0.0,0.01,-0.0,0.83,0.55,-1.8609115353683964e-14,1.238548579583472e-13,1.1796689743450767e-14
4.382911682128906,0.19,0.04,9.76,0.0,0.0,0.0,0.01,-0.0,0.83,0.55,-1.8609115353683964e-14,1.238548579583472e-13,1.1796689743450767e-14
4.383722305297852,0.19,0.04,9.76,0.0,0.0,0.0,0.01,-0.0,0.83,0.55,-1.8609115353683964e-14,1.238548579583472e-13,1.1796689743450767e-14
4.384473085403442,0.27,0.04,9.8,0.0,0.0,0.0,0.01,-0.0,0.83,0.55,-1.8609115353683964e-14,1.238548579583472e-13,1.1796689743450767e-14
4.4747419357299805,0.27,0.04,9.8,0.0,0.0,0.0,0.01,-0.0,0.83,0.55,-1.8609115353683964e-14,1.238548579583472e-13,1.1796689743450767e-14
4.475804090499878,0.27,0.04,9.8,0.0,0.0,0.0,0.01,-0.0,0.83,0.55,-1.8609115353683964e-14,1.238548579583472e-13,1.1796689743450767e-14
4.476551532745361,0.27,0.04,9.8,0.0,0.0,0.0,0.01,-0.0,0.83,0.55,-1.8609115353683964e-14,1.238548579583472e-13,1.1796689743450767e-14
4.477264881134033,0.27,0.04,9.8,0.0,0.0,0.0,0.01,-0.0,0.83,0.55,-1.8609115353683964e-14,1.238548579583472e-13,1.1796689743450767e-14
4.477862119674683,0.27,0.04,9.8,0.0,0.0,0.0,0.01,-0.0,0.83,0.55,-1.8609115353683964e-14,1.238548579583472e-13,1.1796689743450767e-14
4.478863000869751,0.27,0.04,9.8,0.0,0.0,0.0,0.01,-0.0,0.83,0.55,-1.8609115353683964e-14,1.238548579583472e-13,1.1796689743450767e-14
4.479550838470459,0.27,0.04,9.8,0.0,0.0,0.0,0.01,-0.0,0.83,0.55,-1.8609115353683964e-14,1.238548579583472e-13,1.1796689743450767e-14
4.4802610874176025,0.23,0.04,9.8,0.0,0.0,0.0,0.01,-0.0,0.83,0.55,-1.8609115353683964e-14,1.238548579583472e-13,1.1796689743450767e-14
4.4810240268707275,0.23,0.04,9.8,0.0,0.0,0.0,0.01,-0.0,0.83,0.55,-1.8609115353683964e-14,1.238548579583472e-13,1.1796689743450767e-14
4.481781959533691,0.23,0.04,9.8,0.0,0.0,0.0,0.01,-0.0,0.83,0.55,-1.8609115353683964e-14,1.238548579583472e-13,1.1796689743450767e-14
4.48242449760437,0.23,0.04,9.8,0.0,0.0,0.0,0.01,-0.0,0.83,0.55,-1.8609115353683964e-14,1.238548579583472e-13,1.1796689743450767e-14
4.483045816421509,0.23,0.04,9.8,0.0,0.0,0.0,0.01,-0.0,0.83,0.55,-1.8609115353683964e-14,1.238548579583472e-13,1.1796689743450767e-14
4.483668327331543,0.23,0.04,9.8,0.0,0.0,0.0,0.01,-0.0,0.83,0.55,-1.8609115353683964e-14,1.238548579583472e-13,1.1796689743450767e-14
4.484266042709351,0.23,0.04,9.8,0.0,0.0,0.0,0.01,-0.0,0.83,0.55,-1.8609115353683964e-14,1.238548579583472e-13,1.1796689743450767e-14
4.484753847122192,0.23,0.04,9.8,0.0,0.0,0.0,0.01,-0.0,0.83,0.55,-1.8609115353683964e-14,1.238548579583472e-13,1.1796689743450767e-14
4.485544681549072,0.23,0.04,9.8,0.0,0.0,0.0,0.01,-0.0,0.83,0.55,-1.8609115353683964e-14,1.238548579583472e-13,1.1796689743450767e-14
4.4860382080078125,0.23,0.04,9.8,0.0,0.0,0.0,0.01,-0.0,0.83,0.55,-1.8609115353683964e-14,1.238548579583472e-13,1.1796689743450767e-14
4.4865076541900635,0.27,0.11,9.8,0.0,0.0,0.0,0.01,-0.0,0.83,0.55,-1.8609115353683964e-14,1.238548579583472e-13,1.1796689743450767e-14
4.487065076828003,0.27,0.11,9.8,0.0,0.0,0.0,0.01,-0.0,0.83,0.55,-1.8609115353683964e-14,1.238548579583472e-13,1.1796689743450767e-14
4.487601280212402,0.27,0.11,9.8,0.0,0.0,0.0,0.01,-0.0,0.83,0.55,-1.8609115353683964e-14,1.238548579583472e-13,1.1796689743450767e-14
4.488065481185913,0.27,0.11,9.8,0.0,0.0,0.0,0.01,-0.0,0.83,0.55,-1.8609115353683964e-14,1.238548579583472e-13,1.1796689743450767e-14
4.488795757293701,0.27,0.11,9.8,0.0,0.0,0.0,0.01,-0.0,0.83,0.55,-1.8609115353683964e-14,1.238548579583472e-13,1.1796689743450767e-14
4.48954701423645,0.27,0.11,9.8,0.0,0.0,0.0,0.01,-0.0,0.83,0.55,-1.8609115353683964e-14,1.238548579583472e-13,1.1796689743450767e-14
4.490193605422974,0.27,0.11,9.8,0.0,0.0,0.0,0.01,-0.0,0.83,0.55,-1.8609115353683964e-14,1.238548579583472e-13,1.1796689743450767e-14
4.490695476531982,0.27,0.11,9.8,0.0,0.0,0.0,0.01,-0.0,0.83,0.55,-1.8609115353683964e-14,1.238548579583472e-13,1.1796689743450767e-14
4.491229772567749,0.23,0.11,9.8,0.0,0.0,0.0,0.01,-0.0,0.83,0.55,-1.8609115353683964e-14,1.238548579583472e-13,1.1796689743450767e-14
4.49212646484375,0.23,0.11,9.8,0.0,0.0,0.0,0.01,-0.0,0.83,0.55,-1.8609115353683964e-14,1.238548579583472e-13,1.1796689743450767e-14
4.492907524108887,0.23,0.11,9.8,0.0,0.0,0.0,0.01,-0.0,0.83,0.55,-1.8609115353683964e-14,1.238548579583472e-13,1.1796689743450767e-14
4.4938342571258545,0.23,0.11,9.8,0.0,0.0,0.0,0.01,-0.0,0.83,0.55,-1.8609115353683964e-14,1.238548579583472e-13,1.1796689743450767e-14
4.4946448802948,0.23,0.11,9.8,0.0,0.0,0.0,0.01,-0.0,0.83,0.55,-1.8609115353683964e-14,1.238548579583472e-13,1.1796689743450767e-14
4.495187520980835,0.23,0.11,9.8,0.0,0.0,0.0,0.01,-0.0,0.83,0.55,-1.8609115353683964e-14,1.238548579583472e-13,1.1796689743450767e-14
4.571708917617798,0.23,0.11,9.8,0.0,0.0,0.0,0.01,-0.0,0.83,0.55,-1.8609115353683964e-14,1.238548579583472e-13,1.1796689743450767e-14
4.5725860595703125,0.23,0.11,9.8,0.0,0.0,0.0,0.01,-0.0,0.83,0.55,-1.8609115353683964e-14,1.238548579583472e-13,1.1796689743450767e-14
4.57318115234375,0.23,0.04,9.8,0.0,0.0,0.0,0.01,-0.0,0.83,0.55,-1.8609115353683964e-14,1.238548579583472e-13,1.1796689743450767e-14
4.573657989501953,0.23,0.04,9.8,0.0,0.0,0.0,0.01,-0.0,0.83,0.55,-1.8609115353683964e-14,1.238548579583472e-13,1.1796689743450767e-14
4.5741565227508545,0.23,0.04,9.8,0.0,0.0,0.0,0.01,-0.0,0.83,0.55,-1.8609115353683964e-14,1.238548579583472e-13,1.1796689743450767e-14
4.574594497680664,0.23,0.04,9.8,0.0,0.0,0.0,0.01,-0.0,0.83,0.55,-1.8609115353683964e-14,1.238548579583472e-13,1.1796689743450767e-14
4.575017690658569,0.23,0.04,9.8,0.0,0.0,0.0,0.01,-0.0,0.83,0.55,-1.8609115353683964e-14,1.238548579583472e-13,1.1796689743450767e-14
4.575477838516235,0.23,0.04,9.8,0.0,0.0,0.0,0.01,-0.0,0.83,0.55,-1.8609115353683964e-14,1.238548579583472e-13,1.1796689743450767e-14
4.575979709625244,0.3,-0.0,9.84,0.0,0.0,0.0,0.01,-0.0,0.83,0.55,-1.8609115353683964e-14,1.238548579583472e-13,1.1796689743450767e-14
4.576590299606323,0.3,-0.0,9.84,0.0,0.0,0.0,0.01,-0.0,0.83,0.55,-1.8609115353683964e-14,1.238548579583472e-13,1.1796689743450767e-14
4.642959117889404,0.3,-0.0,9.84,0.0,0.0,0.0,0.01,-0.0,0.83,0.55,-1.8609115353683964e-14,1.238548579583472e-13,1.1796689743450767e-14
4.643757343292236,0.3,-0.0,9.84,0.0,0.0,0.0,0.01,-0.0,0.83,0.55,-1.8609115353683964e-14,1.238548579583472e-13,1.1796689743450767e-14
4.644426107406616,0.3,-0.0,9.84,0.0,0.0,0.0,0.01,-0.0,0.83,0.55,-1.8609115353683964e-14,1.238548579583472e-13,1.1796689743450767e-14
4.644943714141846,0.3,-0.0,9.84,0.0,0.0,0.0,0.01,-0.0,0.83,0.55,-1.8609115353683964e-14,1.238548579583472e-13,1.1796689743450767e-14
4.645397186279297,0.3,-0.0,9.84,0.0,0.0,0.0,0.01,-0.0,0.83,0.55,-1.8609115353683964e-14,1.238548579583472e-13,1.1796689743450767e-14
4.645859003067017,0.3,-0.0,9.84,0.0,0.0,0.0,0.01,-0.0,0.83,0.55,-1.8609115353683964e-14,1.238548579583472e-13,1.1796689743450767e-14
4.64626407623291,0.19,0.04,9.76,0.0,0.0,0.0,0.01,-0.0,0.83,0.55,-1.8609115353683964e-14,1.238548579583472e-13,1.1796689743450767e-14
4.646795988082886,0.19,0.04,9.76,0.0,0.0,0.0,0.01,-0.0,0.83,0.55,-1.8609115353683964e-14,1.238548579583472e-13,1.1796689743450767e-14
4.647374391555786,0.19,0.04,9.76,0.0,0.0,0.0,0.01,-0.0,0.83,0.55,-1.8609115353683964e-14,1.238548579583472e-13,1.1796689743450767e-14
4.647835969924927,0.19,0.04,9.76,0.0,0.0,0.0,0.01,-0.0,0.83,0.55,-1.8609115353683964e-14,1.238548579583472e-13,1.1796689743450767e-14
4.648306846618652,0.19,0.04,9.76,0.0,0.0,0.0,0.01,-0.0,0.83,0.55,-1.8609115353683964e-14,1.238548579583472e-13,1.1796689743450767e-14
4.648837089538574,0.19,0.04,9.76,0.0,0.0,0.0,0.01,-0.0,0.83,0.55,-1.8609115353683964e-14,1.238548579583472e-13,1.1796689743450767e-14
4.649384021759033,0.19,0.04,9.76,0.0,0.0,0.0,0.01,-0.0,0.83,0.55,-1.8609115353683964e-14,1.238548579583472e-13,1.1796689743450767e-14
4.649861812591553,0.19,0.04,9.76,0.0,0.0,0.0,0.01,-0.0,0.83,0.55,-1.8609115353683964e-14,1.238548579583472e-13,1.1796689743450767e-14
4.650323867797852,0.19,0.04,9.76,0.0,0.0,0.0,0.01,-0.0,0.83,0.55,-1.8609115353683964e-14,1.238548579583472e-13,1.1796689743450767e-14
4.650854825973511,0.19,0.04,9.76,0.0,0.0,0.0,0.01,-0.0,0.83,0.55,-1.8609115353683964e-14,1.238548579583472e-13,1.1796689743450767e-14
4.65132737159729,0.23,0.19,9.76,0.0,0.0,0.0,0.01,-0.0,0.83,0.55,-1.8609115353683964e-14,1.238548579583472e-13,1.1796689743450767e-14
4.651750326156616,0.23,0.19,9.76,0.0,0.0,0.0,0.01,-0.0,0.83,0.55,-1.8609115353683964e-14,1.238548579583472e-13,1.1796689743450767e-14
4.652223825454712,0.23,0.19,9.76,0.0,0.0,0.0,0.01,-0.0,0.83,0.55,-1.8609115353683964e-14,1.238548579583472e-13,1.1796689743450767e-14
4.652775287628174,0.23,0.19,9.76,0.0,0.0,0.0,0.01,-0.0,0.83,0.55,-1.8609115353683964e-14,1.238548579583472e-13,1.1796689743450767e-14
4.653231859207153,0.23,0.19,9.76,0.0,0.0,0.0,0.01,-0.0,0.83,0.55,-1.8609115353683964e-14,1.238548579583472e-13,1.1796689743450767e-14
4.6536736488342285,0.23,0.19,9.76,0.0,0.0,0.0,0.01,-0.0,0.83,0.55,-1.8609115353683964e-14,1.238548579583472e-13,1.1796689743450767e-14
4.654200077056885,0.23,0.19,9.76,0.0,0.0,0.0,0.01,-0.0,0.83,0.55,-1.8609115353683964e-14,1.238548579583472e-13,1.1796689743450767e-14
4.65465235710144,0.23,0.19,9.76,0.0,0.0,0.0,0.01,-0.0,0.83,0.55,-1.8609115353683964e-14,1.238548579583472e-13,1.1796689743450767e-14
4.716692209243774,0.23,0.19,9.76,0.0,0.0,0.0,0.01,-0.0,0.83,0.55,-1.8609115353683964e-14,1.238548579583472e-13,1.1796689743450767e-14
4.717439889907837,0.23,0.19,9.76,0.0,0.0,0.0,0.01,-0.0,0.83,0.55,-1.8609115353683964e-14,1.238548579583472e-13,1.1796689743450767e-14
4.717953443527222,0.19,0.07,9.72,0.0,0.0,0.0,0.01,-0.0,0.83,0.55,-1.8609115353683964e-14,1.238548579583472e-13,1.1796689743450767e-14
4.718511581420898,0.19,0.07,9.72,0.0,0.0,0.0,0.01,-0.0,0.83,0.55,-1.8609115353683964e-14,1.238548579583472e-13,1.1796689743450767e-14
4.718933820724487,0.19,0.07,9.72,0.0,0.0,0.0,0.01,-0.0,0.83,0.55,-1.8609115353683964e-14,1.238548579583472e-13,1.1796689743450767e-14
4.719353199005127,0.19,0.07,9.72,0.0,0.0,0.0,0.01,-0.0,0.83,0.55,-1.8609115353683964e-14,1.238548579583472e-13,1.1796689743450767e-14
4.719751596450806,0.19,0.07,9.72,0.0,0.0,0.0,0.01,-0.0,0.83,0.55,-1.8609115353683964e-14,1.238548579583472e-13,1.1796689743450767e-14
4.72019362449646,0.19,0.07,9.72,0.0,0.0,0.0,0.01,-0.0,0.83,0.55,-1.8609115353683964e-14,1.238548579583472e-13,1.1796689743450767e-14
4.720634698867798,0.19,0.07,9.72,0.0,0.0,0.0,0.01,-0.0,0.83,0.55,-1.8609115353683964e-14,1.238548579583472e-13,1.1796689743450767e-14
4.721050024032593,0.19,0.07,9.72,0.0,0.0,0.0,0.01,-0.0,0.83,0.55,-1.8609115353683964e-14,1.238548579583472e-13,1.1796689743450767e-14
4.721482038497925,0.27,0.04,9.76,0.0,0.0,0.0,0.01,-0.0,0.83,0.55,-1.8609115353683964e-14,1.238548579583472e-13,1.1796689743450767e-14
4.721918344497681,0.27,0.04,9.76,0.0,0.0,0.0,0.01,-0.0,0.83,0.55,-1.8609115353683964e-14,1.238548579583472e-13,1.1796689743450767e-14
4.722414970397949,0.27,0.04,9.76,0.0,0.0,0.0,0.01,-0.0,0.83,0.55,-1.8609115353683964e-14,1.238548579583472e-13,1.1796689743450767e-14
4.722966432571411,0.27,0.04,9.76,0.0,0.0,0.0,0.01,-0.0,0.83,0.55,-1.8609115353683964e-14,1.238548579583472e-13,1.1796689743450767e-14
4.723390579223633,0.27,0.04,9.76,0.0,0.0,0.0,0.01,-0.0,0.83,0.55,-1.8609115353683964e-14,1.238548579583472e-13,1.1796689743450767e-14
4.723788738250732,0.27,0.04,9.76,0.0,0.0,0.0,0.01,-0.0,0.83,0.55,-1.8609115353683964e-14,1.238548579583472e-13,1.1796689743450767e-14
4.784148216247559,0.27,0.04,9.76,0.0,0.0,0.0,0.01,-0.0,0.83,0.55,-1.8609115353683964e-14,1.238548579583472e-13,1.1796689743450767e-14
4.784857273101807,0.27,0.04,9.76,0.0,0.0,0.0,0.01,-0.0,0.83,0.55,-1.8609115353683964e-14,1.238548579583472e-13,1.1796689743450767e-14
4.78535270690918,0.27,0.04,9.76,0.0,0.0,0.0,0.01,-0.0,0.83,0.55,-1.8609115353683964e-14,1.238548579583472e-13,1.1796689743450767e-14
4.785743951797485,0.27,0.04,9.76,0.0,0.0,0.0,0.01,-0.0,0.83,0.55,-1.8609115353683964e-14,1.238548579583472e-13,1.1796689743450767e-14
4.786174535751343,0.27,-0.0,9.88,0.0,0.0,0.0,0.01,-0.0,0.83,0.55,-1.8609115353683964e-14,1.238548579583472e-13,1.1796689743450767e-14
4.786554336547852,0.27,-0.0,9.88,0.0,0.0,0.0,0.01,-0.0,0.83,0.55,-1.8609115353683964e-14,1.238548579583472e-13,1.1796689743450767e-14
4.786924600601196,0.27,-0.0,9.88,0.0,0.0,0.0,0.01,-0.0,0.83,0.55,-1.8609115353683964e-14,1.238548579583472e-13,1.1796689743450767e-14
4.7873694896698,0.27,-0.0,9.88,0.0,0.0,0.0,0.01,-0.0,0.83,0.55,-1.8609115353683964e-14,1.238548579583472e-13,1.1796689743450767e-14
4.788005113601685,0.27,-0.0,9.88,0.0,0.0,0.0,0.01,-0.0,0.83,0.55,-1.8609115353683964e-14,1.238548579583472e-13,1.1796689743450767e-14
4.788453817367554,0.27,-0.0,9.88,0.0,0.0,0.0,0.01,-0.0,0.83,0.55,-1.8609115353683964e-14,1.238548579583472e-13,1.1796689743450767e-14
4.7888665199279785,0.27,-0.0,9.88,-0.0,0.0,0.0,0.01,-0.0,0.83,0.55,-1.8609115353683964e-14,1.238548579583472e-13,1.1796689743450767e-14
4.78933310508728,0.27,-0.0,9.88,-0.0,0.0,0.0,0.01,-0.0,0.83,0.55,-1.8609115353683964e-14,1.238548579583472e-13,1.1796689743450767e-14
4.789746522903442,0.27,-0.0,9.88,-0.0,-0.0,0.01,0.01,-0.0,0.83,0.55,-1.8609115353683964e-14,1.238548579583472e-13,1.1796689743450767e-14
4.79015851020813,0.27,-0.0,9.88,-0.0,-0.0,0.01,0.01,-0.0,0.83,0.55,-1.8609115353683964e-14,1.238548579583472e-13,1.1796689743450767e-14
4.852261543273926,0.19,-0.0,9.8,-0.0,-0.0,0.01,0.01,-0.0,0.83,0.55,-1.8609115353683964e-14,1.238548579583472e-13,1.1796689743450767e-14
4.8529932498931885,0.19,-0.0,9.8,-0.0,-0.0,0.01,0.01,-0.0,0.83,0.55,-1.8609115353683964e-14,1.238548579583472e-13,1.1796689743450767e-14
4.853525876998901,0.19,-0.0,9.8,0.0,0.0,0.0,0.01,-0.0,0.83,0.55,-1.8609115353683964e-14,1.238548579583472e-13,1.1796689743450767e-14
4.853938579559326,0.19,-0.0,9.8,0.0,0.0,0.0,0.01,-0.0,0.83,0.55,-1.8609115353683964e-14,1.238548579583472e-13,1.1796689743450767e-14
4.854374885559082,0.19,-0.0,9.8,0.0,0.0,0.0,0.01,-0.0,0.83,0.55,-1.8609115353683964e-14,1.238548579583472e-13,1.1796689743450767e-14
4.854780435562134,0.19,-0.0,9.8,0.0,0.0,0.0,0.01,-0.0,0.83,0.55,-1.8609115353683964e-14,1.238548579583472e-13,1.1796689743450767e-14
4.855209827423096,0.19,-0.0,9.8,0.0,-0.01,-0.01,0.01,-0.0,0.83,0.55,-1.8609115353683964e-14,1.238548579583472e-13,1.1796689743450767e-14
4.855721473693848,0.19,-0.0,9.8,0.0,-0.01,-0.01,0.01,-0.0,0.83,0.55,-1.8609115353683964e-14,1.238548579583472e-13,1.1796689743450767e-14
4.856125831604004,0.19,-0.0,9.8,0.0,-0.01,-0.0,0.01,-0.0,0.83,0.55,-1.8609115353683964e-14,1.238548579583472e-13,1.1796689743450767e-14
4.856517314910889,0.19,-0.0,9.8,0.0,-0.01,-0.0,0.01,-0.0,0.83,0.55,-1.8609115353683964e-14,1.238548579583472e-13,1.1796689743450767e-14
4.856961727142334,0.23,-0.0,9.8,0.0,-0.01,-0.0,0.01,-0.0,0.83,0.55,-1.8609115353683964e-14,1.238548579583472e-13,1.1796689743450767e-14
4.857384443283081,0.23,-0.0,9.8,0.0,-0.01,-0.0,0.01,-0.0,0.83,0.55,-1.8609115353683964e-14,1.238548579583472e-13,1.1796689743450767e-14
4.857810020446777,0.23,-0.0,9.8,0.0,-0.01,-0.01,0.01,-0.0,0.83,0.55,-1.8609115353683964e-14,1.238548579583472e-13,1.1796689743450767e-14
4.858287811279297,0.23,-0.0,9.8,0.0,-0.01,-0.01,0.01,-0.0,0.83,0.55,-1.8609115353683964e-14,1.238548579583472e-13,1.1796689743450767e-14
4.85903525352478,0.23,-0.0,9.8,0.01,-0.0,0.0,0.01,-0.0,0.83,0.55,-1.8609115353683964e-14,1.238548579583472e-13,1.1796689743450767e-14
4.925701141357422,0.23,-0.0,9.8,0.01,-0.0,0.0,0.01,-0.0,0.83,0.55,-1.8609115353683964e-14,1.238548579583472e-13,1.1796689743450767e-14
4.926460266113281,0.23,-0.0,9.8,0.0,0.0,0.0,0.01,-0.0,0.83,0.55,-1.8609115353683964e-14,1.238548579583472e-13,1.1796689743450767e-14
4.927069902420044,0.23,-0.0,9.8,0.0,0.0,0.0,0.01,-0.0,0.83,0.55,-1.8609115353683964e-14,1.238548579583472e-13,1.1796689743450767e-14
4.927608251571655,0.23,0.04,9.84,0.0,0.0,0.0,0.01,-0.0,0.83,0.55,-1.8609115353683964e-14,1.238548579583472e-13,1.1796689743450767e-14
4.928029775619507,0.23,0.04,9.84,0.0,0.0,0.01,0.01,-0.0,0.83,0.55,-1.8609115353683964e-14,1.238548579583472e-13,1.1796689743450767e-14
4.928411483764648,0.23,0.04,9.84,0.0,0.0,0.01,0.01,-0.0,0.83,0.55,-1.8609115353683964e-14,1.238548579583472e-13,1.1796689743450767e-14
4.92885422706604,0.23,0.04,9.84,0.0,0.0,0.01,0.01,-0.0,0.83,0.55,-1.8609115353683964e-14,1.238548579583472e-13,1.1796689743450767e-14
4.929243326187134,0.23,0.04,9.84,-0.0,0.0,-0.0,0.01,-0.0,0.83,0.55,-1.8609115353683964e-14,1.238548579583472e-13,1.1796689743450767e-14
4.929667711257935,0.23,0.04,9.84,-0.0,0.0,-0.0,0.01,-0.0,0.83,0.55,-1.8609115353683964e-14,1.238548579583472e-13,1.1796689743450767e-14
4.930049657821655,0.23,0.04,9.84,0.0,-0.0,0.0,0.01,-0.0,0.83,0.55,-1.8609115353683964e-14,1.238548579583472e-13,1.1796689743450767e-14
4.930419445037842,0.23,0.04,9.84,0.0,-0.0,0.0,0.01,-0.0,0.83,0.55,-1.8609115353683964e-14,1.238548579583472e-13,1.1796689743450767e-14
4.93086838722229,0.19,-0.04,9.8,0.0,-0.0,0.0,0.01,-0.0,0.83,0.55,-1.8609115353683964e-14,1.238548579583472e-13,1.1796689743450767e-14
4.931288957595825,0.19,-0.04,9.8,0.0,0.0,0.0,0.01,-0.0,0.83,0.55,-1.8609115353683964e-14,1.238548579583472e-13,1.1796689743450767e-14
4.931684494018555,0.19,-0.04,9.8,0.0,0.0,0.0,0.01,-0.0,0.83,0.55,-1.8609115353683964e-14,1.238548579583472e-13,1.1796689743450767e-14
4.932148694992065,0.19,-0.04,9.8,0.0,0.0,0.0,0.01,-0.0,0.83,0.55,-1.8609115353683964e-14,1.238548579583472e-13,1.1796689743450767e-14
4.932531356811523,0.19,-0.04,9.8,0.0,0.0,0.0,0.01,-0.0,0.83,0.55,-1.8609115353683964e-14,1.238548579583472e-13,1.1796689743450767e-14
4.9919984340667725,0.19,-0.04,9.8,0.0,0.0,0.0,0.01,-0.0,0.83,0.55,-1.8609115353683964e-14,1.238548579583472e-13,1.1796689743450767e-14
4.992714166641235,0.19,-0.04,9.8,0.0,0.0,0.0,0.01,-0.0,0.83,0.55,-1.8609115353683964e-14,1.238548579583472e-13,1.1796689743450767e-14
4.99345588684082,0.19,-0.04,9.8,0.0,0.0,0.0,0.01,-0.0,0.83,0.55,-1.8609115353683964e-14,1.238548579583472e-13,1.1796689743450767e-14
4.993929147720337,0.19,-0.04,9.8,-0.0,0.0,-0.0,0.01,-0.0,0.83,0.55,-1.8609115353683964e-14,1.238548579583472e-13,1.1796689743450767e-14
4.994338750839233,0.19,-0.04,9.8,-0.0,0.0,-0.0,0.01,-0.0,0.83,0.55,-1.8609115353683964e-14,1.238548579583472e-13,1.1796689743450767e-14
4.994913816452026,0.19,-0.04,9.8,0.0,-0.0,-0.0,0.01,-0.0,0.83,0.55,-1.8609115353683964e-14,1.238548579583472e-13,1.1796689743450767e-14
4.995388984680176,0.19,-0.04,9.8,0.0,-0.0,-0.0,0.01,-0.0,0.83,0.55,-1.8609115353683964e-14,1.238548579583472e-13,1.1796689743450767e-14
4.9959070682525635,0.23,0.11,9.72,0.0,-0.0,-0.0,0.01,-0.0,0.83,0.55,-1.8609115353683964e-14,1.238548579583472e-13,1.1796689743450767e-14
4.996389627456665,0.23,0.11,9.72,0.0,-0.0,-0.0,0.01,-0.0,0.83,0.55,-1.8609115353683964e-14,1.238548579583472e-13,1.1796689743450767e-14
4.996816396713257,0.23,0.11,9.72,-0.0,-0.0,-0.0,0.01,-0.0,0.83,0.55,-1.8609115353683964e-14,1.238548579583472e-13,1.1796689743450767e-14
4.997206211090088,0.23,0.11,9.72,-0.0,-0.0,-0.0,0.01,-0.0,0.83,0.55,-1.8609115353683964e-14,1.238548579583472e-13,1.1796689743450767e-14
4.9975810050964355,0.23,0.11,9.72,0.0,-0.0,-0.0,0.01,-0.0,0.83,0.55,-1.8609115353683964e-14,1.238548579583472e-13,1.1796689743450767e-14
4.9979729652404785,0.23,0.11,9.72,0.0,-0.0,-0.0,0.01,-0.0,0.83,0.55,-1.8609115353683964e-14,1.238548579583472e-13,1.1796689743450767e-14
4.998347759246826,0.23,0.11,9.72,0.0,0.0,0.0,0.01,-0.0,0.83,0.55,-1.8609115353683964e-14,1.238548579583472e-13,1.1796689743450767e-14
5.062366485595703,0.23,0.11,9.72,0.0,0.0,0.0,0.01,-0.0,0.83,0.55,-1.8609115353683964e-14,1.238548579583472e-13,1.1796689743450767e-14
5.063129663467407,0.23,0.11,9.72,0.0,0.0,0.01,0.01,-0.0,0.83,0.55,-1.8609115353683964e-14,1.238548579583472e-13,1.1796689743450767e-14
5.063821315765381,0.23,0.11,9.72,0.0,0.0,0.01,0.01,-0.0,0.83,0.55,-1.8609115353683964e-14,1.238548579583472e-13,1.1796689743450767e-14
5.064411401748657,0.23,0.11,9.72,0.0,-0.0,0.0,0.01,-0.0,0.83,0.55,-1.8609115353683964e-14,1.238548579583472e-13,1.1796689743450767e-14
5.064889430999756,0.23,0.11,9.72,0.0,-0.0,0.0,0.01,-0.0,0.83,0.55,-1.8609115353683964e-14,1.238548579583472e-13,1.1796689743450767e-14
5.0653603076934814,0.23,0.11,9.72,0.0,0.0,0.0,0.01,-0.0,0.83,0.55,-1.8609115353683964e-14,1.238548579583472e-13,1.1796689743450767e-14
5.065847396850586,0.23,0.11,9.72,0.0,0.0,0.0,0.01,-0.0,0.83,0.55,-1.8609115353683964e-14,1.238548579583472e-13,1.1796689743450767e-14
5.066281318664551,0.23,0.11,9.76,0.0,0.0,0.0,0.01,-0.0,0.83,0.55,-1.8609115353683964e-14,1.238548579583472e-13,1.1796689743450767e-14
5.066795587539673,0.23,0.11,9.76,0.0,0.0,0.0,0.01,-0.0,0.83,0.55,-1.8609115353683964e-14,1.238548579583472e-13,1.1796689743450767e-14
5.067347288131714,0.23,0.11,9.76,0.0,-0.01,-0.0,0.01,-0.0,0.83,0.55,-1.8609115353683964e-14,1.238548579583472e-13,1.1796689743450767e-14
5.067777395248413,0.23,0.11,9.76,0.0,-0.01,-0.0,0.01,-0.0,0.83,0.55,-1.8609115353683964e-14,1.238548579583472e-13,1.1796689743450767e-14
5.068204641342163,0.23,0.11,9.76,-0.0,-0.0,-0.01,0.01,-0.0,0.83,0.55,-1.8609115353683964e-14,1.238548579583472e-13,1.1796689743450767e-14
5.068624973297119,0.23,0.11,9.76,-0.0,-0.0,-0.01,0.01,-0.0,0.83,0.55,-1.8609115353683964e-14,1.238548579583472e-13,1.1796689743450767e-14
5.06908392906189,0.23,0.11,9.76,-0.01,0.0,0.0,0.01,-0.0,0.83,0.55,-1.8609115353683964e-14,1.238548579583472e-13,1.1796689743450767e-14
5.069552659988403,0.23,0.11,9.76,-0.01,0.0,0.0,0.01,-0.0,0.83,0.55,-1.8609115353683964e-14,1.238548579583472e-13,1.1796689743450767e-14
5.132596731185913,0.23,0.11,9.76,0.0,0.0,-0.0,0.01,-0.0,0.83,0.55,-1.8609115353683964e-14,1.238548579583472e-13,1.1796689743450767e-14
5.13328742980957,0.23,0.11,9.76,0.0,0.0,-0.0,0.01,-0.0,0.83,0.55,-1.8609115353683964e-14,1.238548579583472e-13,1.1796689743450767e-14
5.133803844451904,0.23,0.15,9.76,0.0,0.0,-0.0,0.01,-0.0,0.83,0.55,-1.8609115353683964e-14,1.238548579583472e-13,1.1796689743450767e-14
5.134249210357666,0.23,0.15,9.76,0.0,-0.0,-0.0,0.01,-0.0,0.83,0.55,-1.8609115353683964e-14,1.238548579583472e-13,1.1796689743450767e-14
5.134803533554077,0.23,0.15,9.76,0.0,-0.0,-0.0,0.01,-0.0,0.83,0.55,-1.8609115353683964e-14,1.238548579583472e-13,1.1796689743450767e-14
5.135387897491455,0.23,0.15,9.76,0.0,-0.0,-0.0,0.01,-0.0,0.83,0.55,-1.8609115353683964e-14,1.238548579583472e-13,1.1796689743450767e-14
5.136081695556641,0.23,0.15,9.76,0.0,0.0,0.0,0.01,-0.0,0.83,0.55,-1.8609115353683964e-14,1.238548579583472e-13,1.1796689743450767e-14
5.136719226837158,0.23,0.15,9.76,0.0,0.0,0.0,0.01,-0.0,0.83,0.55,-1.8609115353683964e-14,1.238548579583472e-13,1.1796689743450767e-14
5.137395143508911,0.23,0.15,9.76,0.01,0.0,-0.0,0.01,-0.0,0.83,0.55,-1.8609115353683964e-14,1.238548579583472e-13,1.1796689743450767e-14
5.138067722320557,0.23,0.15,9.76,0.01,0.0,-0.0,0.01,-0.0,0.83,0.55,-1.8609115353683964e-14,1.238548579583472e-13,1.1796689743450767e-14
5.138600587844849,0.23,0.15,9.76,0.0,0.0,-0.0,0.01,-0.0,0.83,0.55,-1.8609115353683964e-14,1.238548579583472e-13,1.1796689743450767e-14
5.139267444610596,0.23,0.15,9.76,0.0,0.0,-0.0,0.01,-0.0,0.83,0.55,-1.8609115353683964e-14,1.238548579583472e-13,1.1796689743450767e-14
5.139986038208008,0.23,0.15,9.76,0.0,0.0,-0.0,0.01,-0.0,0.83,0.55,-1.8609115353683964e-14,1.238548579583472e-13,1.1796689743450767e-14
5.140794992446899,0.23,0.15,9.76,0.0,0.0,-0.0,0.01,-0.0,0.83,0.55,-1.8609115353683964e-14,1.238548579583472e-13,1.1796689743450767e-14
5.141550540924072,0.19,-0.0,9.8,0.0,0.0,-0.0,0.01,-0.0,0.83,0.55,-1.8609115353683964e-14,1.238548579583472e-13,1.1796689743450767e-14
5.142256736755371,0.19,-0.0,9.8,0.0,0.0,0.0,0.01,-0.0,0.83,0.55,-1.8609115353683964e-14,1.238548579583472e-13,1.1796689743450767e-14
5.20854640007019,0.19,-0.0,9.8,0.0,0.0,0.0,0.01,-0.0,0.83,0.55,-1.8609115353683964e-14,1.238548579583472e-13,1.1796689743450767e-14
5.209981679916382,0.19,-0.0,9.8,0.0,0.0,0.0,0.01,-0.0,0.83,0.55,-1.8609115353683964e-14,1.238548579583472e-13,1.1796689743450767e-14
5.211139917373657,0.19,-0.0,9.8,-0.0,0.0,-0.01,0.01,-0.0,0.83,0.55,-1.8609115353683964e-14,1.238548579583472e-13,1.1796689743450767e-14
5.211829423904419,0.19,-0.0,9.8,-0.0,0.0,-0.01,0.01,-0.0,0.83,0.55,-1.8609115353683964e-14,1.238548579583472e-13,1.1796689743450767e-14
5.212490081787109,0.19,-0.0,9.8,0.0,-0.0,-0.01,0.01,-0.0,0.83,0.55,-1.8609115353683964e-14,1.238548579583472e-13,1.1796689743450767e-14
5.213651895523071,0.19,-0.0,9.8,0.0,-0.0,-0.01,0.01,-0.0,0.83,0.55,-1.8609115353683964e-14,1.238548579583472e-13,1.1796689743450767e-14
5.21489143371582,0.19,-0.0,9.8,-0.0,-0.0,0.0,0.01,-0.0,0.83,0.55,-1.8609115353683964e-14,1.238548579583472e-13,1.1796689743450767e-14
5.215790510177612,0.19,-0.0,9.8,-0.0,-0.0,0.0,0.01,-0.0,0.83,0.55,-1.8609115353683964e-14,1.238548579583472e-13,1.1796689743450767e-14
5.216811656951904,0.23,0.04,9.76,-0.0,-0.0,0.0,0.01,-0.0,0.83,0.55,-1.8609115353683964e-14,1.238548579583472e-13,1.1796689743450767e-14
5.217737436294556,0.23,0.04,9.76,0.0,0.0,-0.01,0.01,-0.0,0.83,0.55,-1.8609115353683964e-14,1.238548579583472e-13,1.1796689743450767e-14
5.218576669692993,0.23,0.04,9.76,0.0,0.0,-0.01,0.01,-0.0,0.83,0.55,-1.8609115353683964e-14,1.238548579583472e-13,1.1796689743450767e-14
5.219250679016113,0.23,0.04,9.76,0.0,0.0,-0.01,0.01,-0.0,0.83,0.55,-1.8609115353683964e-14,1.238548579583472e-13,1.1796689743450767e-14
5.219963073730469,0.23,0.04,9.76,0.0,-0.0,0.0,0.01,-0.0,0.83,0.55,-1.8609115353683964e-14,1.238548579583472e-13,1.1796689743450767e-14
5.220712661743164,0.23,0.04,9.76,0.0,-0.0,0.0,0.01,-0.0,0.83,0.55,-1.8609115353683964e-14,1.238548579583472e-13,1.1796689743450767e-14
5.221388101577759,0.23,0.04,9.76,0.0,0.0,0.0,0.01,-0.0,0.83,0.55,-1.8609115353683964e-14,1.238548579583472e-13,1.1796689743450767e-14
5.222063302993774,0.23,0.04,9.76,0.0,0.0,0.0,0.01,-0.0,0.83,0.55,-1.8609115353683964e-14,1.238548579583472e-13,1.1796689743450767e-14
5.313187599182129,0.23,0.04,9.76,0.0,0.0,0.0,0.01,-0.0,0.83,0.55,-1.8609115353683964e-14,1.238548579583472e-13,1.1796689743450767e-14
5.314117193222046,0.23,0.04,9.76,0.0,0.0,0.0,0.01,-0.0,0.83,0.55,-1.8609115353683964e-14,1.238548579583472e-13,1.1796689743450767e-14
5.314666748046875,0.27,0.11,9.84,0.0,0.0,0.0,0.01,-0.0,0.83,0.55,-1.8609115353683964e-14,1.238548579583472e-13,1.1796689743450767e-14
5.315170764923096,0.27,0.11,9.84,0.0,0.0,0.0,0.01,-0.0,0.83,0.55,-1.8609115353683964e-14,1.238548579583472e-13,1.1796689743450767e-14
5.315588474273682,0.27,0.11,9.84,-0.0,0.0,-0.01,0.01,-0.0,0.83,0.55,-1.8609115353683964e-14,1.238548579583472e-13,1.1796689743450767e-14
5.316004991531372,0.27,0.11,9.84,-0.0,0.0,-0.01,0.01,-0.0,0.83,0.55,-1.8609115353683964e-14,1.238548579583472e-13,1.1796689743450767e-14
5.316448211669922,0.27,0.11,9.84,-0.0,-0.0,0.0,0.01,-0.0,0.83,0.55,-1.8609115353683964e-14,1.238548579583472e-13,1.1796689743450767e-14
5.317115068435669,0.27,0.11,9.84,-0.0,-0.0,0.0,0.01,-0.0,0.83,0.55,-1.8609115353683964e-14,1.238548579583472e-13,1.1796689743450767e-14
5.317821264266968,0.27,0.11,9.84,0.01,0.0,0.0,0.01,-0.0,0.83,0.55,-1.8609115353683964e-14,1.238548579583472e-13,1.1796689743450767e-14
5.3185975551605225,0.27,0.11,9.84,0.01,0.0,0.0,0.01,-0.0,0.83,0.55,-1.8609115353683964e-14,1.238548579583472e-13,1.1796689743450767e-14
5.319332599639893,0.27,0.07,9.84,0.01,0.0,0.0,0.01,-0.0,0.83,0.55,-1.8609115353683964e-14,1.238548579583472e-13,1.1796689743450767e-14
5.320008277893066,0.27,0.07,9.84,0.01,0.0,0.0,0.01,-0.0,0.83,0.55,-1.8609115353683964e-14,1.238548579583472e-13,1.1796689743450767e-14
5.320701599121094,0.27,0.07,9.84,0.01,0.0,0.0,0.01,-0.0,0.83,0.55,-1.8609115353683964e-14,1.238548579583472e-13,1.1796689743450767e-14
5.32138991355896,0.27,0.07,9.84,0.01,0.0,0.0,0.01,-0.0,0.83,0.55,-1.8609115353683964e-14,1.238548579583472e-13,1.1796689743450767e-14
5.321958065032959,0.27,0.07,9.84,-0.0,-0.0,0.0,0.01,-0.0,0.83,0.55,-1.8609115353683964e-14,1.238548579583472e-13,1.1796689743450767e-14
5.322503566741943,0.27,0.07,9.84,-0.0,-0.0,0.0,0.01,-0.0,0.83,0.55,-1.8609115353683964e-14,1.238548579583472e-13,1.1796689743450767e-14
5.322974681854248,0.27,0.07,9.84,-0.01,0.0,-0.0,0.01,-0.0,0.83,0.55,-1.8609115353683964e-14,1.238548579583472e-13,1.1796689743450767e-14
5.323425054550171,0.27,0.07,9.84,-0.01,0.0,-0.0,0.01,-0.0,0.83,0.55,-1.8609115353683964e-14,1.238548579583472e-13,1.1796689743450767e-14
5.323920249938965,0.27,0.07,9.84,0.01,-0.0,0.0,0.01,-0.0,0.83,0.55,-1.8609115353683964e-14,1.238548579583472e-13,1.1796689743450767e-14
5.324392318725586,0.27,0.07,9.84,0.01,-0.0,0.0,0.01,-0.0,0.83,0.55,-1.8609115353683964e-14,1.238548579583472e-13,1.1796689743450767e-14
5.324862718582153,0.19,0.07,9.8,0.01,-0.0,0.0,0.01,-0.0,0.83,0.55,-1.8609115353683964e-14,1.238548579583472e-13,1.1796689743450767e-14
5.325483798980713,0.19,0.07,9.8,0.0,-0.0,0.0,0.01,-0.0,0.83,0.55,-1.8609115353683964e-14,1.238548579583472e-13,1.1796689743450767e-14
5.326030015945435,0.19,0.07,9.8,0.0,-0.0,0.0,0.01,-0.0,0.83,0.55,-1.8609115353683964e-14,1.238548579583472e-13,1.1796689743450767e-14
5.326512336730957,0.19,0.07,9.8,0.0,-0.0,0.0,0.01,-0.0,0.83,0.55,-1.8609115353683964e-14,1.238548579583472e-13,1.1796689743450767e-14
5.409085512161255,0.19,0.07,9.8,0.0,0.0,0.0,0.01,-0.0,0.83,0.55,-1.8609115353683964e-14,1.238548579583472e-13,1.1796689743450767e-14
5.409988164901733,0.19,0.07,9.8,0.0,0.0,0.0,0.01,-0.0,0.83,0.55,-1.8609115353683964e-14,1.238548579583472e-13,1.1796689743450767e-14
5.410529851913452,0.19,0.07,9.8,-0.0,-0.0,0.0,0.01,-0.0,0.83,0.55,-1.8609115353683964e-14,1.238548579583472e-13,1.1796689743450767e-14
5.411027908325195,0.19,0.07,9.8,-0.0,-0.0,0.0,0.01,-0.0,0.83,0.55,-1.8609115353683964e-14,1.238548579583472e-13,1.1796689743450767e-14
5.411473274230957,0.23,0.07,9.76,-0.0,-0.0,0.0,0.01,-0.0,0.83,0.55,-1.8609115353683964e-14,1.238548579583472e-13,1.1796689743450767e-14
5.4118971824646,0.23,0.07,9.76,-0.0,-0.0,0.0,0.01,-0.0,0.83,0.55,-1.8609115353683964e-14,1.238548579583472e-13,1.1796689743450767e-14
5.412367105484009,0.23,0.07,9.76,-0.0,-0.01,-0.0,0.01,-0.0,0.83,0.55,-1.8609115353683964e-14,1.238548579583472e-13,1.1796689743450767e-14
5.412808895111084,0.23,0.07,9.76,-0.0,-0.01,-0.0,0.01,-0.0,0.83,0.55,-1.8609115353683964e-14,1.238548579583472e-13,1.1796689743450767e-14
5.413256406784058,0.23,0.07,9.76,0.0,-0.0,-0.0,0.01,-0.0,0.83,0.55,-1.8609115353683964e-14,1.238548579583472e-13,1.1796689743450767e-14
5.413685321807861,0.23,0.07,9.76,0.0,-0.0,-0.0,0.01,-0.0,0.83,0.55,-1.8609115353683964e-14,1.238548579583472e-13,1.1796689743450767e-14
5.414165019989014,0.23,0.07,9.76,0.0,0.0,0.0,0.01,-0.0,0.83,0.55,-1.8609115353683964e-14,1.238548579583472e-13,1.1796689743450767e-14
5.414671897888184,0.23,0.07,9.76,0.0,0.0,0.0,0.01,-0.0,0.83,0.55,-1.8609115353683964e-14,1.238548579583472e-13,1.1796689743450767e-14
5.415100336074829,0.23,0.07,9.76,0.0,0.0,-0.01,0.01,-0.0,0.83,0.55,-1.8609115353683964e-14,1.238548579583472e-13,1.1796689743450767e-14
5.415528059005737,0.23,0.07,9.76,0.0,0.0,-0.01,0.01,-0.0,0.83,0.55,-1.8609115353683964e-14,1.238548579583472e-13,1.1796689743450767e-14
5.4159605503082275,0.15,0.04,9.72,0.0,0.0,-0.01,0.01,-0.0,0.83,0.55,-1.8609115353683964e-14,1.238548579583472e-13,1.1796689743450767e-14
5.416382789611816,0.15,0.04,9.72,-0.0,0.0,0.0,0.01,-0.0,0.83,0.55,-1.8609115353683964e-14,1.238548579583472e-13,1.1796689743450767e-14
5.417074680328369,0.15,0.04,9.72,-0.0,0.0,0.0,0.01,-0.0,0.83,0.55,-1.8609115353683964e-14,1.238548579583472e-13,1.1796689743450767e-14
5.417769193649292,0.15,0.04,9.72,-0.0,0.0,0.0,0.01,-0.0,0.83,0.55,-1.8609115353683964e-14,1.238548579583472e-13,1.1796689743450767e-14
5.418441534042358,0.15,0.04,9.72,-0.0,0.0,0.0,0.01,-0.0,0.83,0.55,-1.8609115353683964e-14,1.238548579583472e-13,1.1796689743450767e-14
5.418943881988525,0.15,0.04,9.72,-0.0,0.0,0.0,0.01,-0.0,0.83,0.55,-1.8609115353683964e-14,1.238548579583472e-13,1.1796689743450767e-14
5.48729681968689,0.15,0.04,9.72,0.0,0.0,0.0,0.01,-0.0,0.83,0.55,-1.8609115353683964e-14,1.238548579583472e-13,1.1796689743450767e-14
5.488046169281006,0.15,0.04,9.72,0.0,0.0,0.0,0.01,-0.0,0.83,0.55,-1.8609115353683964e-14,1.238548579583472e-13,1.1796689743450767e-14
5.488563537597656,0.3,0.11,9.76,0.0,0.0,0.0,0.01,-0.0,0.83,0.55,-1.8609115353683964e-14,1.238548579583472e-13,1.1796689743450767e-14
5.488984823226929,0.3,0.11,9.76,0.0,0.0,0.0,0.01,-0.0,0.83,0.55,-1.8609115353683964e-14,1.238548579583472e-13,1.1796689743450767e-14
5.489434480667114,0.3,0.11,9.76,0.0,0.0,0.0,0.01,-0.0,0.83,0.55,-1.8609115353683964e-14,1.238548579583472e-13,1.1796689743450767e-14
5.489837646484375,0.3,0.11,9.76,0.0,0.0,0.0,0.01,-0.0,0.83,0.55,-1.8609115353683964e-14,1.238548579583472e-13,1.1796689743450767e-14
5.490234851837158,0.3,0.11,9.76,0.0,0.0,0.0,0.01,-0.0,0.83,0.55,-1.8609115353683964e-14,1.238548579583472e-13,1.1796689743450767e-14
5.490673542022705,0.3,0.11,9.76,0.0,0.0,0.0,0.01,-0.0,0.83,0.55,-1.8609115353683964e-14,1.238548579583472e-13,1.1796689743450767e-14
5.49107813835144,0.3,0.11,9.76,0.0,-0.0,0.0,0.01,-0.0,0.83,0.55,-1.8609115353683964e-14,1.238548579583472e-13,1.1796689743450767e-14
5.491569995880127,0.3,0.11,9.76,0.0,-0.0,0.0,0.01,-0.0,0.83,0.55,-1.8609115353683964e-14,1.238548579583472e-13,1.1796689743450767e-14
5.492047548294067,0.3,0.11,9.76,0.0,0.0,0.0,0.01,-0.0,0.83,0.55,-1.8609115353683964e-14,1.238548579583472e-13,1.1796689743450767e-14
5.492485046386719,0.3,0.11,9.76,0.0,0.0,0.0,0.01,-0.0,0.83,0.55,-1.8609115353683964e-14,1.238548579583472e-13,1.1796689743450767e-14
5.492890119552612,0.27,-0.04,9.88,0.0,0.0,0.0,0.01,-0.0,0.83,0.55,-1.8609115353683964e-14,1.238548579583472e-13,1.1796689743450767e-14
5.558766603469849,0.27,-0.04,9.88,0.0,0.0,0.0,0.01,-0.0,0.83,0.55,-1.8609115353683964e-14,1.238548579583472e-13,1.1796689743450767e-14
5.5594542026519775,0.27,-0.04,9.88,0.0,0.01,0.0,0.01,-0.0,0.83,0.55,-1.8609115353683964e-14,1.238548579583472e-13,1.1796689743450767e-14
5.559954643249512,0.27,-0.04,9.88,0.0,0.01,0.0,0.01,-0.0,0.83,0.55,-1.8609115353683964e-14,1.238548579583472e-13,1.1796689743450767e-14
5.560399770736694,0.27,-0.04,9.88,0.0,0.01,-0.0,0.01,-0.0,0.83,0.55,-1.8609115353683964e-14,1.238548579583472e-13,1.1796689743450767e-14
5.560961961746216,0.27,-0.04,9.88,0.0,0.01,-0.0,0.01,-0.0,0.83,0.55,-1.8609115353683964e-14,1.238548579583472e-13,1.1796689743450767e-14
5.561398506164551,0.27,-0.04,9.88,0.0,-0.0,-0.0,0.01,-0.0,0.83,0.55,-1.8609115353683964e-14,1.238548579583472e-13,1.1796689743450767e-14
5.561846733093262,0.27,-0.04,9.88,0.0,-0.0,-0.0,0.01,-0.0,0.83,0.55,-1.8609115353683964e-14,1.238548579583472e-13,1.1796689743450767e-14
5.562263250350952,0.27,0.04,9.88,0.0,-0.0,-0.0,0.01,-0.0,0.83,0.55,-1.8609115353683964e-14,1.238548579583472e-13,1.1796689743450767e-14
5.562672853469849,0.27,0.04,9.88,0.0,-0.01,0.0,0.01,-0.0,0.83,0.55,-1.8609115353683964e-14,1.238548579583472e-13,1.1796689743450767e-14
5.563103914260864,0.27,0.04,9.88,0.0,-0.01,0.0,0.01,-0.0,0.83,0.55,-1.8609115353683964e-14,1.238548579583472e-13,1.1796689743450767e-14
5.56359076499939,0.27,0.04,9.88,0.0,-0.01,0.0,0.01,-0.0,0.83,0.55,-1.8609115353683964e-14,1.238548579583472e-13,1.1796689743450767e-14
5.563971281051636,0.27,0.04,9.88,-0.0,0.0,0.0,0.01,-0.0,0.83,0.55,-1.8609115353683964e-14,1.238548579583472e-13,1.1796689743450767e-14
5.564385175704956,0.27,0.04,9.88,-0.0,0.0,0.0,0.01,-0.0,0.83,0.55,-1.8609115353683964e-14,1.238548579583472e-13,1.1796689743450767e-14
5.564820051193237,0.27,0.04,9.88,-0.01,0.0,-0.0,0.01,-0.0,0.83,0.55,-1.8609115353683964e-14,1.238548579583472e-13,1.1796689743450767e-14
5.565219402313232,0.27,0.04,9.88,-0.01,0.0,-0.0,0.01,-0.0,0.83,0.55,-1.8609115353683964e-14,1.238548579583472e-13,1.1796689743450767e-14
5.565785884857178,0.27,0.04,9.88,-0.0,0.0,0.0,0.01,-0.0,0.83,0.55,-1.8609115353683964e-14,1.238548579583472e-13,1.1796689743450767e-14
5.566269636154175,0.27,0.04,9.88,-0.0,0.0,0.0,0.01,-0.0,0.83,0.55,-1.8609115353683964e-14,1.238548579583472e-13,1.1796689743450767e-14
5.566786289215088,0.27,0.04,9.88,0.0,-0.0,0.0,0.01,-0.0,0.83,0.55,-1.8609115353683964e-14,1.238548579583472e-13,1.1796689743450767e-14
5.567360162734985,0.27,0.04,9.88,0.0,-0.0,0.0,0.01,-0.0,0.83,0.55,-1.8609115353683964e-14,1.238548579583472e-13,1.1796689743450767e-14
5.6274659633636475,0.19,0.11,9.76,0.0,-0.0,0.0,0.01,-0.0,0.83,0.55,-1.8609115353683964e-14,1.238548579583472e-13,1.1796689743450767e-14
5.628261566162109,0.19,0.11,9.76,0.0,-0.0,0.0,0.01,-0.0,0.83,0.55,-1.8609115353683964e-14,1.238548579583472e-13,1.1796689743450767e-14
5.6288979053497314,0.19,0.11,9.76,0.0,0.0,0.01,0.01,-0.0,0.83,0.55,-1.8609115353683964e-14,1.238548579583472e-13,1.1796689743450767e-14
5.629322290420532,0.19,0.11,9.76,0.0,0.0,0.01,0.01,-0.0,0.83,0.55,-1.8609115353683964e-14,1.238548579583472e-13,1.1796689743450767e-14
5.629773378372192,0.19,0.11,9.76,-0.0,0.0,0.01,0.01,-0.0,0.83,0.55,-1.8609115353683964e-14,1.238548579583472e-13,1.1796689743450767e-14
5.630249738693237,0.19,0.11,9.76,-0.0,0.0,0.01,0.01,-0.0,0.83,0.55,-1.8609115353683964e-14,1.238548579583472e-13,1.1796689743450767e-14
5.630696535110474,0.19,0.11,9.76,0.0,0.0,0.0,0.01,-0.0,0.83,0.55,-1.8609115353683964e-14,1.238548579583472e-13,1.1796689743450767e-14
5.6310834884643555,0.19,0.11,9.76,0.0,0.0,0.0,0.01,-0.0,0.83,0.55,-1.8609115353683964e-14,1.238548579583472e-13,1.1796689743450767e-14
5.631518840789795,0.19,0.11,9.76,0.0,0.0,0.0,0.01,-0.0,0.83,0.55,-1.8609115353683964e-14,1.238548579583472e-13,1.1796689743450767e-14
5.631899833679199,0.19,0.11,9.76,0.0,0.0,0.0,0.01,-0.0,0.83,0.55,-1.8609115353683964e-14,1.238548579583472e-13,1.1796689743450767e-14
5.632307052612305,0.27,-0.0,9.88,0.0,0.0,0.0,0.01,-0.0,0.83,0.55,-1.8609115353683964e-14,1.238548579583472e-13,1.1796689743450767e-14
5.63274073600769,0.27,-0.0,9.88,0.0,0.0,0.0,0.01,-0.0,0.83,0.55,-1.8609115353683964e-14,1.238548579583472e-13,1.1796689743450767e-14
5.63312292098999,0.27,-0.0,9.88,0.0,-0.0,-0.0,0.01,-0.0,0.83,0.55,-1.8609115353683964e-14,1.238548579583472e-13,1.1796689743450767e-14
5.633533000946045,0.27,-0.0,9.88,0.0,-0.0,-0.0,0.01,-0.0,0.83,0.55,-1.8609115353683964e-14,1.238548579583472e-13,1.1796689743450767e-14
5.6990625858306885,0.27,-0.0,9.88,0.0,-0.0,0.0,0.01,-0.0,0.83,0.55,-1.8609115353683964e-14,1.238548579583472e-13,1.1796689743450767e-14
5.699846982955933,0.27,-0.0,9.88,0.0,-0.0,0.0,0.01,-0.0,0.83,0.55,-1.8609115353683964e-14,1.238548579583472e-13,1.1796689743450767e-14
5.700347423553467,0.27,-0.0,9.88,-0.0,-0.01,-0.0,0.01,-0.0,0.83,0.55,-1.8609115353683964e-14,1.238548579583472e-13,1.1796689743450767e-14
5.7007410526275635,0.27,-0.0,9.88,-0.0,-0.01,-0.0,0.01,-0.0,0.83,0.55,-1.8609115353683964e-14,1.238548579583472e-13,1.1796689743450767e-14
5.701205492019653,0.27,-0.0,9.88,0.0,-0.0,0.0,0.01,-0.0,0.83,0.55,-1.8609115353683964e-14,1.238548579583472e-13,1.1796689743450767e-14
5.7016613483428955,0.27,-0.0,9.88,0.0,-0.0,0.0,0.01,-0.0,0.83,0.55,-1.8609115353683964e-14,1.238548579583472e-13,1.1796689743450767e-14
5.702099800109863,0.27,-0.0,9.88,0.0,0.0,0.0,0.01,-0.0,0.83,0.55,-1.8609115353683964e-14,1.238548579583472e-13,1.1796689743450767e-14
5.702505588531494,0.27,-0.0,9.88,0.0,0.0,0.0,0.01,-0.0,0.83,0.55,-1.8609115353683964e-14,1.238548579583472e-13,1.1796689743450767e-14
5.702953577041626,0.27,0.04,9.8,0.0,0.0,0.0,0.01,-0.0,0.83,0.55,-1.8609115353683964e-14,1.238548579583472e-13,1.1796689743450767e-14
5.703346252441406,0.27,0.04,9.8,0.0,0.0,0.0,0.01,-0.0,0.83,0.55,-1.8609115353683964e-14,1.238548579583472e-13,1.1796689743450767e-14
5.703720808029175,0.27,0.04,9.8,-0.0,0.0,-0.01,0.01,-0.0,0.83,0.55,-1.8609115353683964e-14,1.238548579583472e-13,1.1796689743450767e-14
5.767578840255737,0.27,0.04,9.8,-0.0,0.0,-0.01,0.01,-0.0,0.83,0.55,-1.8609115353683964e-14,1.238548579583472e-13,1.1796689743450767e-14
5.768328666687012,0.27,0.04,9.8,0.0,0.0,-0.0,0.01,-0.0,0.83,0.55,-1.8609115353683964e-14,1.238548579583472e-13,1.1796689743450767e-14
5.7688634395599365,0.27,0.04,9.8,0.0,0.0,-0.0,0.01,-0.0,0.83,0.55,-1.8609115353683964e-14,1.238548579583472e-13,1.1796689743450767e-14
5.769408702850342,0.27,0.04,9.8,-0.0,0.0,0.01,0.01,-0.0,0.83,0.55,-1.8609115353683964e-14,1.238548579583472e-13,1.1796689743450767e-14
5.769906520843506,0.27,0.04,9.8,-0.0,0.0,0.01,0.01,-0.0,0.83,0.55,-1.8609115353683964e-14,1.238548579583472e-13,1.1796689743450767e-14
5.770362615585327,0.27,0.04,9.8,-0.0,0.0,0.0,0.01,-0.0,0.83,0.55,-1.8609115353683964e-14,1.238548579583472e-13,1.1796689743450767e-14
5.770840883255005,0.27,0.04,9.8,-0.0,0.0,0.0,0.01,-0.0,0.83,0.55,-1.8609115353683964e-14,1.238548579583472e-13,1.1796689743450767e-14
5.771656513214111,0.19,0.04,9.8,-0.0,0.0,0.0,0.01,-0.0,0.83,0.55,-1.8609115353683964e-14,1.238548579583472e-13,1.1796689743450767e-14
5.772279262542725,0.19,0.04,9.8,-0.0,-0.01,-0.0,0.01,-0.0,0.83,0.55,-1.8609115353683964e-14,1.238548579583472e-13,1.1796689743450767e-14
5.772866249084473,0.19,0.04,9.8,-0.0,-0.01,-0.0,0.01,-0.0,0.83,0.55,-1.8609115353683964e-14,1.238548579583472e-13,1.1796689743450767e-14
5.77333927154541,0.19,0.04,9.8,-0.0,-0.01,-0.0,0.01,-0.0,0.83,0.55,-1.8609115353683964e-14,1.238548579583472e-13,1.1796689743450767e-14
5.773751735687256,0.19,0.04,9.8,0.0,-0.0,0.0,0.01,-0.0,0.83,0.55,-1.8609115353683964e-14,1.238548579583472e-13,1.1796689743450767e-14
5.774159669876099,0.19,0.04,9.8,0.0,-0.0,0.0,0.01,-0.0,0.83,0.55,-1.8609115353683964e-14,1.238548579583472e-13,1.1796689743450767e-14
5.774612188339233,0.19,0.04,9.8,0.01,-0.0,0.0,0.01,-0.0,0.83,0.55,-1.8609115353683964e-14,1.238548579583472e-13,1.1796689743450767e-14
5.775017738342285,0.19,0.04,9.8,0.01,-0.0,0.0,0.01,-0.0,0.83,0.55,-1.8609115353683964e-14,1.238548579583472e-13,1.1796689743450767e-14
5.775599241256714,0.19,0.04,9.8,0.0,0.0,0.0,0.01,-0.0,0.83,0.55,-1.8609115353683964e-14,1.238548579583472e-13,1.1796689743450767e-14
5.776010751724243,0.19,0.04,9.8,0.0,0.0,0.0,0.01,-0.0,0.83,0.55,-1.8609115353683964e-14,1.238548579583472e-13,1.1796689743450767e-14
5.7765421867370605,0.27,0.11,9.76,0.0,0.0,0.0,0.01,-0.0,0.83,0.55,-1.8609115353683964e-14,1.238548579583472e-13,1.1796689743450767e-14
5.77698540687561,0.27,0.11,9.76,0.0,0.0,0.0,0.01,-0.0,0.83,0.55,-1.8609115353683964e-14,1.238548579583472e-13,1.1796689743450767e-14
5.841832637786865,0.27,0.11,9.76,0.0,0.0,0.0,0.01,-0.0,0.83,0.55,-1.8609115353683964e-14,1.238548579583472e-13,1.1796689743450767e-14
5.842626571655273,0.27,0.11,9.76,0.0,0.0,0.0,0.01,-0.0,0.83,0.55,-1.8609115353683964e-14,1.238548579583472e-13,1.1796689743450767e-14
5.8432652950286865,0.27,0.11,9.76,0.0,0.0,0.0,0.01,-0.0,0.83,0.55,-1.8609115353683964e-14,1.238548579583472e-13,1.1796689743450767e-14
5.843756914138794,0.27,0.11,9.76,0.0,0.0,0.0,0.01,-0.0,0.83,0.55,-1.8609115353683964e-14,1.238548579583472e-13,1.1796689743450767e-14
5.844176292419434,0.27,0.11,9.76,0.0,0.0,0.01,0.01,-0.0,0.83,0.55,-1.8609115353683964e-14,1.238548579583472e-13,1.1796689743450767e-14
5.844683408737183,0.27,0.11,9.76,0.0,0.0,0.01,0.01,-0.0,0.83,0.55,-1.8609115353683964e-14,1.238548579583472e-13,1.1796689743450767e-14
5.845098495483398,0.27,0.11,9.76,0.0,0.0,0.0,0.01,-0.0,0.83,0.55,-1.8609115353683964e-14,1.238548579583472e-13,1.1796689743450767e-14
5.845630407333374,0.27,0.11,9.76,0.0,0.0,0.0,0.01,-0.0,0.83,0.55,-1.8609115353683964e-14,1.238548579583472e-13,1.1796689743450767e-14
5.846024513244629,0.27,0.11,9.76,0.0,0.0,0.0,0.01,-0.0,0.83,0.55,-1.8609115353683964e-14,1.238548579583472e-13,1.1796689743450767e-14
5.8464460372924805,0.27,0.11,9.76,0.0,0.0,0.0,0.01,-0.0,0.83,0.55,-1.8609115353683964e-14,1.238548579583472e-13,1.1796689743450767e-14
5.8468592166900635,0.27,0.11,9.76,0.0,0.0,0.0,0.01,-0.0,0.83,0.55,-1.8609115353683964e-14,1.238548579583472e-13,1.1796689743450767e-14
5.847244024276733,0.27,0.11,9.76,0.0,0.0,0.0,0.01,-0.0,0.83,0.55,-1.8609115353683964e-14,1.238548579583472e-13,1.1796689743450767e-14
5.847615957260132,0.19,0.04,9.8,0.0,0.0,0.0,0.01,-0.0,0.83,0.55,-1.8609115353683964e-14,1.238548579583472e-13,1.1796689743450767e-14
5.848016738891602,0.19,0.04,9.8,0.0,0.0,0.0,0.01,-0.0,0.83,0.55,-1.8609115353683964e-14,1.238548579583472e-13,1.1796689743450767e-14
5.916006803512573,0.19,0.04,9.8,0.0,0.0,0.0,0.01,-0.0,0.83,0.55,-1.8609115353683964e-14,1.238548579583472e-13,1.1796689743450767e-14
5.916762351989746,0.19,0.04,9.8,0.0,0.0,0.0,0.01,-0.0,0.83,0.55,-1.8609115353683964e-14,1.238548579583472e-13,1.1796689743450767e-14
5.91727089881897,0.19,0.04,9.8,0.0,0.0,0.0,0.01,-0.0,0.83,0.55,-1.8609115353683964e-14,1.238548579583472e-13,1.1796689743450767e-14
5.917810916900635,0.19,0.04,9.8,0.0,0.0,0.0,0.01,-0.0,0.83,0.55,-1.8609115353683964e-14,1.238548579583472e-13,1.1796689743450767e-14
5.918467998504639,0.19,0.15,9.68,0.0,0.0,0.0,0.01,-0.0,0.83,0.55,-1.8609115353683964e-14,1.238548579583472e-13,1.1796689743450767e-14
5.918973207473755,0.19,0.15,9.68,0.0,0.0,0.0,0.01,-0.0,0.83,0.55,-1.8609115353683964e-14,1.238548579583472e-13,1.1796689743450767e-14
5.9194111824035645,0.19,0.15,9.68,0.0,0.0,0.0,0.01,-0.0,0.83,0.55,-1.8609115353683964e-14,1.238548579583472e-13,1.1796689743450767e-14
5.919911861419678,0.19,0.15,9.68,0.0,0.0,0.0,0.01,-0.0,0.83,0.55,-1.8609115353683964e-14,1.238548579583472e-13,1.1796689743450767e-14
5.920316696166992,0.19,0.15,9.68,0.0,0.0,0.0,0.01,-0.0,0.83,0.55,-1.8609115353683964e-14,1.238548579583472e-13,1.1796689743450767e-14
5.9207236766815186,0.19,0.15,9.68,0.0,0.0,0.0,0.01,-0.0,0.83,0.55,-1.8609115353683964e-14,1.238548579583472e-13,1.1796689743450767e-14
5.921106576919556,0.19,0.15,9.68,0.0,0.0,0.0,0.01,-0.0,0.83,0.55,-1.8609115353683964e-14,1.238548579583472e-13,1.1796689743450767e-14
5.921487092971802,0.19,0.15,9.68,0.0,0.0,0.0,0.01,-0.0,0.83,0.55,-1.8609115353683964e-14,1.238548579583472e-13,1.1796689743450767e-14
5.921888589859009,0.19,0.15,9.68,0.0,0.0,0.0,0.01,-0.0,0.83,0.55,-1.8609115353683964e-14,1.238548579583472e-13,1.1796689743450767e-14
5.922271490097046,0.19,0.15,9.68,0.0,0.0,0.0,0.01,-0.0,0.83,0.55,-1.8609115353683964e-14,1.238548579583472e-13,1.1796689743450767e-14
5.922677516937256,0.3,-0.04,9.88,0.0,0.0,0.0,0.01,-0.0,0.83,0.55,-1.8609115353683964e-14,1.238548579583472e-13,1.1796689743450767e-14
5.981629133224487,0.3,-0.04,9.88,0.0,0.0,0.0,0.01,-0.0,0.83,0.55,-1.8609115353683964e-14,1.238548579583472e-13,1.1796689743450767e-14
5.982360601425171,0.3,-0.04,9.88,0.0,0.0,0.0,0.01,-0.0,0.83,0.55,-1.8609115353683964e-14,1.238548579583472e-13,1.1796689743450767e-14
5.982923984527588,0.3,-0.04,9.88,0.0,0.0,0.0,0.01,-0.0,0.83,0.55,-1.8609115353683964e-14,1.238548579583472e-13,1.1796689743450767e-14
5.983355760574341,0.3,-0.04,9.88,0.0,0.0,0.0,0.01,-0.0,0.83,0.55,-1.8609115353683964e-14,1.238548579583472e-13,1.1796689743450767e-14
5.983847379684448,0.3,-0.04,9.88,0.0,0.0,0.0,0.01,-0.0,0.83,0.55,-1.8609115353683964e-14,1.238548579583472e-13,1.1796689743450767e-14
5.984267711639404,0.3,-0.04,9.88,0.0,0.0,0.0,0.01,-0.0,0.83,0.55,-1.8609115353683964e-14,1.238548579583472e-13,1.1796689743450767e-14
5.984734535217285,0.3,-0.04,9.88,0.0,0.0,0.0,0.01,-0.0,0.83,0.55,-1.8609115353683964e-14,1.238548579583472e-13,1.1796689743450767e-14
5.985249996185303,0.34,0.04,9.8,0.0,0.0,0.0,0.01,-0.0,0.83,0.55,-1.8609115353683964e-14,1.238548579583472e-13,1.1796689743450767e-14
5.985747575759888,0.34,0.04,9.8,0.0,0.0,0.0,0.01,-0.0,0.83,0.55,-1.8609115353683964e-14,1.238548579583472e-13,1.1796689743450767e-14
5.986146450042725,0.34,0.04,9.8,0.0,0.0,0.0,0.01,-0.0,0.83,0.55,-1.8609115353683964e-14,1.238548579583472e-13,1.1796689743450767e-14
5.9865593910217285,0.34,0.04,9.8,0.0,0.0,0.0,0.01,-0.0,0.83,0.55,-1.8609115353683964e-14,1.238548579583472e-13,1.1796689743450767e-14
5.9869372844696045,0.34,0.04,9.8,0.0,0.0,0.0,0.01,-0.0,0.83,0.55,-1.8609115353683964e-14,1.238548579583472e-13,1.1796689743450767e-14
5.987413167953491,0.34,0.04,9.8,0.0,0.0,0.0,0.01,-0.0,0.83,0.55,-1.8609115353683964e-14,1.238548579583472e-13,1.1796689743450767e-14
5.987836599349976,0.34,0.04,9.8,0.0,0.0,0.0,0.01,-0.0,0.83,0.55,-1.8609115353683964e-14,1.238548579583472e-13,1.1796689743450767e-14
5.988230228424072,0.34,0.04,9.8,0.0,0.0,0.0,0.01,-0.0,0.83,0.55,-1.8609115353683964e-14,1.238548579583472e-13,1.1796689743450767e-14
5.9886157512664795,0.34,0.04,9.8,0.0,0.0,0.0,0.01,-0.0,0.83,0.55,-1.8609115353683964e-14,1.238548579583472e-13,1.1796689743450767e-14
5.988994121551514,0.34,0.04,9.8,0.0,0.0,0.0,0.01,-0.0,0.83,0.55,-1.8609115353683964e-14,1.238548579583472e-13,1.1796689743450767e-14
6.0811169147491455,0.27,-0.04,9.84,0.0,0.0,0.0,0.01,-0.0,0.83,0.55,-1.8609115353683964e-14,1.238548579583472e-13,1.1796689743450767e-14
6.082016468048096,0.27,-0.04,9.84,0.0,0.0,0.0,0.01,-0.0,0.83,0.55,-1.8609115353683964e-14,1.238548579583472e-13,1.1796689743450767e-14
6.0828540325164795,0.27,-0.04,9.84,0.0,0.0,0.0,0.01,-0.0,0.83,0.55,-1.8609115353683964e-14,1.238548579583472e-13,1.1796689743450767e-14
6.083481550216675,0.27,-0.04,9.84,0.0,0.0,0.0,0.01,-0.0,0.83,0.55,-1.8609115353683964e-14,1.238548579583472e-13,1.1796689743450767e-14
6.0840394496917725,0.27,-0.04,9.84,0.0,0.0,0.0,0.01,-0.0,0.83,0.55,-1.8609115353683964e-14,1.238548579583472e-13,1.1796689743450767e-14
6.084666728973389,0.27,-0.04,9.84,0.0,0.0,0.0,0.01,-0.0,0.83,0.55,-1.8609115353683964e-14,1.238548579583472e-13,1.1796689743450767e-14
6.085329055786133,0.27,-0.04,9.84,0.0,0.0,0.0,0.01,-0.0,0.83,0.55,-1.8609115353683964e-14,1.238548579583472e-13,1.1796689743450767e-14
6.08585524559021,0.27,-0.04,9.84,0.0,0.0,0.0,0.01,-0.0,0.83,0.55,-1.8609115353683964e-14,1.238548579583472e-13,1.1796689743450767e-14
6.086386680603027,0.27,-0.04,9.84,0.0,0.0,0.0,0.01,-0.0,0.83,0.55,-1.8609115353683964e-14,1.238548579583472e-13,1.1796689743450767e-14
6.086832284927368,0.27,-0.04,9.84,0.0,0.0,0.0,0.01,-0.0,0.83,0.55,-1.8609115353683964e-14,1.238548579583472e-13,1.1796689743450767e-14
6.087371349334717,0.23,0.04,9.8,0.0,0.0,0.0,0.01,-0.0,0.83,0.55,-1.8609115353683964e-14,1.238548579583472e-13,1.1796689743450767e-14
6.087974786758423,0.23,0.04,9.8,0.0,0.0,0.0,0.01,-0.0,0.83,0.55,-1.8609115353683964e-14,1.238548579583472e-13,1.1796689743450767e-14
6.088645696640015,0.23,0.04,9.8,0.0,0.0,0.0,0.01,-0.0,0.83,0.55,-1.8609115353683964e-14,1.238548579583472e-13,1.1796689743450767e-14
6.089210033416748,0.23,0.04,9.8,0.0,0.0,0.0,0.01,-0.0,0.83,0.55,-1.8609115353683964e-14,1.238548579583472e-13,1.1796689743450767e-14
6.0899693965911865,0.23,0.04,9.8,0.0,0.0,0.0,0.01,-0.0,0.83,0.55,-1.8609115353683964e-14,1.238548579583472e-13,1.1796689743450767e-14
6.0908660888671875,0.23,0.04,9.8,0.0,0.0,0.0,0.01,-0.0,0.83,0.55,-1.8609115353683964e-14,1.238548579583472e-13,1.1796689743450767e-14
6.091723680496216,0.23,0.04,9.8,0.0,0.0,0.0,0.01,-0.0,0.83,0.55,-1.8609115353683964e-14,1.238548579583472e-13,1.1796689743450767e-14
6.092500448226929,0.23,0.04,9.8,0.0,0.0,0.0,0.01,-0.0,0.83,0.55,-1.8609115353683964e-14,1.238548579583472e-13,1.1796689743450767e-14
6.093351602554321,0.23,0.04,9.8,0.0,0.0,0.0,0.01,-0.0,0.83,0.55,-1.8609115353683964e-14,1.238548579583472e-13,1.1796689743450767e-14
6.093974590301514,0.23,0.04,9.8,0.0,0.0,0.0,0.01,-0.0,0.83,0.55,-1.8609115353683964e-14,1.238548579583472e-13,1.1796689743450767e-14
6.094542741775513,0.23,0.04,9.8,0.0,0.0,0.0,0.01,-0.0,0.83,0.55,-1.8609115353683964e-14,1.238548579583472e-13,1.1796689743450767e-14
6.173478841781616,0.23,0.04,9.8,0.0,0.0,0.0,0.01,-0.0,0.83,0.55,-1.8609115353683964e-14,1.238548579583472e-13,1.1796689743450767e-14
6.174290418624878,0.23,0.07,9.76,0.0,0.0,0.0,0.01,-0.0,0.83,0.55,-1.8609115353683964e-14,1.238548579583472e-13,1.1796689743450767e-14
6.174982786178589,0.23,0.07,9.76,0.0,0.0,0.0,0.01,-0.0,0.83,0.55,-1.8609115353683964e-14,1.238548579583472e-13,1.1796689743450767e-14
6.175540924072266,0.23,0.07,9.76,0.0,0.0,0.0,0.01,-0.0,0.83,0.55,-1.8609115353683964e-14,1.238548579583472e-13,1.1796689743450767e-14
6.176093816757202,0.23,0.07,9.76,0.0,0.0,0.0,0.01,-0.0,0.83,0.55,-1.8609115353683964e-14,1.238548579583472e-13,1.1796689743450767e-14
6.1767802238464355,0.23,0.07,9.76,0.0,0.0,0.0,0.01,-0.0,0.83,0.55,-1.8609115353683964e-14,1.238548579583472e-13,1.1796689743450767e-14
6.177420139312744,0.23,0.07,9.76,0.0,0.0,0.0,0.01,-0.0,0.83,0.55,-1.8609115353683964e-14,1.238548579583472e-13,1.1796689743450767e-14
6.178228378295898,0.23,0.07,9.76,0.0,0.0,0.0,0.01,-0.0,0.83,0.55,-1.8609115353683964e-14,1.238548579583472e-13,1.1796689743450767e-14
6.17891526222229,0.23,0.07,9.76,0.0,0.0,0.0,0.01,-0.0,0.83,0.55,-1.8609115353683964e-14,1.238548579583472e-13,1.1796689743450767e-14
6.17966890335083,0.27,-0.0,9.8,0.0,0.0,0.0,0.01,-0.0,0.83,0.55,-1.8609115353683964e-14,1.238548579583472e-13,1.1796689743450767e-14
6.180365085601807,0.27,-0.0,9.8,0.0,0.0,0.0,0.01,-0.0,0.83,0.55,-1.8609115353683964e-14,1.238548579583472e-13,1.1796689743450767e-14
6.180905818939209,0.27,-0.0,9.8,0.0,0.0,0.0,0.01,-0.0,0.83,0.55,-1.8609115353683964e-14,1.238548579583472e-13,1.1796689743450767e-14
6.1814398765563965,0.27,-0.0,9.8,0.0,0.0,0.0,0.01,-0.0,0.83,0.55,-1.8609115353683964e-14,1.238548579583472e-13,1.1796689743450767e-14
6.1819679737091064,0.27,-0.0,9.8,0.0,0.0,0.0,0.01,-0.0,0.83,0.55,-1.8609115353683964e-14,1.238548579583472e-13,1.1796689743450767e-14
6.182724475860596,0.27,-0.0,9.8,0.0,0.0,0.0,0.01,-0.0,0.83,0.55,-1.8609115353683964e-14,1.238548579583472e-13,1.1796689743450767e-14
6.183611154556274,0.23,-0.0,9.76,0.0,0.0,0.0,0.01,-0.0,0.83,0.55,-1.8609115353683964e-14,1.238548579583472e-13,1.1796689743450767e-14
6.184505939483643,0.23,-0.0,9.76,0.0,0.0,0.0,0.01,-0.0,0.83,0.55,-1.8609115353683964e-14,1.238548579583472e-13,1.1796689743450767e-14
6.1850745677948,0.23,-0.0,9.76,0.0,0.0,0.0,0.01,-0.0,0.83,0.55,-1.8609115353683964e-14,1.238548579583472e-13,1.1796689743450767e-14
6.185590744018555,0.23,-0.0,9.76,0.0,0.0,0.0,0.01,-0.0,0.83,0.55,-1.8609115353683964e-14,1.238548579583472e-13,1.1796689743450767e-14
6.186176061630249,0.23,-0.0,9.76,0.0,0.0,0.0,0.01,-0.0,0.83,0.55,-1.8609115353683964e-14,1.238548579583472e-13,1.1796689743450767e-14
6.186586618423462,0.23,-0.0,9.76,0.0,0.0,0.0,0.01,-0.0,0.83,0.55,-1.8609115353683964e-14,1.238548579583472e-13,1.1796689743450767e-14
6.261186361312866,0.23,-0.0,9.76,0.0,0.0,0.0,0.01,-0.0,0.83,0.55,-1.8609115353683964e-14,1.238548579583472e-13,1.1796689743450767e-14
6.2621965408325195,0.23,-0.0,9.76,0.0,0.0,0.0,0.01,-0.0,0.83,0.55,-1.8609115353683964e-14,1.238548579583472e-13,1.1796689743450767e-14
6.263098239898682,0.23,-0.0,9.76,0.0,0.0,0.0,0.01,-0.0,0.83,0.55,-1.8609115353683964e-14,1.238548579583472e-13,1.1796689743450767e-14
