Timestamp,AccelX,AccelY,AccelZ,GyroX,GyroY,GyroZ,QuatW,QuatX,QuatY,QuatZ,Tilt,Obliquity,Rotation
2.1105215549468994,0.54,0.19,9.91,0.0,0.0,0.0,0.02,-0.01,0.68,0.74,-8.32566039141203e-15,-1.2461799622848634e-13,-8.077919632296444e-15
2.110983371734619,0.54,0.19,9.91,0.0,0.0,0.0,0.02,-0.01,0.68,0.74,-8.32566039141203e-15,-1.2461799622848634e-13,-8.077919632296444e-15
2.111398935317993,0.61,0.23,9.98,0.0,0.0,0.0,0.02,-0.01,0.68,0.74,-8.32566039141203e-15,-1.2461799622848634e-13,-8.077919632296444e-15
2.111666202545166,0.61,0.23,9.98,0.0,0.0,0.0,0.02,-0.01,0.68,0.74,-8.32566039141203e-15,-1.2461799622848634e-13,-8.077919632296444e-15
2.1119813919067383,0.61,0.23,9.98,0.0,0.0,0.0,0.02,-0.01,0.68,0.74,-8.32566039141203e-15,-1.2461799622848634e-13,-8.077919632296444e-15
2.1781466007232666,0.61,0.23,9.98,0.0,0.0,0.0,0.02,-0.01,0.68,0.74,-8.32566039141203e-15,-1.2461799622848634e-13,-8.077919632296444e-15
2.178443431854248,0.61,0.23,9.98,0.0,0.0,0.0,0.02,-0.01,0.68,0.74,-8.32566039141203e-15,-1.2461799622848634e-13,-8.077919632296444e-15
2.1786792278289795,0.61,0.23,9.98,0.0,0.0,0.0,0.02,-0.01,0.68,0.74,-8.32566039141203e-15,-1.2461799622848634e-13,-8.077919632296444e-15
2.1788535118103027,0.61,0.23,9.98,0.0,0.0,0.0,0.02,-0.01,0.68,0.74,-8.32566039141203e-15,-1.2461799622848634e-13,-8.077919632296444e-15
2.1790082454681396,0.61,0.23,9.98,0.0,0.0,0.0,0.02,-0.01,0.68,0.74,-8.32566039141203e-15,-1.2461799622848634e-13,-8.077919632296444e-15
2.1791672706604004,0.38,0.11,9.61,0.0,0.0,0.0,0.02,-0.01,0.68,0.74,-8.32566039141203e-15,-1.2461799622848634e-13,-8.077919632296444e-15
2.1793620586395264,0.38,0.11,9.61,0.0,0.0,0.0,0.02,-0.01,0.68,0.74,-8.32566039141203e-15,-1.2461799622848634e-13,-8.077919632296444e-15
2.179522752761841,0.38,0.11,9.61,0.0,0.0,0.0,0.02,-0.01,0.68,0.74,-8.32566039141203e-15,-1.2461799622848634e-13,-8.077919632296444e-15
2.179671287536621,0.38,0.11,9.61,0.0,0.0,0.0,0.02,-0.01,0.68,0.74,-8.32566039141203e-15,-1.2461799622848634e-13,-8.077919632296444e-15
2.1798148155212402,0.38,0.11,9.61,0.0,0.0,0.0,0.02,-0.01,0.68,0.74,-8.32566039141203e-15,-1.2461799622848634e-13,-8.077919632296444e-15
2.1799521446228027,0.38,0.11,9.61,0.0,0.0,0.0,0.02,-0.01,0.68,0.74,-8.32566039141203e-15,-1.2461799622848634e-13,-8.077919632296444e-15
2.1800999641418457,0.38,0.11,9.61,0.0,0.0,0.0,0.02,-0.01,0.68,0.74,-8.32566039141203e-15,-1.2461799622848634e-13,-8.077919632296444e-15
2.1802403926849365,0.38,0.11,9.61,0.0,0.0,0.0,0.02,-0.01,0.68,0.74,-8.32566039141203e-15,-1.2461799622848634e-13,-8.077919632296444e-15
2.180375337600708,0.38,0.11,9.61,0.0,0.0,0.0,0.02,-0.01,0.68,0.74,-8.32566039141203e-15,-1.2461799622848634e-13,-8.077919632296444e-15
2.236647844314575,0.38,0.11,9.61,0.0,0.0,0.0,0.02,-0.01,0.68,0.74,-8.32566039141203e-15,-1.2461799622848634e-13,-8.077919632296444e-15
2.237135410308838,0.38,0.11,9.61,0.0,0.0,0.0,0.02,-0.01,0.68,0.74,-8.32566039141203e-15,-1.2461799622848634e-13,-8.077919632296444e-15
2.237550735473633,0.38,0.11,9.61,0.0,0.0,0.0,0.02,-0.01,0.68,0.74,-8.32566039141203e-15,-1.2461799622848634e-13,-8.077919632296444e-15
2.2377212047576904,0.54,0.11,9.68,0.0,0.0,0.0,0.02,-0.01,0.68,0.74,-8.32566039141203e-15,-1.2461799622848634e-13,-8.077919632296444e-15
2.2379305362701416,0.54,0.11,9.68,0.0,0.0,0.0,0.02,-0.01,0.68,0.74,-8.32566039141203e-15,-1.2461799622848634e-13,-8.077919632296444e-15
2.238166570663452,0.54,0.11,9.68,0.0,0.0,0.0,0.02,-0.01,0.68,0.74,-8.32566039141203e-15,-1.2461799622848634e-13,-8.077919632296444e-15
2.238345146179199,0.54,0.11,9.68,0.0,0.0,0.0,0.02,-0.01,0.68,0.74,-8.32566039141203e-15,-1.2461799622848634e-13,-8.077919632296444e-15
2.238528251647949,0.54,0.11,9.68,0.0,0.0,0.0,0.02,-0.01,0.68,0.74,-8.32566039141203e-15,-1.2461799622848634e-13,-8.077919632296444e-15
2.2386839389801025,0.54,0.11,9.68,0.0,0.0,0.0,0.02,-0.01,0.68,0.74,-8.32566039141203e-15,-1.2461799622848634e-13,-8.077919632296444e-15
2.2388293743133545,0.54,0.11,9.68,0.0,0.0,0.0,0.02,-0.01,0.68,0.74,-8.32566039141203e-15,-1.2461799622848634e-13,-8.077919632296444e-15
2.239001512527466,0.54,0.11,9.68,0.0,0.0,0.0,0.02,-0.01,0.68,0.74,-8.32566039141203e-15,-1.2461799622848634e-13,-8.077919632296444e-15
2.2391695976257324,0.54,0.11,9.68,0.0,0.0,0.0,0.02,-0.01,0.68,0.74,-8.32566039141203e-15,-1.2461799622848634e-13,-8.077919632296444e-15
2.2393453121185303,0.54,0.11,9.68,0.0,0.0,0.0,0.02,-0.01,0.68,0.74,-8.32566039141203e-15,-1.2461799622848634e-13,-8.077919632296444e-15
2.297605276107788,0.54,0.11,9.68,0.0,0.0,0.0,0.02,-0.01,0.68,0.74,-8.32566039141203e-15,-1.2461799622848634e-13,-8.077919632296444e-15
2.2979354858398438,0.54,0.11,9.68,0.0,0.0,0.0,0.02,-0.01,0.68,0.74,-8.32566039141203e-15,-1.2461799622848634e-13,-8.077919632296444e-15
2.298210382461548,0.46,0.11,9.64,0.0,0.0,0.0,0.02,-0.01,0.68,0.74,-8.32566039141203e-15,-1.2461799622848634e-13,-8.077919632296444e-15
2.2984468936920166,0.46,0.11,9.64,0.0,0.0,0.0,0.02,-0.01,0.68,0.74,-8.32566039141203e-15,-1.2461799622848634e-13,-8.077919632296444e-15
2.2986302375793457,0.46,0.11,9.64,0.0,0.0,0.0,0.02,-0.01,0.68,0.74,-8.32566039141203e-15,-1.2461799622848634e-13,-8.077919632296444e-15
2.2988369464874268,0.46,0.11,9.64,0.0,0.0,0.0,0.02,-0.01,0.68,0.74,-8.32566039141203e-15,-1.2461799622848634e-13,-8.077919632296444e-15
2.2990355491638184,0.46,0.11,9.64,0.0,0.0,0.0,0.02,-0.01,0.68,0.74,-8.32566039141203e-15,-1.2461799622848634e-13,-8.077919632296444e-15
2.2992441654205322,0.46,0.11,9.64,0.0,0.0,0.0,0.02,-0.01,0.68,0.74,-8.32566039141203e-15,-1.2461799622848634e-13,-8.077919632296444e-15
2.2994587421417236,0.46,0.11,9.64,0.0,0.0,0.0,0.02,-0.01,0.68,0.74,-8.32566039141203e-15,-1.2461799622848634e-13,-8.077919632296444e-15
2.299663782119751,0.46,0.11,9.64,0.0,0.0,0.0,0.02,-0.01,0.68,0.74,-8.32566039141203e-15,-1.2461799622848634e-13,-8.077919632296444e-15
2.299849033355713,0.46,0.11,9.64,0.0,0.0,0.0,0.02,-0.01,0.68,0.74,-8.32566039141203e-15,-1.2461799622848634e-13,-8.077919632296444e-15
2.3000476360321045,0.46,0.11,9.64,0.0,0.0,0.0,0.02,-0.01,0.68,0.74,-8.32566039141203e-15,-1.2461799622848634e-13,-8.077919632296444e-15
2.3002262115478516,0.61,0.19,10.02,0.0,0.0,0.0,0.02,-0.01,0.68,0.74,-8.32566039141203e-15,-1.2461799622848634e-13,-8.077919632296444e-15
2.3004581928253174,0.61,0.19,10.02,0.0,0.0,0.0,0.02,-0.01,0.68,0.74,-8.32566039141203e-15,-1.2461799622848634e-13,-8.077919632296444e-15
2.357726573944092,0.61,0.19,10.02,0.0,0.0,0.0,0.02,-0.01,0.68,0.74,-8.32566039141203e-15,-1.2461799622848634e-13,-8.077919632296444e-15
2.358060359954834,0.61,0.19,10.02,0.0,0.0,0.0,0.02,-0.01,0.68,0.74,-8.32566039141203e-15,-1.2461799622848634e-13,-8.077919632296444e-15
2.3583016395568848,0.61,0.19,10.02,0.0,0.0,0.0,0.02,-0.01,0.68,0.74,-8.32566039141203e-15,-1.2461799622848634e-13,-8.077919632296444e-15
2.3585426807403564,0.61,0.19,10.02,0.0,0.0,0.0,0.02,-0.01,0.68,0.74,-8.32566039141203e-15,-1.2461799622848634e-13,-8.077919632296444e-15
2.3587257862091064,0.61,0.23,9.95,0.0,0.0,0.0,0.02,-0.01,0.68,0.74,-8.32566039141203e-15,-1.2461799622848634e-13,-8.077919632296444e-15
2.3590638637542725,0.61,0.23,9.95,0.0,0.0,0.0,0.02,-0.01,0.68,0.74,-8.32566039141203e-15,-1.2461799622848634e-13,-8.077919632296444e-15
2.3592822551727295,0.61,0.23,9.95,0.0,0.0,0.0,0.02,-0.01,0.68,0.74,-8.32566039141203e-15,-1.2461799622848634e-13,-8.077919632296444e-15
2.3595082759857178,0.61,0.23,9.95,0.0,0.0,0.0,0.02,-0.01,0.68,0.74,-8.32566039141203e-15,-1.2461799622848634e-13,-8.077919632296444e-15
2.3597021102905273,0.46,0.11,9.57,0.0,0.0,0.0,0.02,-0.01,0.68,0.74,-8.32566039141203e-15,-1.2461799622848634e-13,-8.077919632296444e-15
2.35986065864563,0.46,0.11,9.57,0.0,0.0,0.0,0.02,-0.01,0.68,0.74,-8.32566039141203e-15,-1.2461799622848634e-13,-8.077919632296444e-15
2.3600053787231445,0.46,0.11,9.57,0.0,0.0,0.0,0.02,-0.01,0.68,0.74,-8.32566039141203e-15,-1.2461799622848634e-13,-8.077919632296444e-15
2.3601458072662354,0.46,0.11,9.57,0.0,0.0,0.0,0.02,-0.01,0.68,0.74,-8.32566039141203e-15,-1.2461799622848634e-13,-8.077919632296444e-15
2.414438247680664,0.46,0.11,9.57,0.0,0.0,0.0,0.02,-0.01,0.68,0.74,-8.32566039141203e-15,-1.2461799622848634e-13,-8.077919632296444e-15
2.4147708415985107,0.46,0.11,9.57,0.0,0.0,0.0,0.02,-0.01,0.68,0.74,-8.32566039141203e-15,-1.2461799622848634e-13,-8.077919632296444e-15
2.4150824546813965,0.46,0.11,9.57,0.0,0.0,0.0,0.02,-0.01,0.68,0.74,-8.32566039141203e-15,-1.2461799622848634e-13,-8.077919632296444e-15
2.4152894020080566,0.46,0.11,9.57,0.0,0.0,0.0,0.02,-0.01,0.68,0.74,-8.32566039141203e-15,-1.2461799622848634e-13,-8.077919632296444e-15
2.4155049324035645,0.46,0.11,9.57,0.0,0.0,0.0,0.02,-0.01,0.68,0.74,-8.32566039141203e-15,-1.2461799622848634e-13,-8.077919632296444e-15
2.415680170059204,0.46,0.11,9.57,0.0,0.0,0.0,0.02,-0.01,0.68,0.74,-8.32566039141203e-15,-1.2461799622848634e-13,-8.077919632296444e-15
2.415879249572754,0.46,0.11,9.57,0.0,0.0,0.0,0.02,-0.01,0.68,0.74,-8.32566039141203e-15,-1.2461799622848634e-13,-8.077919632296444e-15
2.4161200523376465,0.46,0.11,9.57,0.0,0.0,0.0,0.02,-0.01,0.68,0.74,-8.32566039141203e-15,-1.2461799622848634e-13,-8.077919632296444e-15
2.4162960052490234,0.57,0.15,9.87,0.0,0.0,0.0,0.02,-0.01,0.68,0.74,-8.32566039141203e-15,-1.2461799622848634e-13,-8.077919632296444e-15
2.416461229324341,0.57,0.15,9.87,0.0,0.0,0.0,0.02,-0.01,0.68,0.74,-8.32566039141203e-15,-1.2461799622848634e-13,-8.077919632296444e-15
2.416630983352661,0.57,0.15,9.87,0.0,0.0,0.0,0.02,-0.01,0.68,0.74,-8.32566039141203e-15,-1.2461799622848634e-13,-8.077919632296444e-15
2.4167873859405518,0.57,0.15,9.87,0.0,0.0,0.0,0.02,-0.01,0.68,0.74,-8.32566039141203e-15,-1.2461799622848634e-13,-8.077919632296444e-15
2.4763004779815674,0.57,0.15,9.87,0.0,0.0,0.0,0.02,-0.01,0.68,0.74,-8.32566039141203e-15,-1.2461799622848634e-13,-8.077919632296444e-15
2.4766154289245605,0.57,0.15,9.87,0.0,0.0,0.0,0.02,-0.01,0.68,0.74,-8.32566039141203e-15,-1.2461799622848634e-13,-8.077919632296444e-15
2.476861000061035,0.57,0.15,9.87,0.0,0.0,0.0,0.02,-0.01,0.68,0.74,-8.32566039141203e-15,-1.2461799622848634e-13,-8.077919632296444e-15
2.4771249294281006,0.57,0.15,9.87,0.0,0.0,0.0,0.02,-0.01,0.68,0.74,-8.32566039141203e-15,-1.2461799622848634e-13,-8.077919632296444e-15
2.477320671081543,0.57,0.15,9.87,0.0,0.0,0.0,0.02,-0.01,0.68,0.74,-8.32566039141203e-15,-1.2461799622848634e-13,-8.077919632296444e-15
2.4775259494781494,0.57,0.15,9.87,0.0,0.0,0.0,0.02,-0.01,0.68,0.74,-8.32566039141203e-15,-1.2461799622848634e-13,-8.077919632296444e-15
2.4777567386627197,0.65,0.26,10.02,0.0,0.0,0.0,0.02,-0.01,0.68,0.74,-8.32566039141203e-15,-1.2461799622848634e-13,-8.077919632296444e-15
2.4779951572418213,0.65,0.26,10.02,0.0,0.0,0.0,0.02,-0.01,0.68,0.74,-8.32566039141203e-15,-1.2461799622848634e-13,-8.077919632296444e-15
2.4781851768493652,0.65,0.26,10.02,0.0,0.0,0.0,0.02,-0.01,0.68,0.74,-8.32566039141203e-15,-1.2461799622848634e-13,-8.077919632296444e-15
2.478376626968384,0.65,0.26,10.02,0.0,0.0,0.0,0.02,-0.01,0.68,0.74,-8.32566039141203e-15,-1.2461799622848634e-13,-8.077919632296444e-15
2.478672742843628,0.65,0.26,10.02,0.0,0.0,0.0,0.02,-0.01,0.68,0.74,-8.32566039141203e-15,-1.2461799622848634e-13,-8.077919632296444e-15
2.4792823791503906,0.65,0.26,10.02,0.0,0.0,0.0,0.02,-0.01,0.68,0.74,-8.32566039141203e-15,-1.2461799622848634e-13,-8.077919632296444e-15
2.4794259071350098,0.65,0.26,10.02,0.0,0.0,0.0,0.02,-0.01,0.68,0.74,-8.32566039141203e-15,-1.2461799622848634e-13,-8.077919632296444e-15
2.5350069999694824,0.65,0.26,10.02,0.0,0.0,0.0,0.02,-0.01,0.68,0.74,-8.32566039141203e-15,-1.2461799622848634e-13,-8.077919632296444e-15
2.5353341102600098,0.65,0.26,10.02,0.0,0.0,0.0,0.02,-0.01,0.68,0.74,-8.32566039141203e-15,-1.2461799622848634e-13,-8.077919632296444e-15
2.5355796813964844,0.65,0.26,10.02,0.0,0.0,0.0,0.02,-0.01,0.68,0.74,-8.32566039141203e-15,-1.2461799622848634e-13,-8.077919632296444e-15
2.5358030796051025,0.42,0.07,9.6,0.0,0.0,0.0,0.02,-0.01,0.68,0.74,-8.32566039141203e-15,-1.2461799622848634e-13,-8.077919632296444e-15
2.5360090732574463,0.42,0.07,9.6,0.0,0.0,0.0,0.02,-0.01,0.68,0.74,-8.32566039141203e-15,-1.2461799622848634e-13,-8.077919632296444e-15
2.5362255573272705,0.42,0.07,9.6,0.0,0.0,0.0,0.02,-0.01,0.68,0.74,-8.32566039141203e-15,-1.2461799622848634e-13,-8.077919632296444e-15
2.5364058017730713,0.42,0.07,9.6,0.0,0.0,0.0,0.02,-0.01,0.68,0.74,-8.32566039141203e-15,-1.2461799622848634e-13,-8.077919632296444e-15
2.5366108417510986,0.42,0.07,9.6,0.0,0.0,0.0,0.02,-0.01,0.68,0.74,-8.32566039141203e-15,-1.2461799622848634e-13,-8.077919632296444e-15
2.5368077754974365,0.42,0.07,9.6,0.0,0.0,0.0,0.02,-0.01,0.68,0.74,-8.32566039141203e-15,-1.2461799622848634e-13,-8.077919632296444e-15
2.5369873046875,0.42,0.07,9.6,0.0,0.0,0.0,0.02,-0.01,0.68,0.74,-8.32566039141203e-15,-1.2461799622848634e-13,-8.077919632296444e-15
2.537153482437134,0.42,0.07,9.6,0.0,0.0,0.0,0.02,-0.01,0.68,0.74,-8.32566039141203e-15,-1.2461799622848634e-13,-8.077919632296444e-15
2.5373075008392334,0.54,0.19,9.87,0.0,0.0,0.0,0.02,-0.01,0.68,0.74,-8.32566039141203e-15,-1.2461799622848634e-13,-8.077919632296444e-15
2.5918023586273193,0.54,0.19,9.87,0.0,0.0,0.0,0.02,-0.01,0.68,0.74,-8.32566039141203e-15,-1.2461799622848634e-13,-8.077919632296444e-15
2.5921554565429688,0.54,0.19,9.87,0.0,0.0,0.0,0.02,-0.01,0.68,0.74,-8.32566039141203e-15,-1.2461799622848634e-13,-8.077919632296444e-15
2.5923655033111572,0.54,0.19,9.87,0.0,0.0,0.0,0.02,-0.01,0.68,0.74,-8.32566039141203e-15,-1.2461799622848634e-13,-8.077919632296444e-15
2.592625141143799,0.54,0.19,9.87,0.0,0.0,0.0,0.02,-0.01,0.68,0.74,-8.32566039141203e-15,-1.2461799622848634e-13,-8.077919632296444e-15
2.5928194522857666,0.54,0.19,9.87,0.0,0.0,0.0,0.02,-0.01,0.68,0.74,-8.32566039141203e-15,-1.246179962284863e-13,-8.07791963229644e-15
2.5935914516448975,0.54,0.19,9.87,0.0,0.0,0.0,0.02,-0.01,0.68,0.74,-8.32566039141203e-15,-1.246179962284863e-13,-8.07791963229644e-15
2.5943260192871094,0.54,0.19,9.87,0.0,0.0,0.0,0.02,-0.01,0.68,0.74,-8.32566039141203e-15,-1.246179962284863e-13,-8.07791963229644e-15
2.5951027870178223,0.5,0.15,9.71,0.0,0.0,0.0,0.02,-0.01,0.68,0.74,-8.32566039141203e-15,-1.246179962284863e-13,-8.07791963229644e-15
2.595771074295044,0.5,0.15,9.71,0.0,0.0,0.0,0.02,-0.01,0.68,0.74,-8.32566039141203e-15,-1.246179962284863e-13,-8.07791963229644e-15
2.596259355545044,0.5,0.15,9.71,0.0,0.0,0.0,0.02,-0.01,0.68,0.74,-8.32566039141203e-15,-1.246179962284863e-13,-8.07791963229644e-15
2.5967328548431396,0.5,0.15,9.71,0.0,0.0,0.0,0.02,-0.01,0.68,0.74,-8.32566039141203e-15,-1.246179962284863e-13,-8.07791963229644e-15
2.5971641540527344,0.5,0.15,9.71,0.0,0.0,0.0,0.02,-0.01,0.68,0.74,-8.32566039141203e-15,-1.246179962284863e-13,-8.07791963229644e-15
2.5976033210754395,0.5,0.15,9.71,0.0,0.0,0.0,0.02,-0.01,0.68,0.74,-8.32566039141203e-15,-1.246179962284863e-13,-8.07791963229644e-15
2.6634068489074707,0.5,0.15,9.71,0.0,0.0,0.0,0.02,-0.01,0.68,0.74,-8.32566039141203e-15,-1.246179962284863e-13,-8.07791963229644e-15
2.664217710494995,0.5,0.15,9.71,0.0,0.0,0.0,0.02,-0.01,0.68,0.74,-8.32566039141203e-15,-1.246179962284863e-13,-8.07791963229644e-15
2.6647145748138428,0.5,0.15,9.71,0.0,0.0,0.0,0.02,-0.01,0.68,0.74,-8.32566039141203e-15,-1.246179962284863e-13,-8.07791963229644e-15
2.6653125286102295,0.5,0.15,9.71,0.0,0.0,0.0,0.02,-0.01,0.68,0.74,-8.32566039141203e-15,-1.246179962284863e-13,-8.07791963229644e-15
2.665795087814331,0.61,0.23,10.02,0.0,0.0,0.0,0.02,-0.01,0.68,0.74,-8.32566039141203e-15,-1.246179962284863e-13,-8.07791963229644e-15
2.6662254333496094,0.61,0.23,10.02,0.0,0.0,0.0,0.02,-0.01,0.68,0.74,-8.32566039141203e-15,-1.246179962284863e-13,-8.07791963229644e-15
2.6669013500213623,0.61,0.23,10.02,0.0,0.0,0.0,0.02,-0.01,0.68,0.74,-8.32566039141203e-15,-1.246179962284863e-13,-8.07791963229644e-15
2.667466878890991,0.61,0.23,10.02,0.0,0.0,0.0,0.02,-0.01,0.68,0.74,-8.32566039141203e-15,-1.246179962284863e-13,-8.07791963229644e-15
2.667978048324585,0.61,0.23,10.02,0.0,0.0,0.0,0.02,-0.01,0.68,0.74,-8.32566039141203e-15,-1.246179962284863e-13,-8.07791963229644e-15
2.668483018875122,0.61,0.23,10.02,0.0,0.0,0.0,0.02,-0.01,0.68,0.74,-8.32566039141203e-15,-1.246179962284863e-13,-8.07791963229644e-15
2.669138193130493,0.61,0.23,10.02,0.0,0.0,0.0,0.02,-0.01,0.68,0.74,-8.32566039141203e-15,-1.246179962284863e-13,-8.07791963229644e-15
2.6699249744415283,0.61,0.23,10.02,0.0,0.0,0.0,0.02,-0.01,0.68,0.74,-8.32566039141203e-15,-1.246179962284863e-13,-8.07791963229644e-15
2.6706674098968506,0.54,0.11,9.83,0.0,0.0,0.0,0.02,-0.01,0.68,0.74,-8.32566039141203e-15,-1.246179962284863e-13,-8.07791963229644e-15
2.671401023864746,0.54,0.11,9.83,0.0,0.0,0.0,0.02,-0.01,0.68,0.74,-8.32566039141203e-15,-1.246179962284863e-13,-8.07791963229644e-15
2.671902656555176,0.54,0.11,9.83,0.0,0.0,0.0,0.02,-0.01,0.68,0.74,-8.32566039141203e-15,-1.246179962284863e-13,-8.07791963229644e-15
2.6724190711975098,0.54,0.11,9.83,0.0,0.0,0.0,0.02,-0.01,0.68,0.74,-8.32566039141203e-15,-1.246179962284863e-13,-8.07791963229644e-15
2.672910213470459,0.54,0.11,9.83,0.0,0.0,0.0,0.02,-0.01,0.68,0.74,-8.32566039141203e-15,-1.246179962284863e-13,-8.07791963229644e-15
2.673351287841797,0.54,0.11,9.83,0.0,0.0,0.0,0.02,-0.01,0.68,0.74,-8.32566039141203e-15,-1.246179962284863e-13,-8.07791963229644e-15
2.7473268508911133,0.46,0.11,9.61,0.0,0.0,0.0,0.02,-0.01,0.68,0.74,-8.32566039141203e-15,-1.246179962284863e-13,-8.07791963229644e-15
2.7480900287628174,0.46,0.11,9.61,0.0,0.0,0.0,0.02,-0.01,0.68,0.74,-8.32566039141203e-15,-1.246179962284863e-13,-8.07791963229644e-15
2.748633623123169,0.46,0.11,9.61,0.0,0.0,0.0,0.02,-0.01,0.68,0.74,-8.32566039141203e-15,-1.246179962284863e-13,-8.07791963229644e-15
2.7490761280059814,0.46,0.11,9.61,0.0,0.0,0.0,0.02,-0.01,0.68,0.74,-8.32566039141203e-15,-1.246179962284863e-13,-8.07791963229644e-15
2.749497890472412,0.46,0.11,9.61,0.0,0.0,0.0,0.02,-0.01,0.68,0.74,-8.32566039141203e-15,-1.246179962284863e-13,-8.07791963229644e-15
2.7499446868896484,0.46,0.11,9.61,0.0,0.0,0.0,0.02,-0.01,0.68,0.74,-8.32566039141203e-15,-1.246179962284863e-13,-8.07791963229644e-15
2.750335931777954,0.46,0.11,9.61,0.0,0.0,0.0,0.02,-0.01,0.68,0.74,-8.32566039141203e-15,-1.246179962284863e-13,-8.07791963229644e-15
2.7507975101470947,0.46,0.11,9.61,0.0,0.0,0.0,0.02,-0.01,0.68,0.74,-8.32566039141203e-15,-1.246179962284863e-13,-8.07791963229644e-15
2.7512474060058594,0.46,0.11,9.61,0.0,0.0,0.0,0.02,-0.01,0.68,0.74,-8.32566039141203e-15,-1.246179962284863e-13,-8.07791963229644e-15
2.751648426055908,0.46,0.11,9.61,0.0,0.0,0.0,0.02,-0.01,0.68,0.74,-8.32566039141203e-15,-1.246179962284863e-13,-8.07791963229644e-15
2.752082109451294,0.46,0.11,9.64,0.0,0.0,0.0,0.02,-0.01,0.68,0.74,-8.32566039141203e-15,-1.246179962284863e-13,-8.07791963229644e-15
2.7525129318237305,0.46,0.11,9.64,0.0,0.0,0.0,0.02,-0.01,0.68,0.74,-8.32566039141203e-15,-1.246179962284863e-13,-8.07791963229644e-15
2.752967596054077,0.46,0.11,9.64,0.0,0.0,0.0,0.02,-0.01,0.68,0.74,-8.32566039141203e-15,-1.246179962284863e-13,-8.07791963229644e-15
2.7533674240112305,0.46,0.11,9.64,0.0,0.0,0.0,0.02,-0.01,0.68,0.74,-8.32566039141203e-15,-1.246179962284863e-13,-8.07791963229644e-15
2.7539007663726807,0.46,0.11,9.64,0.0,0.0,0.0,0.02,-0.01,0.68,0.74,-8.32566039141203e-15,-1.246179962284863e-13,-8.07791963229644e-15
2.754427433013916,0.46,0.11,9.64,0.0,0.0,0.0,0.02,-0.01,0.68,0.74,-8.32566039141203e-15,-1.246179962284863e-13,-8.07791963229644e-15
2.7548534870147705,0.46,0.11,9.64,0.0,0.0,0.0,0.02,-0.01,0.68,0.74,-8.32566039141203e-15,-1.246179962284863e-13,-8.07791963229644e-15
2.7552928924560547,0.46,0.11,9.64,0.0,0.0,0.0,0.02,-0.01,0.68,0.74,-8.32566039141203e-15,-1.246179962284863e-13,-8.07791963229644e-15
2.8127918243408203,0.46,0.11,9.64,0.0,0.0,0.0,0.02,-0.01,0.68,0.74,-8.32566039141203e-15,-1.246179962284863e-13,-8.07791963229644e-15
2.8135809898376465,0.46,0.11,9.64,0.0,0.0,0.0,0.02,-0.01,0.68,0.74,-8.32566039141203e-15,-1.246179962284863e-13,-8.07791963229644e-15
2.8142502307891846,0.46,0.07,9.67,0.0,0.0,0.0,0.02,-0.01,0.68,0.74,-8.32566039141203e-15,-1.246179962284863e-13,-8.07791963229644e-15
2.8148343563079834,0.46,0.07,9.67,0.0,0.0,0.0,0.02,-0.01,0.68,0.74,-8.32566039141203e-15,-1.246179962284863e-13,-8.07791963229644e-15
2.815276622772217,0.46,0.07,9.67,0.0,0.0,0.0,0.02,-0.01,0.68,0.74,-8.32566039141203e-15,-1.246179962284863e-13,-8.07791963229644e-15
2.8157386779785156,0.46,0.07,9.67,0.0,0.0,0.0,0.02,-0.01,0.68,0.74,-8.32566039141203e-15,-1.246179962284863e-13,-8.07791963229644e-15
2.8162338733673096,0.46,0.07,9.67,0.0,0.0,0.0,0.02,-0.01,0.68,0.74,-8.32566039141203e-15,-1.246179962284863e-13,-8.07791963229644e-15
2.816688060760498,0.46,0.07,9.67,0.0,0.0,0.0,0.02,-0.01,0.68,0.74,-8.32566039141203e-15,-1.246179962284863e-13,-8.07791963229644e-15
2.817117691040039,0.46,0.07,9.67,0.0,0.0,0.0,0.02,-0.01,0.68,0.74,-8.32566039141203e-15,-1.246179962284863e-13,-8.07791963229644e-15
2.817556381225586,0.46,0.07,9.67,0.0,0.0,0.0,0.02,-0.01,0.68,0.74,-8.32566039141203e-15,-1.246179962284863e-13,-8.07791963229644e-15
2.818042278289795,0.46,0.07,9.67,0.0,0.0,0.0,0.02,-0.01,0.68,0.74,-8.32566039141203e-15,-1.246179962284863e-13,-8.07791963229644e-15
2.8184664249420166,0.46,0.07,9.67,0.0,0.0,0.0,0.02,-0.01,0.68,0.74,-8.32566039141203e-15,-1.246179962284863e-13,-8.07791963229644e-15
2.8188929557800293,0.5,0.15,9.75,0.0,0.0,0.0,0.02,-0.01,0.68,0.74,-8.32566039141203e-15,-1.246179962284863e-13,-8.07791963229644e-15
2.819368600845337,0.5,0.15,9.75,0.0,0.0,0.0,0.02,-0.01,0.68,0.74,-8.32566039141203e-15,-1.246179962284863e-13,-8.07791963229644e-15
2.877014636993408,0.5,0.15,9.75,0.0,0.0,0.0,0.02,-0.01,0.68,0.74,-8.32566039141203e-15,-1.246179962284863e-13,-8.07791963229644e-15
2.87772274017334,0.5,0.15,9.75,0.0,0.0,0.0,0.02,-0.01,0.68,0.74,-8.32566039141203e-15,-1.246179962284863e-13,-8.07791963229644e-15
2.878286838531494,0.5,0.15,9.75,0.0,0.0,0.0,0.02,-0.01,0.68,0.74,-8.32566039141203e-15,-1.246179962284863e-13,-8.07791963229644e-15
2.878877878189087,0.5,0.15,9.75,0.0,0.0,0.0,0.02,-0.01,0.68,0.74,-8.32566039141203e-15,-1.246179962284863e-13,-8.07791963229644e-15
2.8794713020324707,0.5,0.15,9.75,0.0,0.0,0.0,0.02,-0.01,0.68,0.74,-8.32566039141203e-15,-1.246179962284863e-13,-8.07791963229644e-15
2.880011796951294,0.5,0.15,9.75,0.0,0.0,0.0,0.02,-0.01,0.68,0.74,-8.32566039141203e-15,-1.246179962284863e-13,-8.07791963229644e-15
2.8805911540985107,0.46,0.11,9.64,0.0,0.0,0.0,0.02,-0.01,0.68,0.74,-8.32566039141203e-15,-1.246179962284863e-13,-8.07791963229644e-15
2.881028413772583,0.46,0.11,9.64,0.0,0.0,0.0,0.02,-0.01,0.68,0.74,-8.32566039141203e-15,-1.246179962284863e-13,-8.07791963229644e-15
2.881500005722046,0.46,0.11,9.64,0.0,0.0,0.0,0.02,-0.01,0.68,0.74,-8.32566039141203e-15,-1.246179962284863e-13,-8.07791963229644e-15
2.8819637298583984,0.46,0.11,9.64,0.0,0.0,0.0,0.02,-0.01,0.68,0.74,-8.32566039141203e-15,-1.246179962284863e-13,-8.07791963229644e-15
2.882467269897461,0.46,0.11,9.64,0.0,0.0,0.0,0.02,-0.01,0.68,0.74,-8.32566039141203e-15,-1.246179962284863e-13,-8.07791963229644e-15
2.882916212081909,0.46,0.11,9.64,0.0,0.0,0.0,0.02,-0.01,0.68,0.74,-8.32566039141203e-15,-1.246179962284863e-13,-8.07791963229644e-15
2.88334059715271,0.46,0.11,9.64,0.0,0.0,0.0,0.02,-0.01,0.68,0.74,-8.32566039141203e-15,-1.246179962284863e-13,-8.07791963229644e-15
2.8838179111480713,0.46,0.11,9.64,0.0,0.0,0.0,0.02,-0.01,0.68,0.74,-8.32566039141203e-15,-1.246179962284863e-13,-8.07791963229644e-15
2.940187692642212,0.46,0.11,9.64,0.0,0.0,0.0,0.02,-0.01,0.68,0.74,-8.32566039141203e-15,-1.246179962284863e-13,-8.07791963229644e-15
2.940829277038574,0.46,0.11,9.64,0.0,0.0,0.0,0.02,-0.01,0.68,0.74,-8.32566039141203e-15,-1.246179962284863e-13,-8.07791963229644e-15
2.94134521484375,0.46,0.11,9.61,0.0,0.0,0.0,0.02,-0.01,0.68,0.74,-8.32566039141203e-15,-1.246179962284863e-13,-8.07791963229644e-15
2.9417927265167236,0.46,0.11,9.61,0.0,0.0,0.0,0.02,-0.01,0.68,0.74,-8.32566039141203e-15,-1.246179962284863e-13,-8.07791963229644e-15
2.9422736167907715,0.46,0.11,9.61,0.0,0.0,0.0,0.02,-0.01,0.68,0.74,-8.32566039141203e-15,-1.246179962284863e-13,-8.07791963229644e-15
2.942746877670288,0.46,0.11,9.61,0.0,0.0,0.0,0.02,-0.01,0.68,0.74,-8.32566039141203e-15,-1.246179962284863e-13,-8.07791963229644e-15
2.943321943283081,0.46,0.11,9.61,0.0,0.0,0.0,0.02,-0.01,0.68,0.74,-8.32566039141203e-15,-1.246179962284863e-13,-8.07791963229644e-15
2.943768262863159,0.46,0.11,9.61,0.0,0.0,0.0,0.02,-0.01,0.68,0.74,-8.32566039141203e-15,-1.246179962284863e-13,-8.07791963229644e-15
2.94435977935791,0.46,0.11,9.61,0.0,0.0,0.0,0.02,-0.01,0.68,0.74,-8.32566039141203e-15,-1.246179962284863e-13,-8.07791963229644e-15
2.9449727535247803,0.46,0.11,9.61,0.0,0.0,0.0,0.02,-0.01,0.68,0.74,-8.32566039141203e-15,-1.246179962284863e-13,-8.07791963229644e-15
2.9453861713409424,0.61,0.19,9.91,0.0,0.0,0.0,0.02,-0.01,0.68,0.74,-8.32566039141203e-15,-1.246179962284863e-13,-8.07791963229644e-15
2.9458138942718506,0.61,0.19,9.91,0.0,0.0,0.0,0.02,-0.01,0.68,0.74,-8.32566039141203e-15,-1.246179962284863e-13,-8.07791963229644e-15
2.9462311267852783,0.61,0.19,9.91,0.0,0.0,0.0,0.02,-0.01,0.68,0.74,-8.32566039141203e-15,-1.246179962284863e-13,-8.07791963229644e-15
3.002460479736328,0.61,0.19,9.91,0.0,0.0,0.0,0.02,-0.01,0.68,0.74,-8.32566039141203e-15,-1.246179962284863e-13,-8.07791963229644e-15
3.0030951499938965,0.61,0.19,9.91,0.0,0.0,0.0,0.02,-0.01,0.68,0.74,-8.32566039141203e-15,-1.246179962284863e-13,-8.07791963229644e-15
3.003624439239502,0.61,0.19,9.91,0.0,0.0,0.0,0.02,-0.01,0.68,0.74,-8.32566039141203e-15,-1.246179962284863e-13,-8.07791963229644e-15
3.004070281982422,0.61,0.19,9.91,0.0,0.0,0.0,0.02,-0.01,0.68,0.74,-8.32566039141203e-15,-1.246179962284863e-13,-8.07791963229644e-15
3.0045485496520996,0.61,0.19,9.91,0.0,0.0,0.0,0.02,-0.01,0.68,0.74,-8.32566039141203e-15,-1.246179962284863e-13,-8.07791963229644e-15
3.004976272583008,0.5,0.11,9.68,0.0,0.0,0.0,0.02,-0.01,0.68,0.74,-8.32566039141203e-15,-1.246179962284863e-13,-8.07791963229644e-15
3.005417585372925,0.5,0.11,9.68,0.0,0.0,0.0,0.02,-0.01,0.68,0.74,-8.32566039141203e-15,-1.246179962284863e-13,-8.07791963229644e-15
3.005891799926758,0.5,0.11,9.68,0.0,0.0,0.0,0.02,-0.01,0.68,0.74,-8.32566039141203e-15,-1.246179962284863e-13,-8.07791963229644e-15
3.0064640045166016,0.5,0.11,9.68,0.0,0.0,0.0,0.02,-0.01,0.68,0.74,-8.32566039141203e-15,-1.246179962284863e-13,-8.07791963229644e-15
3.0069429874420166,0.5,0.11,9.68,0.0,0.0,0.0,0.02,-0.01,0.68,0.74,-8.32566039141203e-15,-1.246179962284863e-13,-8.07791963229644e-15
3.007392168045044,0.5,0.11,9.68,0.0,0.0,0.0,0.02,-0.01,0.68,0.74,-8.32566039141203e-15,-1.246179962284863e-13,-8.07791963229644e-15
3.007819414138794,0.5,0.11,9.68,0.0,0.0,0.0,0.02,-0.01,0.68,0.74,-8.32566039141203e-15,-1.246179962284863e-13,-8.07791963229644e-15
3.0083765983581543,0.5,0.11,9.68,0.0,0.0,0.0,0.02,-0.01,0.68,0.74,-8.32566039141203e-15,-1.246179962284863e-13,-8.07791963229644e-15
3.0693788528442383,0.5,0.11,9.68,0.0,0.0,0.0,0.02,-0.01,0.68,0.74,-8.32566039141203e-15,-1.246179962284863e-13,-8.07791963229644e-15
3.0701406002044678,0.5,0.11,9.68,0.0,0.0,0.0,0.02,-0.01,0.68,0.74,-8.32566039141203e-15,-1.246179962284863e-13,-8.07791963229644e-15
3.0709333419799805,0.5,0.11,9.68,0.0,0.0,0.0,0.02,-0.01,0.68,0.74,-8.32566039141203e-15,-1.246179962284863e-13,-8.07791963229644e-15
3.0716795921325684,0.5,0.11,9.68,0.0,0.0,0.0,0.02,-0.01,0.68,0.74,-8.32566039141203e-15,-1.246179962284863e-13,-8.07791963229644e-15
3.072394371032715,0.46,0.07,9.6,0.0,0.0,0.0,0.02,-0.01,0.68,0.74,-8.32566039141203e-15,-1.246179962284863e-13,-8.07791963229644e-15
3.0728600025177,0.46,0.07,9.6,0.0,0.0,0.0,0.02,-0.01,0.68,0.74,-8.32566039141203e-15,-1.246179962284863e-13,-8.07791963229644e-15
3.0733137130737305,0.46,0.07,9.6,0.0,0.0,0.0,0.02,-0.01,0.68,0.74,-8.32566039141203e-15,-1.246179962284863e-13,-8.07791963229644e-15
3.07379150390625,0.46,0.07,9.6,0.0,0.0,0.0,0.02,-0.01,0.68,0.74,-8.32566039141203e-15,-1.246179962284863e-13,-8.07791963229644e-15
3.074237823486328,0.46,0.07,9.6,0.0,0.0,0.0,0.02,-0.01,0.68,0.74,-8.32566039141203e-15,-1.246179962284863e-13,-8.07791963229644e-15
3.074723958969116,0.46,0.07,9.6,0.0,0.0,0.0,0.02,-0.01,0.68,0.74,-8.32566039141203e-15,-1.246179962284863e-13,-8.07791963229644e-15
3.0751757621765137,0.46,0.07,9.6,0.0,0.0,0.0,0.02,-0.01,0.68,0.74,-8.32566039141203e-15,-1.246179962284863e-13,-8.07791963229644e-15
3.075618267059326,0.46,0.07,9.6,0.0,0.0,0.0,0.02,-0.01,0.68,0.74,-8.32566039141203e-15,-1.246179962284863e-13,-8.07791963229644e-15
3.076094388961792,0.46,0.11,9.61,0.0,0.0,0.0,0.02,-0.01,0.68,0.74,-8.32566039141203e-15,-1.246179962284863e-13,-8.07791963229644e-15
3.076554536819458,0.46,0.11,9.61,0.0,0.0,0.0,0.02,-0.01,0.68,0.74,-8.32566039141203e-15,-1.246179962284863e-13,-8.07791963229644e-15
3.0770082473754883,0.46,0.11,9.61,0.0,0.0,0.0,0.02,-0.01,0.68,0.74,-8.32566039141203e-15,-1.246179962284863e-13,-8.07791963229644e-15
3.0775015354156494,0.46,0.11,9.61,0.0,0.0,0.0,0.02,-0.01,0.68,0.74,-8.32566039141203e-15,-1.246179962284863e-13,-8.07791963229644e-15
3.138867139816284,0.46,0.11,9.61,0.0,0.0,0.0,0.02,-0.01,0.68,0.74,-8.32566039141203e-15,-1.246179962284863e-13,-8.07791963229644e-15
3.139469623565674,0.46,0.11,9.61,0.0,0.0,0.0,0.02,-0.01,0.68,0.74,-8.32566039141203e-15,-1.246179962284863e-13,-8.07791963229644e-15
3.1399526596069336,0.46,0.11,9.61,0.0,0.0,0.0,0.02,-0.01,0.68,0.74,-8.32566039141203e-15,-1.246179962284863e-13,-8.07791963229644e-15
3.1404354572296143,0.46,0.11,9.61,0.0,0.0,0.0,0.02,-0.01,0.68,0.74,-8.32566039141203e-15,-1.246179962284863e-13,-8.07791963229644e-15
3.1408958435058594,0.46,0.11,9.61,0.0,0.0,0.0,0.02,-0.01,0.68,0.74,-8.32566039141203e-15,-1.246179962284863e-13,-8.07791963229644e-15
3.1413490772247314,0.46,0.11,9.61,0.0,0.0,0.0,0.02,-0.01,0.68,0.74,-8.32566039141203e-15,-1.246179962284863e-13,-8.07791963229644e-15
3.141867160797119,0.46,0.11,9.68,0.0,0.0,0.0,0.02,-0.01,0.68,0.74,-8.32566039141203e-15,-1.246179962284863e-13,-8.07791963229644e-15
3.1424500942230225,0.46,0.11,9.68,0.0,0.0,0.0,0.02,-0.01,0.68,0.74,-8.32566039141203e-15,-1.246179962284863e-13,-8.07791963229644e-15
3.1429014205932617,0.46,0.11,9.68,0.0,0.0,0.0,0.02,-0.01,0.68,0.74,-8.32566039141203e-15,-1.246179962284863e-13,-8.07791963229644e-15
3.1433894634246826,0.46,0.11,9.68,0.0,0.0,0.0,0.02,-0.01,0.68,0.74,-8.32566039141203e-15,-1.246179962284863e-13,-8.07791963229644e-15
3.143847942352295,0.46,0.11,9.68,0.0,0.0,0.0,0.02,-0.01,0.68,0.74,-8.32566039141203e-15,-1.246179962284863e-13,-8.07791963229644e-15
3.144373893737793,0.46,0.11,9.68,0.0,0.0,0.0,0.02,-0.01,0.68,0.74,-8.32566039141203e-15,-1.246179962284863e-13,-8.07791963229644e-15
3.1448569297790527,0.46,0.11,9.68,0.0,0.0,0.0,0.02,-0.01,0.68,0.74,-8.32566039141203e-15,-1.246179962284863e-13,-8.07791963229644e-15
3.145299196243286,0.46,0.11,9.68,0.0,0.0,0.0,0.02,-0.01,0.68,0.74,-8.32566039141203e-15,-1.246179962284863e-13,-8.07791963229644e-15
3.205378293991089,0.46,0.15,9.75,0.0,0.0,0.0,0.02,-0.01,0.68,0.74,-8.32566039141203e-15,-1.246179962284863e-13,-8.07791963229644e-15
3.2060413360595703,0.46,0.15,9.75,0.0,0.0,0.0,0.02,-0.01,0.68,0.74,-8.32566039141203e-15,-1.246179962284863e-13,-8.07791963229644e-15
3.206573009490967,0.46,0.15,9.75,0.0,0.0,0.0,0.02,-0.01,0.68,0.74,-8.32566039141203e-15,-1.246179962284863e-13,-8.07791963229644e-15
3.2070062160491943,0.46,0.15,9.75,0.0,0.0,0.0,0.02,-0.01,0.68,0.74,-8.32566039141203e-15,-1.246179962284863e-13,-8.07791963229644e-15
3.2074546813964844,0.46,0.15,9.75,0.0,0.0,0.0,0.02,-0.01,0.68,0.74,-8.32566039141203e-15,-1.246179962284863e-13,-8.07791963229644e-15
3.207897663116455,0.46,0.15,9.75,0.0,0.0,0.0,0.02,-0.01,0.68,0.74,-8.32566039141203e-15,-1.246179962284863e-13,-8.07791963229644e-15
3.208348035812378,0.46,0.15,9.75,0.0,0.0,0.0,0.02,-0.01,0.68,0.74,-8.32566039141203e-15,-1.246179962284863e-13,-8.07791963229644e-15
3.2088189125061035,0.46,0.15,9.75,0.0,0.0,0.0,0.02,-0.01,0.68,0.74,-8.32566039141203e-15,-1.246179962284863e-13,-8.07791963229644e-15
3.209373950958252,0.46,0.15,9.75,0.0,0.0,0.0,0.02,-0.01,0.68,0.74,-8.32566039141203e-15,-1.246179962284863e-13,-8.07791963229644e-15
3.2098453044891357,0.46,0.15,9.75,0.0,0.0,0.0,0.02,-0.01,0.68,0.74,-8.32566039141203e-15,-1.246179962284863e-13,-8.07791963229644e-15
3.21030592918396,0.46,0.15,9.75,0.0,0.0,0.0,0.02,-0.01,0.68,0.74,-8.32566039141203e-15,-1.246179962284863e-13,-8.07791963229644e-15
3.2107505798339844,0.46,0.15,9.75,0.0,0.0,0.0,0.02,-0.01,0.68,0.74,-8.32566039141203e-15,-1.246179962284863e-13,-8.07791963229644e-15
3.2112839221954346,0.61,0.15,9.83,0.0,0.0,0.0,0.02,-0.01,0.68,0.74,-8.32566039141203e-15,-1.246179962284863e-13,-8.07791963229644e-15
3.2117767333984375,0.61,0.15,9.83,0.0,0.0,0.0,0.02,-0.01,0.68,0.74,-8.32566039141203e-15,-1.246179962284863e-13,-8.07791963229644e-15
3.272865056991577,0.61,0.15,9.83,0.0,0.0,0.0,0.02,-0.01,0.68,0.74,-8.32566039141203e-15,-1.246179962284863e-13,-8.07791963229644e-15
3.2736129760742188,0.61,0.15,9.83,0.0,0.0,0.0,0.02,-0.01,0.68,0.74,-8.32566039141203e-15,-1.246179962284863e-13,-8.07791963229644e-15
3.2741410732269287,0.61,0.15,9.83,0.0,0.0,0.0,0.02,-0.01,0.68,0.74,-8.32566039141203e-15,-1.246179962284863e-13,-8.07791963229644e-15
3.2746360301971436,0.61,0.15,9.83,0.0,0.0,0.0,0.02,-0.01,0.68,0.74,-8.32566039141203e-15,-1.246179962284863e-13,-8.07791963229644e-15
3.275104284286499,0.61,0.15,9.83,0.0,0.0,0.0,0.02,-0.01,0.68,0.74,-8.32566039141203e-15,-1.246179962284863e-13,-8.07791963229644e-15
3.275578737258911,0.61,0.15,9.83,0.0,0.0,0.0,0.02,-0.01,0.68,0.74,-8.32566039141203e-15,-1.246179962284863e-13,-8.07791963229644e-15
3.2760069370269775,0.61,0.15,9.83,0.0,0.0,0.0,0.02,-0.01,0.68,0.74,-8.32566039141203e-15,-1.246179962284863e-13,-8.07791963229644e-15
3.2764599323272705,0.61,0.15,9.83,0.0,0.0,0.0,0.02,-0.01,0.68,0.74,-8.32566039141203e-15,-1.246179962284863e-13,-8.07791963229644e-15
3.2768800258636475,0.61,0.15,9.83,0.0,0.0,0.0,0.02,-0.01,0.68,0.74,-8.32566039141203e-15,-1.246179962284863e-13,-8.07791963229644e-15
3.277364492416382,0.61,0.15,9.83,0.0,0.0,0.0,0.02,-0.01,0.68,0.74,-8.32566039141203e-15,-1.246179962284863e-13,-8.07791963229644e-15
3.277803421020508,0.65,0.19,10.02,0.0,0.0,0.0,0.02,-0.01,0.68,0.74,-8.32566039141203e-15,-1.246179962284863e-13,-8.07791963229644e-15
3.278235912322998,0.65,0.19,10.02,0.0,0.0,0.0,0.02,-0.01,0.68,0.74,-8.32566039141203e-15,-1.246179962284863e-13,-8.07791963229644e-15
3.27886962890625,0.65,0.19,10.02,0.0,0.0,0.0,0.02,-0.01,0.68,0.74,-8.32566039141203e-15,-1.246179962284863e-13,-8.07791963229644e-15
3.2795538902282715,0.65,0.19,10.02,0.0,0.0,0.0,0.02,-0.01,0.68,0.74,-8.32566039141203e-15,-1.246179962284863e-13,-8.07791963229644e-15
3.34031343460083,0.65,0.19,10.02,0.0,0.0,0.0,0.02,-0.01,0.68,0.74,-8.32566039141203e-15,-1.246179962284863e-13,-8.07791963229644e-15
3.3409626483917236,0.65,0.19,10.02,0.0,0.0,0.0,0.02,-0.01,0.68,0.74,-8.32566039141203e-15,-1.246179962284863e-13,-8.07791963229644e-15
3.3414976596832275,0.54,0.15,9.79,0.0,0.0,0.0,0.02,-0.01,0.68,0.74,-8.32566039141203e-15,-1.246179962284863e-13,-8.07791963229644e-15
3.341970443725586,0.54,0.15,9.79,0.0,0.0,0.0,0.02,-0.01,0.68,0.74,-8.32566039141203e-15,-1.246179962284863e-13,-8.07791963229644e-15
3.342534303665161,0.54,0.15,9.79,0.0,0.0,0.0,0.02,-0.01,0.68,0.74,-8.32566039141203e-15,-1.246179962284863e-13,-8.07791963229644e-15
3.3431103229522705,0.54,0.15,9.79,0.0,0.0,0.0,0.02,-0.01,0.68,0.74,-8.32566039141203e-15,-1.246179962284863e-13,-8.07791963229644e-15
3.3435709476470947,0.54,0.15,9.79,0.0,0.0,0.0,0.02,-0.01,0.68,0.74,-8.32566039141203e-15,-1.246179962284863e-13,-8.07791963229644e-15
3.3440592288970947,0.54,0.15,9.79,0.0,0.0,0.0,0.02,-0.01,0.68,0.74,-8.32566039141203e-15,-1.246179962284863e-13,-8.07791963229644e-15
3.3444855213165283,0.54,0.15,9.79,0.0,0.0,0.0,0.02,-0.01,0.68,0.74,-8.32566039141203e-15,-1.246179962284863e-13,-8.07791963229644e-15
3.3450896739959717,0.54,0.15,9.79,0.0,0.0,0.0,0.02,-0.01,0.68,0.74,-8.32566039141203e-15,-1.246179962284863e-13,-8.07791963229644e-15
3.345604419708252,0.5,0.19,9.87,0.0,0.0,0.0,0.02,-0.01,0.68,0.74,-8.32566039141203e-15,-1.246179962284863e-13,-8.07791963229644e-15
3.346338987350464,0.5,0.19,9.87,0.0,0.0,0.0,0.02,-0.01,0.68,0.74,-8.32566039141203e-15,-1.246179962284863e-13,-8.07791963229644e-15
3.3468873500823975,0.5,0.19,9.87,0.0,0.0,0.0,0.02,-0.01,0.68,0.74,-8.32566039141203e-15,-1.246179962284863e-13,-8.07791963229644e-15
3.3473963737487793,0.5,0.19,9.87,0.0,0.0,0.0,0.02,-0.01,0.68,0.74,-8.32566039141203e-15,-1.246179962284863e-13,-8.07791963229644e-15
3.406826972961426,0.5,0.19,9.87,0.0,0.0,0.0,0.02,-0.01,0.68,0.74,-8.32566039141203e-15,-1.246179962284863e-13,-8.07791963229644e-15
3.40757155418396,0.5,0.19,9.87,0.0,0.0,0.0,0.02,-0.01,0.68,0.74,-8.32566039141203e-15,-1.246179962284863e-13,-8.07791963229644e-15
3.4081027507781982,0.5,0.19,9.87,0.0,0.0,0.0,0.02,-0.01,0.68,0.74,-8.32566039141203e-15,-1.246179962284863e-13,-8.07791963229644e-15
3.4086270332336426,0.5,0.19,9.87,0.0,0.0,0.0,0.02,-0.01,0.68,0.74,-8.32566039141203e-15,-1.246179962284863e-13,-8.07791963229644e-15
3.409088611602783,0.5,0.19,9.87,0.0,0.0,0.0,0.02,-0.01,0.68,0.74,-8.32566039141203e-15,-1.246179962284863e-13,-8.07791963229644e-15
3.4096291065216064,0.5,0.19,9.87,0.0,0.0,0.0,0.02,-0.01,0.68,0.74,-8.32566039141203e-15,-1.246179962284863e-13,-8.07791963229644e-15
3.4102096557617188,0.5,0.19,9.87,0.0,0.0,0.0,0.02,-0.01,0.68,0.74,-8.32566039141203e-15,-1.246179962284863e-13,-8.07791963229644e-15
3.4106972217559814,0.5,0.19,9.87,0.0,0.0,0.0,0.02,-0.01,0.68,0.74,-8.32566039141203e-15,-1.246179962284863e-13,-8.07791963229644e-15
3.4113078117370605,0.5,0.19,9.87,0.0,0.0,0.0,0.02,-0.01,0.68,0.74,-8.32566039141203e-15,-1.246179962284863e-13,-8.07791963229644e-15
3.4117603302001953,0.5,0.19,9.87,0.0,0.0,0.0,0.02,-0.01,0.68,0.74,-8.32566039141203e-15,-1.246179962284863e-13,-8.07791963229644e-15
3.4124042987823486,0.5,0.19,9.87,0.0,0.0,0.0,0.02,-0.01,0.68,0.74,-8.32566039141203e-15,-1.246179962284863e-13,-8.07791963229644e-15
3.4130401611328125,0.5,0.19,9.87,0.0,0.0,0.0,0.02,-0.01,0.68,0.74,-8.32566039141203e-15,-1.246179962284863e-13,-8.07791963229644e-15
3.4135258197784424,0.46,0.11,9.71,0.0,0.0,0.0,0.02,-0.01,0.68,0.74,-8.32566039141203e-15,-1.246179962284863e-13,-8.07791963229644e-15
3.4140591621398926,0.46,0.11,9.71,0.0,0.0,0.0,0.02,-0.01,0.68,0.74,-8.32566039141203e-15,-1.246179962284863e-13,-8.07791963229644e-15
3.4730911254882812,0.46,0.11,9.71,0.0,0.0,0.0,0.02,-0.01,0.68,0.74,-8.32566039141203e-15,-1.246179962284863e-13,-8.07791963229644e-15
3.473766565322876,0.46,0.11,9.71,0.0,0.0,0.0,0.02,-0.01,0.68,0.74,-8.32566039141203e-15,-1.246179962284863e-13,-8.07791963229644e-15
3.474302053451538,0.46,0.11,9.71,0.0,0.0,0.0,0.02,-0.01,0.68,0.74,-8.32566039141203e-15,-1.246179962284863e-13,-8.07791963229644e-15
3.47475266456604,0.46,0.11,9.71,0.0,0.0,0.0,0.02,-0.01,0.68,0.74,-8.32566039141203e-15,-1.246179962284863e-13,-8.07791963229644e-15
3.4752049446105957,0.46,0.11,9.71,0.0,0.0,0.0,0.02,-0.01,0.68,0.74,-8.32566039141203e-15,-1.246179962284863e-13,-8.07791963229644e-15
3.4756338596343994,0.46,0.11,9.71,0.0,0.0,0.0,0.02,-0.01,0.68,0.74,-8.32566039141203e-15,-1.246179962284863e-13,-8.07791963229644e-15
3.4760689735412598,0.46,0.11,9.71,0.0,0.0,0.0,0.02,-0.01,0.68,0.74,-8.32566039141203e-15,-1.246179962284863e-13,-8.07791963229644e-15
3.4765336513519287,0.46,0.11,9.71,0.0,0.0,0.0,0.02,-0.01,0.68,0.74,-8.32566039141203e-15,-1.246179962284863e-13,-8.07791963229644e-15
3.4769959449768066,0.61,0.26,10.02,0.0,0.0,0.0,0.02,-0.01,0.68,0.74,-8.32566039141203e-15,-1.246179962284863e-13,-8.07791963229644e-15
3.4774365425109863,0.61,0.26,10.02,0.0,0.0,0.0,0.02,-0.01,0.68,0.74,-8.32566039141203e-15,-1.246179962284863e-13,-8.07791963229644e-15
3.477928876876831,0.61,0.26,10.02,0.0,0.0,0.0,0.02,-0.01,0.68,0.74,-8.32566039141203e-15,-1.246179962284863e-13,-8.07791963229644e-15
3.4784371852874756,0.61,0.26,10.02,0.0,0.0,0.0,0.02,-0.01,0.68,0.74,-8.32566039141203e-15,-1.246179962284863e-13,-8.07791963229644e-15
3.4789535999298096,0.61,0.26,10.02,0.0,0.0,0.0,0.02,-0.01,0.68,0.74,-8.32566039141203e-15,-1.246179962284863e-13,-8.07791963229644e-15
3.4795238971710205,0.61,0.26,10.02,0.0,0.0,0.0,0.02,-0.01,0.68,0.74,-8.32566039141203e-15,-1.246179962284863e-13,-8.07791963229644e-15
3.5358221530914307,0.42,0.15,9.71,0.0,0.0,0.0,0.02,-0.01,0.68,0.74,-8.32566039141203e-15,-1.246179962284863e-13,-8.07791963229644e-15
3.536475658416748,0.42,0.15,9.71,0.0,0.0,0.0,0.02,-0.01,0.68,0.74,-8.32566039141203e-15,-1.246179962284863e-13,-8.07791963229644e-15
3.537076234817505,0.42,0.15,9.71,0.0,0.0,0.0,0.02,-0.01,0.68,0.74,-8.32566039141203e-15,-1.246179962284863e-13,-8.07791963229644e-15
3.5376362800598145,0.42,0.15,9.71,0.0,0.0,0.0,0.02,-0.01,0.68,0.74,-8.32566039141203e-15,-1.246179962284863e-13,-8.07791963229644e-15
3.5380849838256836,0.42,0.15,9.71,0.0,0.0,0.0,0.02,-0.01,0.68,0.74,-8.32566039141203e-15,-1.246179962284863e-13,-8.07791963229644e-15
3.5385963916778564,0.42,0.15,9.71,0.0,0.0,0.0,0.02,-0.01,0.68,0.74,-8.32566039141203e-15,-1.246179962284863e-13,-8.07791963229644e-15
3.5390408039093018,0.42,0.15,9.71,0.0,0.0,0.0,0.02,-0.01,0.68,0.74,-8.32566039141203e-15,-1.246179962284863e-13,-8.07791963229644e-15
3.5395147800445557,0.42,0.15,9.71,0.0,0.0,0.0,0.02,-0.01,0.68,0.74,-8.32566039141203e-15,-1.246179962284863e-13,-8.07791963229644e-15
3.539975881576538,0.42,0.15,9.71,0.0,0.0,0.0,0.02,-0.01,0.68,0.74,-8.32566039141203e-15,-1.246179962284863e-13,-8.07791963229644e-15
3.5404274463653564,0.42,0.15,9.71,0.0,0.0,0.0,0.02,-0.01,0.68,0.74,-8.32566039141203e-15,-1.246179962284863e-13,-8.07791963229644e-15
3.5408763885498047,0.61,0.19,9.87,0.0,0.0,0.0,0.02,-0.01,0.68,0.74,-8.32566039141203e-15,-1.246179962284863e-13,-8.07791963229644e-15
3.5413763523101807,0.61,0.19,9.87,0.0,0.0,0.0,0.02,-0.01,0.68,0.74,-8.32566039141203e-15,-1.246179962284863e-13,-8.07791963229644e-15
3.541846990585327,0.61,0.19,9.87,0.0,0.0,0.0,0.02,-0.01,0.68,0.74,-8.32566039141203e-15,-1.246179962284863e-13,-8.07791963229644e-15
3.5423336029052734,0.61,0.19,9.87,0.0,0.0,0.0,0.02,-0.01,0.68,0.74,-8.32566039141203e-15,-1.246179962284863e-13,-8.07791963229644e-15
3.601184368133545,0.61,0.19,9.87,0.0,0.0,0.0,0.02,-0.01,0.68,0.74,-8.32566039141203e-15,-1.246179962284863e-13,-8.07791963229644e-15
3.601839542388916,0.61,0.19,9.87,0.0,0.0,0.0,0.02,-0.01,0.68,0.74,-8.32566039141203e-15,-1.246179962284863e-13,-8.07791963229644e-15
3.602383613586426,0.61,0.19,9.87,0.0,0.0,0.0,0.02,-0.01,0.68,0.74,-8.32566039141203e-15,-1.246179962284863e-13,-8.07791963229644e-15
3.6028640270233154,0.61,0.19,9.87,0.0,0.0,0.0,0.02,-0.01,0.68,0.74,-8.32566039141203e-15,-1.246179962284863e-13,-8.07791963229644e-15
3.6033835411071777,0.61,0.19,9.87,0.0,0.0,0.0,0.02,-0.01,0.68,0.74,-8.32566039141203e-15,-1.246179962284863e-13,-8.07791963229644e-15
3.6038362979888916,0.61,0.19,9.87,0.0,0.0,0.0,0.02,-0.01,0.68,0.74,-8.32566039141203e-15,-1.246179962284863e-13,-8.07791963229644e-15
3.604267120361328,0.61,0.19,9.83,0.0,0.0,0.0,0.02,-0.01,0.68,0.74,-8.32566039141203e-15,-1.246179962284863e-13,-8.07791963229644e-15
3.604752779006958,0.61,0.19,9.83,0.0,0.0,0.0,0.02,-0.01,0.68,0.74,-8.32566039141203e-15,-1.246179962284863e-13,-8.07791963229644e-15
3.605267286300659,0.61,0.19,9.83,0.0,0.0,0.0,0.02,-0.01,0.68,0.74,-8.32566039141203e-15,-1.246179962284863e-13,-8.07791963229644e-15
3.6058101654052734,0.61,0.19,9.83,0.0,0.0,0.0,0.02,-0.01,0.68,0.74,-8.32566039141203e-15,-1.246179962284863e-13,-8.07791963229644e-15
3.606287717819214,0.61,0.19,9.83,0.0,0.0,0.0,0.02,-0.01,0.68,0.74,-8.32566039141203e-15,-1.246179962284863e-13,-8.07791963229644e-15
3.606748104095459,0.61,0.19,9.83,0.0,0.0,0.0,0.02,-0.01,0.68,0.74,-8.32566039141203e-15,-1.246179962284863e-13,-8.07791963229644e-15
3.6655261516571045,0.61,0.19,9.83,0.0,0.0,0.0,0.02,-0.01,0.68,0.74,-8.32566039141203e-15,-1.246179962284863e-13,-8.07791963229644e-15
3.6662161350250244,0.61,0.19,9.83,0.0,0.0,0.0,0.02,-0.01,0.68,0.74,-8.32566039141203e-15,-1.246179962284863e-13,-8.07791963229644e-15
3.6669445037841797,0.61,0.19,9.83,0.0,0.0,0.0,0.02,-0.01,0.68,0.74,-8.32566039141203e-15,-1.246179962284863e-13,-8.07791963229644e-15
3.667353391647339,0.61,0.19,9.83,0.0,0.0,0.0,0.02,-0.01,0.68,0.74,-8.32566039141203e-15,-1.246179962284863e-13,-8.07791963229644e-15
3.667752504348755,0.57,0.23,9.87,0.0,0.0,0.0,0.02,-0.01,0.68,0.74,-8.32566039141203e-15,-1.246179962284863e-13,-8.07791963229644e-15
3.6681313514709473,0.57,0.23,9.87,0.0,0.0,0.0,0.02,-0.01,0.68,0.74,-8.32566039141203e-15,-1.246179962284863e-13,-8.07791963229644e-15
3.6685352325439453,0.57,0.23,9.87,0.0,0.0,0.0,0.02,-0.01,0.68,0.74,-8.32566039141203e-15,-1.246179962284863e-13,-8.07791963229644e-15
3.6689224243164062,0.57,0.23,9.87,0.0,0.0,0.0,0.02,-0.01,0.68,0.74,-8.32566039141203e-15,-1.246179962284863e-13,-8.07791963229644e-15
3.66929292678833,0.57,0.23,9.87,0.0,0.0,0.0,0.02,-0.01,0.68,0.74,-8.32566039141203e-15,-1.246179962284863e-13,-8.07791963229644e-15
3.6697089672088623,0.57,0.23,9.87,0.0,0.0,0.0,0.02,-0.01,0.68,0.74,-8.32566039141203e-15,-1.246179962284863e-13,-8.07791963229644e-15
3.6700947284698486,0.42,0.11,9.64,0.0,0.0,0.0,0.02,-0.01,0.68,0.74,-8.32566039141203e-15,-1.246179962284863e-13,-8.07791963229644e-15
3.6707096099853516,0.42,0.11,9.64,0.0,0.0,0.0,0.02,-0.01,0.68,0.74,-8.32566039141203e-15,-1.246179962284863e-13,-8.07791963229644e-15
3.67110538482666,0.42,0.11,9.64,0.0,0.0,0.0,0.02,-0.01,0.68,0.74,-8.32566039141203e-15,-1.246179962284863e-13,-8.07791963229644e-15
3.6715221405029297,0.42,0.11,9.64,0.0,0.0,0.0,0.02,-0.01,0.68,0.74,-8.32566039141203e-15,-1.246179962284863e-13,-8.07791963229644e-15
3.6719253063201904,0.42,0.11,9.64,0.0,0.0,0.0,0.02,-0.01,0.68,0.74,-8.32566039141203e-15,-1.246179962284863e-13,-8.07791963229644e-15
3.6723616123199463,0.42,0.11,9.64,0.0,0.0,0.0,0.02,-0.01,0.68,0.74,-8.32566039141203e-15,-1.246179962284863e-13,-8.07791963229644e-15
3.733485460281372,0.42,0.11,9.64,0.0,0.0,0.0,0.02,-0.01,0.68,0.74,-8.32566039141203e-15,-1.246179962284863e-13,-8.07791963229644e-15
3.7340822219848633,0.42,0.11,9.64,0.0,0.0,0.0,0.02,-0.01,0.68,0.74,-8.32566039141203e-15,-1.246179962284863e-13,-8.07791963229644e-15
3.7345950603485107,0.42,0.11,9.64,0.0,0.0,0.0,0.02,-0.01,0.68,0.74,-8.32566039141203e-15,-1.246179962284863e-13,-8.07791963229644e-15
3.7350828647613525,0.42,0.11,9.64,0.0,0.0,0.0,0.02,-0.01,0.68,0.74,-8.32566039141203e-15,-1.246179962284863e-13,-8.07791963229644e-15
3.7355310916900635,0.46,0.15,9.71,0.0,0.0,0.0,0.02,-0.01,0.68,0.74,-8.32566039141203e-15,-1.246179962284863e-13,-8.07791963229644e-15
3.7359704971313477,0.46,0.15,9.71,0.0,0.0,0.0,0.02,-0.01,0.68,0.74,-8.32566039141203e-15,-1.246179962284863e-13,-8.07791963229644e-15
3.7364695072174072,0.46,0.15,9.71,0.0,0.0,0.0,0.02,-0.01,0.68,0.74,-8.32566039141203e-15,-1.246179962284863e-13,-8.07791963229644e-15
3.7369136810302734,0.46,0.15,9.71,0.0,0.0,0.0,0.02,-0.01,0.68,0.74,-8.32566039141203e-15,-1.246179962284863e-13,-8.07791963229644e-15
3.7373738288879395,0.46,0.15,9.71,0.0,0.0,0.0,0.02,-0.01,0.68,0.74,-8.32566039141203e-15,-1.246179962284863e-13,-8.07791963229644e-15
3.7378082275390625,0.46,0.15,9.71,0.0,0.0,0.0,0.02,-0.01,0.68,0.74,-8.32566039141203e-15,-1.246179962284863e-13,-8.07791963229644e-15
3.7382757663726807,0.54,0.19,9.83,0.0,0.0,0.0,0.02,-0.01,0.68,0.74,-8.32566039141203e-15,-1.246179962284863e-13,-8.07791963229644e-15
3.738712787628174,0.54,0.19,9.83,0.0,0.0,0.0,0.02,-0.01,0.68,0.74,-8.32566039141203e-15,-1.246179962284863e-13,-8.07791963229644e-15
3.7391459941864014,0.54,0.19,9.83,0.0,0.0,0.0,0.02,-0.01,0.68,0.74,-8.32566039141203e-15,-1.246179962284863e-13,-8.07791963229644e-15
3.7396745681762695,0.54,0.19,9.83,0.0,0.0,0.0,0.02,-0.01,0.68,0.74,-8.32566039141203e-15,-1.246179962284863e-13,-8.07791963229644e-15
3.7978129386901855,0.54,0.19,9.83,0.0,0.0,0.0,0.02,-0.01,0.68,0.74,-8.32566039141203e-15,-1.246179962284863e-13,-8.07791963229644e-15
3.798506259918213,0.54,0.19,9.83,0.0,0.0,0.0,0.02,-0.01,0.68,0.74,-8.32566039141203e-15,-1.246179962284863e-13,-8.07791963229644e-15
3.799123525619507,0.54,0.19,9.83,0.0,0.0,0.0,0.02,-0.01,0.68,0.74,-8.32566039141203e-15,-1.246179962284863e-13,-8.07791963229644e-15
3.7997584342956543,0.54,0.19,9.83,0.0,0.0,0.0,0.02,-0.01,0.68,0.74,-8.32566039141203e-15,-1.246179962284863e-13,-8.07791963229644e-15
3.800245761871338,0.54,0.19,9.83,0.0,0.0,0.0,0.02,-0.01,0.68,0.74,-8.32566039141203e-15,-1.246179962284863e-13,-8.07791963229644e-15
3.800771951675415,0.54,0.19,9.83,0.0,0.0,0.0,0.02,-0.01,0.68,0.74,-8.32566039141203e-15,-1.246179962284863e-13,-8.07791963229644e-15
3.8014273643493652,0.54,0.19,9.83,0.0,0.0,0.0,0.02,-0.01,0.68,0.74,-8.32566039141203e-15,-1.246179962284863e-13,-8.07791963229644e-15
3.8021812438964844,0.54,0.19,9.83,0.0,0.0,0.0,0.02,-0.01,0.68,0.74,-8.32566039141203e-15,-1.246179962284863e-13,-8.07791963229644e-15
3.802706480026245,0.61,0.19,9.98,0.0,0.0,0.0,0.02,-0.01,0.68,0.74,-8.32566039141203e-15,-1.246179962284863e-13,-8.07791963229644e-15
3.803152084350586,0.61,0.19,9.98,0.0,0.0,0.0,0.02,-0.01,0.68,0.74,-8.32566039141203e-15,-1.246179962284863e-13,-8.07791963229644e-15
3.8036327362060547,0.61,0.19,9.98,0.0,0.0,0.0,0.02,-0.01,0.68,0.74,-8.32566039141203e-15,-1.246179962284863e-13,-8.07791963229644e-15
3.804119348526001,0.61,0.19,9.98,0.0,0.0,0.0,0.02,-0.01,0.68,0.74,-8.32566039141203e-15,-1.246179962284863e-13,-8.07791963229644e-15
3.804525852203369,0.61,0.19,9.98,0.0,0.0,0.0,0.02,-0.01,0.68,0.74,-8.32566039141203e-15,-1.246179962284863e-13,-8.07791963229644e-15
3.804917573928833,0.61,0.19,9.98,0.0,0.0,0.0,0.02,-0.01,0.68,0.74,-8.32566039141203e-15,-1.246179962284863e-13,-8.07791963229644e-15
3.8052961826324463,0.61,0.19,9.98,0.0,0.0,0.0,0.02,-0.01,0.68,0.74,-8.32566039141203e-15,-1.246179962284863e-13,-8.07791963229644e-15
3.860952377319336,0.61,0.19,9.98,0.0,0.0,0.0,0.02,-0.01,0.68,0.74,-8.32566039141203e-15,-1.246179962284863e-13,-8.07791963229644e-15
3.8616018295288086,0.61,0.19,9.98,0.0,0.0,0.0,0.02,-0.01,0.68,0.74,-8.32566039141203e-15,-1.246179962284863e-13,-8.07791963229644e-15
3.8621983528137207,0.61,0.19,9.98,0.0,0.0,0.0,0.02,-0.01,0.68,0.74,-8.32566039141203e-15,-1.246179962284863e-13,-8.07791963229644e-15
3.8626904487609863,0.46,0.07,9.56,0.0,0.0,0.0,0.02,-0.01,0.68,0.74,-8.32566039141203e-15,-1.246179962284863e-13,-8.07791963229644e-15
3.8631434440612793,0.46,0.07,9.56,0.0,0.0,0.0,0.02,-0.01,0.68,0.74,-8.32566039141203e-15,-1.246179962284863e-13,-8.07791963229644e-15
3.8636274337768555,0.46,0.07,9.56,0.0,0.0,0.0,0.02,-0.01,0.68,0.74,-8.32566039141203e-15,-1.246179962284863e-13,-8.07791963229644e-15
3.8640670776367188,0.46,0.07,9.56,0.0,0.0,0.0,0.02,-0.01,0.68,0.74,-8.32566039141203e-15,-1.246179962284863e-13,-8.07791963229644e-15
3.8645553588867188,0.46,0.07,9.56,0.0,0.0,0.0,0.02,-0.01,0.68,0.74,-8.32566039141203e-15,-1.246179962284863e-13,-8.07791963229644e-15
3.864974021911621,0.46,0.07,9.56,0.0,0.0,0.0,0.02,-0.01,0.68,0.74,-8.32566039141203e-15,-1.246179962284863e-13,-8.07791963229644e-15
3.8654062747955322,0.61,0.19,10.07,0.0,0.0,0.0,0.02,-0.01,0.68,0.74,-8.32566039141203e-15,-1.246179962284863e-13,-8.07791963229644e-15
3.866114377975464,0.61,0.19,10.07,0.0,0.0,0.0,0.02,-0.01,0.68,0.74,-8.32566039141203e-15,-1.246179962284863e-13,-8.07791963229644e-15
3.8666913509368896,0.61,0.19,10.07,0.0,0.0,0.0,0.02,-0.01,0.68,0.74,-8.32566039141203e-15,-1.246179962284863e-13,-8.07791963229644e-15
3.8672049045562744,0.61,0.19,10.07,0.0,0.0,0.0,0.02,-0.01,0.68,0.74,-8.32566039141203e-15,-1.246179962284863e-13,-8.07791963229644e-15
3.924584150314331,0.61,0.19,10.07,0.0,0.0,0.0,0.02,-0.01,0.68,0.74,-8.32566039141203e-15,-1.246179962284863e-13,-8.07791963229644e-15
3.9253127574920654,0.61,0.19,10.07,0.0,0.0,0.0,0.02,-0.01,0.68,0.74,-8.32566039141203e-15,-1.246179962284863e-13,-8.07791963229644e-15
3.9258322715759277,0.61,0.19,10.07,0.0,0.0,0.0,0.02,-0.01,0.68,0.74,-8.32566039141203e-15,-1.246179962284863e-13,-8.07791963229644e-15
3.9263880252838135,0.61,0.19,10.07,0.0,0.0,0.0,0.02,-0.01,0.68,0.74,-8.32566039141203e-15,-1.246179962284863e-13,-8.07791963229644e-15
3.9268431663513184,0.42,0.11,9.61,0.0,0.0,0.0,0.02,-0.01,0.68,0.74,-8.32566039141203e-15,-1.246179962284863e-13,-8.07791963229644e-15
3.9272732734680176,0.42,0.11,9.61,0.0,0.0,0.0,0.02,-0.01,0.68,0.74,-8.32566039141203e-15,-1.246179962284863e-13,-8.07791963229644e-15
3.927730083465576,0.42,0.11,9.61,0.0,0.0,0.0,0.02,-0.01,0.68,0.74,-8.32566039141203e-15,-1.246179962284863e-13,-8.07791963229644e-15
3.928170919418335,0.42,0.11,9.61,0.0,0.0,0.0,0.02,-0.01,0.68,0.74,-8.32566039141203e-15,-1.246179962284863e-13,-8.07791963229644e-15
3.9286324977874756,0.42,0.11,9.61,0.0,0.0,0.0,0.02,-0.01,0.68,0.74,-8.32566039141203e-15,-1.246179962284863e-13,-8.07791963229644e-15
3.929285764694214,0.42,0.11,9.61,0.0,0.0,0.0,0.02,-0.01,0.68,0.74,-8.32566039141203e-15,-1.246179962284863e-13,-8.07791963229644e-15
3.9297478199005127,0.42,0.11,9.61,0.0,0.0,0.0,0.02,-0.01,0.68,0.74,-8.32566039141203e-15,-1.246179962284863e-13,-8.07791963229644e-15
3.9301393032073975,0.42,0.11,9.61,0.0,0.0,0.0,0.02,-0.01,0.68,0.74,-8.32566039141203e-15,-1.246179962284863e-13,-8.07791963229644e-15
3.9306013584136963,0.42,0.11,9.61,0.0,0.0,0.0,0.02,-0.01,0.68,0.74,-8.32566039141203e-15,-1.246179962284863e-13,-8.07791963229644e-15
3.9882116317749023,0.42,0.11,9.61,0.0,0.0,0.0,0.02,-0.01,0.68,0.74,-8.32566039141203e-15,-1.246179962284863e-13,-8.07791963229644e-15
3.988858461380005,0.42,0.11,9.61,0.0,0.0,0.0,0.02,-0.01,0.68,0.74,-8.32566039141203e-15,-1.246179962284863e-13,-8.07791963229644e-15
3.9893860816955566,0.42,0.11,9.61,0.0,0.0,0.0,0.02,-0.01,0.68,0.74,-8.32566039141203e-15,-1.246179962284863e-13,-8.07791963229644e-15
3.989873170852661,0.42,0.11,9.61,0.0,0.0,0.0,0.02,-0.01,0.68,0.74,-8.32566039141203e-15,-1.246179962284863e-13,-8.07791963229644e-15
3.9904232025146484,0.42,0.11,9.61,0.0,0.0,0.0,0.02,-0.01,0.68,0.74,-8.32566039141203e-15,-1.246179962284863e-13,-8.07791963229644e-15
3.99114727973938,0.42,0.11,9.61,0.0,0.0,0.0,0.02,-0.01,0.68,0.74,-8.32566039141203e-15,-1.246179962284863e-13,-8.07791963229644e-15
3.9918007850646973,0.42,0.11,9.61,0.0,0.0,0.0,0.02,-0.01,0.68,0.74,-8.32566039141203e-15,-1.246179962284863e-13,-8.07791963229644e-15
3.9922778606414795,0.42,0.11,9.61,0.0,0.0,0.0,0.02,-0.01,0.68,0.74,-8.32566039141203e-15,-1.246179962284863e-13,-8.07791963229644e-15
3.992767333984375,0.42,0.11,9.61,0.0,0.0,0.0,0.02,-0.01,0.68,0.74,-8.32566039141203e-15,-1.246179962284863e-13,-8.07791963229644e-15
3.993225336074829,0.61,0.23,10.07,0.0,0.0,0.0,0.02,-0.01,0.68,0.74,-8.32566039141203e-15,-1.246179962284863e-13,-8.07791963229644e-15
3.993678092956543,0.61,0.23,10.07,0.0,0.0,0.0,0.02,-0.01,0.68,0.74,-8.32566039141203e-15,-1.246179962284863e-13,-8.07791963229644e-15
3.9941084384918213,0.61,0.23,10.07,0.0,0.0,0.0,0.02,-0.01,0.68,0.74,-8.32566039141203e-15,-1.246179962284863e-13,-8.07791963229644e-15
3.99453067779541,0.61,0.23,10.07,0.0,0.0,0.0,0.02,-0.01,0.68,0.74,-8.32566039141203e-15,-1.246179962284863e-13,-8.07791963229644e-15
3.995014190673828,0.61,0.23,10.07,0.0,0.0,0.0,0.02,-0.01,0.68,0.74,-8.32566039141203e-15,-1.246179962284863e-13,-8.07791963229644e-15
4.053371429443359,0.61,0.23,10.07,0.0,0.0,0.0,0.02,-0.01,0.68,0.74,-8.32566039141203e-15,-1.246179962284863e-13,-8.07791963229644e-15
4.05415940284729,0.46,0.07,9.79,0.0,0.0,0.0,0.02,-0.01,0.68,0.74,-8.32566039141203e-15,-1.246179962284863e-13,-8.07791963229644e-15
4.054960250854492,0.46,0.07,9.79,0.0,0.0,0.0,0.02,-0.01,0.68,0.74,-8.32566039141203e-15,-1.246179962284863e-13,-8.07791963229644e-15
4.055824279785156,0.46,0.07,9.79,0.0,0.0,0.0,0.02,-0.01,0.68,0.74,-8.32566039141203e-15,-1.246179962284863e-13,-8.07791963229644e-15
4.056464910507202,0.46,0.07,9.79,0.0,0.0,0.0,0.02,-0.01,0.68,0.74,-8.32566039141203e-15,-1.246179962284863e-13,-8.07791963229644e-15
4.056865692138672,0.46,0.07,9.79,0.0,0.0,0.0,0.02,-0.01,0.68,0.74,-8.32566039141203e-15,-1.246179962284863e-13,-8.07791963229644e-15
4.057242393493652,0.46,0.07,9.79,0.0,0.0,0.0,0.02,-0.01,0.68,0.74,-8.32566039141203e-15,-1.246179962284863e-13,-8.07791963229644e-15
4.0576465129852295,0.46,0.07,9.79,0.0,0.0,0.0,0.02,-0.01,0.68,0.74,-8.32566039141203e-15,-1.246179962284863e-13,-8.07791963229644e-15
4.0580384731292725,0.46,0.07,9.79,0.0,0.0,0.0,0.02,-0.01,0.68,0.74,-8.32566039141203e-15,-1.246179962284863e-13,-8.07791963229644e-15
4.0584022998809814,0.61,0.19,9.95,0.0,0.0,0.0,0.02,-0.01,0.68,0.74,-8.32566039141203e-15,-1.246179962284863e-13,-8.07791963229644e-15
4.0587663650512695,0.61,0.19,9.95,0.0,0.0,0.0,0.02,-0.01,0.68,0.74,-8.32566039141203e-15,-1.246179962284863e-13,-8.07791963229644e-15
4.059293746948242,0.61,0.19,9.95,0.0,0.0,0.0,0.02,-0.01,0.68,0.74,-8.32566039141203e-15,-1.246179962284863e-13,-8.07791963229644e-15
4.059906959533691,0.61,0.19,9.95,0.0,0.0,0.0,0.02,-0.01,0.68,0.74,-8.32566039141203e-15,-1.246179962284863e-13,-8.07791963229644e-15
4.113304853439331,0.61,0.19,9.95,0.0,0.0,0.0,0.02,-0.01,0.68,0.74,-8.32566039141203e-15,-1.246179962284863e-13,-8.07791963229644e-15
4.113890886306763,0.61,0.19,9.95,0.0,0.0,0.0,0.02,-0.01,0.68,0.74,-8.32566039141203e-15,-1.246179962284863e-13,-8.07791963229644e-15
4.114439249038696,0.57,0.26,9.95,0.0,0.0,0.0,0.02,-0.01,0.68,0.74,-8.32566039141203e-15,-1.246179962284863e-13,-8.07791963229644e-15
4.114898681640625,0.57,0.26,9.95,0.0,0.0,0.0,0.02,-0.01,0.68,0.74,-8.32566039141203e-15,-1.246179962284863e-13,-8.07791963229644e-15
4.11537504196167,0.57,0.26,9.95,0.0,0.0,0.0,0.02,-0.01,0.68,0.74,-8.32566039141203e-15,-1.246179962284863e-13,-8.07791963229644e-15
4.115796327590942,0.57,0.26,9.95,0.0,0.0,0.0,0.02,-0.01,0.68,0.74,-8.32566039141203e-15,-1.246179962284863e-13,-8.07791963229644e-15
4.116378545761108,0.57,0.26,9.95,0.0,0.0,0.0,0.02,-0.01,0.68,0.74,-8.32566039141203e-15,-1.246179962284863e-13,-8.07791963229644e-15
4.116838216781616,0.57,0.26,9.95,0.0,0.0,0.0,0.02,-0.01,0.68,0.74,-8.32566039141203e-15,-1.246179962284863e-13,-8.07791963229644e-15
4.117233991622925,0.57,0.26,9.95,0.0,0.0,0.0,0.02,-0.01,0.68,0.74,-8.32566039141203e-15,-1.246179962284863e-13,-8.07791963229644e-15
4.117628812789917,0.57,0.26,9.95,0.0,0.0,0.0,0.02,-0.01,0.68,0.74,-8.32566039141203e-15,-1.246179962284863e-13,-8.07791963229644e-15
4.118051767349243,0.61,0.23,10.02,0.0,0.0,0.0,0.02,-0.01,0.68,0.74,-8.32566039141203e-15,-1.246179962284863e-13,-8.07791963229644e-15
4.118447780609131,0.61,0.23,10.02,0.0,0.0,0.0,0.02,-0.01,0.68,0.74,-8.32566039141203e-15,-1.246179962284863e-13,-8.07791963229644e-15
4.118858814239502,0.61,0.23,10.02,0.0,0.0,0.0,0.02,-0.01,0.68,0.74,-8.32566039141203e-15,-1.246179962284863e-13,-8.07791963229644e-15
4.172216415405273,0.61,0.23,10.02,0.0,0.0,0.0,0.02,-0.01,0.68,0.74,-8.32566039141203e-15,-1.246179962284863e-13,-8.07791963229644e-15
4.172979831695557,0.61,0.23,10.02,0.0,0.0,0.0,0.02,-0.01,0.68,0.74,-8.32566039141203e-15,-1.246179962284863e-13,-8.07791963229644e-15
4.173665285110474,0.61,0.23,10.02,0.0,0.0,0.0,0.02,-0.01,0.68,0.74,-8.32566039141203e-15,-1.246179962284863e-13,-8.07791963229644e-15
4.1744279861450195,0.57,0.15,9.79,0.0,0.0,0.0,0.02,-0.01,0.68,0.74,-8.32566039141203e-15,-1.246179962284863e-13,-8.07791963229644e-15
4.175244569778442,0.57,0.15,9.79,0.0,0.0,0.0,0.02,-0.01,0.68,0.74,-8.32566039141203e-15,-1.246179962284863e-13,-8.07791963229644e-15
4.176003932952881,0.57,0.15,9.79,0.0,0.0,0.0,0.02,-0.01,0.68,0.74,-8.32566039141203e-15,-1.246179962284863e-13,-8.07791963229644e-15
4.1764748096466064,0.57,0.15,9.79,0.0,0.0,0.0,0.02,-0.01,0.68,0.74,-8.32566039141203e-15,-1.246179962284863e-13,-8.07791963229644e-15
4.176931858062744,0.57,0.15,9.79,0.0,0.0,0.0,0.02,-0.01,0.68,0.74,-8.32566039141203e-15,-1.246179962284863e-13,-8.07791963229644e-15
4.177311420440674,0.57,0.15,9.79,0.0,0.0,0.0,0.02,-0.01,0.68,0.74,-8.32566039141203e-15,-1.246179962284863e-13,-8.07791963229644e-15
4.177779674530029,0.57,0.15,9.79,0.0,0.0,0.0,0.02,-0.01,0.68,0.74,-8.32566039141203e-15,-1.246179962284863e-13,-8.07791963229644e-15
4.1784749031066895,0.57,0.15,9.79,0.0,0.0,0.0,0.02,-0.01,0.68,0.74,-8.32566039141203e-15,-1.246179962284863e-13,-8.07791963229644e-15
4.179139137268066,0.54,0.23,9.99,0.0,0.0,0.0,0.02,-0.01,0.68,0.74,-8.32566039141203e-15,-1.246179962284863e-13,-8.07791963229644e-15
4.231121778488159,0.54,0.23,9.99,0.0,0.0,0.0,0.02,-0.01,0.68,0.74,-8.32566039141203e-15,-1.246179962284863e-13,-8.07791963229644e-15
4.2318878173828125,0.54,0.23,9.99,0.0,0.0,0.0,0.02,-0.01,0.68,0.74,-8.32566039141203e-15,-1.246179962284863e-13,-8.07791963229644e-15
4.232566595077515,0.54,0.23,9.99,0.0,0.0,0.0,0.02,-0.01,0.68,0.74,-8.32566039141203e-15,-1.246179962284863e-13,-8.07791963229644e-15
4.233020782470703,0.54,0.23,9.99,0.0,0.0,0.0,0.02,-0.01,0.68,0.74,-8.32566039141203e-15,-1.246179962284863e-13,-8.07791963229644e-15
4.233463287353516,0.54,0.23,9.99,0.0,0.0,0.0,0.02,-0.01,0.68,0.74,-8.32566039141203e-15,-1.246179962284863e-13,-8.07791963229644e-15
4.233952045440674,0.54,0.23,9.99,0.0,0.0,0.0,0.02,-0.01,0.68,0.74,-8.32566039141203e-15,-1.246179962284863e-13,-8.07791963229644e-15
4.234392166137695,0.54,0.23,9.99,0.0,0.0,0.0,0.02,-0.01,0.68,0.74,-8.32566039141203e-15,-1.246179962284863e-13,-8.07791963229644e-15
4.2348315715789795,0.54,0.23,9.99,0.0,0.0,0.0,0.02,-0.01,0.68,0.74,-8.32566039141203e-15,-1.246179962284863e-13,-8.07791963229644e-15
4.235321760177612,0.54,0.23,9.99,0.0,0.0,0.0,0.02,-0.01,0.68,0.74,-8.32566039141203e-15,-1.246179962284863e-13,-8.07791963229644e-15
4.235759973526001,0.61,0.23,10.02,0.0,0.0,0.0,0.02,-0.01,0.68,0.74,-8.32566039141203e-15,-1.246179962284863e-13,-8.07791963229644e-15
4.236226320266724,0.61,0.23,10.02,0.0,0.0,0.0,0.02,-0.01,0.68,0.74,-8.32566039141203e-15,-1.246179962284863e-13,-8.07791963229644e-15
4.236654043197632,0.61,0.23,10.02,0.0,0.0,0.0,0.02,-0.01,0.68,0.74,-8.32566039141203e-15,-1.246179962284863e-13,-8.07791963229644e-15
4.290512323379517,0.61,0.23,10.02,0.0,0.0,0.0,0.02,-0.01,0.68,0.74,-8.32566039141203e-15,-1.246179962284863e-13,-8.07791963229644e-15
4.29119086265564,0.61,0.23,10.02,0.0,0.0,0.0,0.02,-0.01,0.68,0.74,-8.32566039141203e-15,-1.246179962284863e-13,-8.07791963229644e-15
4.291796922683716,0.61,0.23,10.02,0.0,0.0,0.0,0.02,-0.01,0.68,0.74,-8.32566039141203e-15,-1.246179962284863e-13,-8.07791963229644e-15
4.292330265045166,0.61,0.23,10.02,0.0,0.0,0.0,0.02,-0.01,0.68,0.74,-8.32566039141203e-15,-1.246179962284863e-13,-8.07791963229644e-15
4.2927937507629395,0.61,0.23,10.02,0.0,0.0,0.0,0.02,-0.01,0.68,0.74,-8.32566039141203e-15,-1.246179962284863e-13,-8.07791963229644e-15
4.293306827545166,0.61,0.23,10.02,0.0,0.0,0.0,0.02,-0.01,0.68,0.74,-8.32566039141203e-15,-1.246179962284863e-13,-8.07791963229644e-15
4.293750047683716,0.61,0.23,10.02,0.0,0.0,0.0,0.02,-0.01,0.68,0.74,-8.32566039141203e-15,-1.246179962284863e-13,-8.07791963229644e-15
4.294190168380737,0.61,0.23,10.02,0.0,0.0,0.0,0.02,-0.01,0.68,0.74,-8.32566039141203e-15,-1.246179962284863e-13,-8.07791963229644e-15
4.29465913772583,0.61,0.23,10.02,0.0,0.0,0.0,0.02,-0.01,0.68,0.74,-8.32566039141203e-15,-1.246179962284863e-13,-8.07791963229644e-15
4.295227289199829,0.61,0.23,10.02,0.0,0.0,0.0,0.02,-0.01,0.68,0.74,-8.32566039141203e-15,-1.246179962284863e-13,-8.07791963229644e-15
4.295907974243164,0.61,0.23,10.02,0.0,0.0,0.0,0.02,-0.01,0.68,0.74,-8.32566039141203e-15,-1.246179962284863e-13,-8.07791963229644e-15
4.296450614929199,0.61,0.23,10.07,0.0,0.0,0.0,0.02,-0.01,0.68,0.74,-8.32566039141203e-15,-1.246179962284863e-13,-8.07791963229644e-15
4.296921253204346,0.61,0.23,10.07,0.0,0.0,0.0,0.02,-0.01,0.68,0.74,-8.32566039141203e-15,-1.246179962284863e-13,-8.07791963229644e-15
4.2973504066467285,0.61,0.23,10.07,0.0,0.0,0.0,0.02,-0.01,0.68,0.74,-8.32566039141203e-15,-1.246179962284863e-13,-8.07791963229644e-15
4.2978675365448,0.61,0.23,10.07,0.0,0.0,0.0,0.02,-0.01,0.68,0.74,-8.32566039141203e-15,-1.246179962284863e-13,-8.07791963229644e-15
4.3521082401275635,0.61,0.23,10.07,0.0,0.0,0.0,0.02,-0.01,0.68,0.74,-8.32566039141203e-15,-1.246179962284863e-13,-8.07791963229644e-15
4.35289740562439,0.61,0.23,10.07,0.0,0.0,0.0,0.02,-0.01,0.68,0.74,-8.32566039141203e-15,-1.246179962284863e-13,-8.07791963229644e-15
4.353389739990234,0.61,0.23,10.07,0.0,0.0,0.0,0.02,-0.01,0.68,0.74,-8.32566039141203e-15,-1.246179962284863e-13,-8.07791963229644e-15
4.353821754455566,0.61,0.23,10.07,0.0,0.0,0.0,0.02,-0.01,0.68,0.74,-8.32566039141203e-15,-1.246179962284863e-13,-8.07791963229644e-15
4.354273557662964,0.61,0.23,10.07,0.0,0.0,0.0,0.02,-0.01,0.68,0.74,-8.32566039141203e-15,-1.246179962284863e-13,-8.07791963229644e-15
4.3547203540802,0.61,0.23,10.07,0.0,0.0,0.0,0.02,-0.01,0.68,0.74,-8.32566039141203e-15,-1.246179962284863e-13,-8.07791963229644e-15
4.355273246765137,0.61,0.23,10.07,0.0,0.0,0.0,0.02,-0.01,0.68,0.74,-8.32566039141203e-15,-1.246179962284863e-13,-8.07791963229644e-15
4.355837106704712,0.61,0.23,10.07,0.0,0.0,0.0,0.02,-0.01,0.68,0.74,-8.32566039141203e-15,-1.246179962284863e-13,-8.07791963229644e-15
4.356343507766724,0.61,0.19,9.83,0.0,0.0,0.0,0.02,-0.01,0.68,0.74,-8.32566039141203e-15,-1.246179962284863e-13,-8.07791963229644e-15
4.35684871673584,0.61,0.19,9.83,0.0,0.0,0.0,0.02,-0.01,0.68,0.74,-8.32566039141203e-15,-1.246179962284863e-13,-8.07791963229644e-15
4.357329845428467,0.61,0.19,9.83,0.0,0.0,0.0,0.02,-0.01,0.68,0.74,-8.32566039141203e-15,-1.246179962284863e-13,-8.07791963229644e-15
4.3578245639801025,0.61,0.19,9.83,0.0,0.0,0.0,0.02,-0.01,0.68,0.74,-8.32566039141203e-15,-1.246179962284863e-13,-8.07791963229644e-15
4.409570693969727,0.61,0.19,9.83,0.0,0.0,0.0,0.02,-0.01,0.68,0.74,-8.32566039141203e-15,-1.246179962284863e-13,-8.07791963229644e-15
4.410278081893921,0.61,0.19,9.83,0.0,0.0,0.0,0.02,-0.01,0.68,0.74,-8.32566039141203e-15,-1.246179962284863e-13,-8.07791963229644e-15
4.410815954208374,0.61,0.19,9.83,0.0,0.0,0.0,0.02,-0.01,0.68,0.74,-8.32566039141203e-15,-1.246179962284863e-13,-8.07791963229644e-15
4.411320209503174,0.61,0.19,9.83,0.0,0.0,0.0,0.02,-0.01,0.68,0.74,-8.32566039141203e-15,-1.246179962284863e-13,-8.07791963229644e-15
4.411755800247192,0.61,0.19,9.83,0.0,0.0,0.0,0.02,-0.01,0.68,0.74,-8.32566039141203e-15,-1.246179962284863e-13,-8.07791963229644e-15
4.412192106246948,0.61,0.19,9.83,0.0,0.0,0.0,0.02,-0.01,0.68,0.74,-8.32566039141203e-15,-1.246179962284863e-13,-8.07791963229644e-15
4.412683963775635,0.46,0.11,9.57,0.0,0.0,0.0,0.02,-0.01,0.68,0.74,-8.32566039141203e-15,-1.246179962284863e-13,-8.07791963229644e-15
4.413257122039795,0.46,0.11,9.57,0.0,0.0,0.0,0.02,-0.01,0.68,0.74,-8.32566039141203e-15,-1.246179962284863e-13,-8.07791963229644e-15
4.413705825805664,0.46,0.11,9.57,0.0,0.0,0.0,0.02,-0.01,0.68,0.74,-8.32566039141203e-15,-1.246179962284863e-13,-8.07791963229644e-15
4.414154767990112,0.46,0.11,9.57,0.0,0.0,0.0,0.02,-0.01,0.68,0.74,-8.32566039141203e-15,-1.246179962284863e-13,-8.07791963229644e-15
4.4146058559417725,0.46,0.11,9.57,0.0,0.0,0.0,0.02,-0.01,0.68,0.74,-8.32566039141203e-15,-1.246179962284863e-13,-8.07791963229644e-15
4.415034532546997,0.46,0.11,9.57,0.0,0.0,0.0,0.02,-0.01,0.68,0.74,-8.32566039141203e-15,-1.246179962284863e-13,-8.07791963229644e-15
4.415511131286621,0.46,0.11,9.57,0.0,0.0,0.0,0.02,-0.01,0.68,0.74,-8.32566039141203e-15,-1.246179962284863e-13,-8.07791963229644e-15
4.467901945114136,0.46,0.11,9.57,0.0,0.0,0.0,0.02,-0.01,0.68,0.74,-8.32566039141203e-15,-1.246179962284863e-13,-8.07791963229644e-15
4.4688401222229,0.61,0.19,9.95,0.0,0.0,0.0,0.02,-0.01,0.68,0.74,-8.32566039141203e-15,-1.246179962284863e-13,-8.07791963229644e-15
4.469377279281616,0.61,0.19,9.95,0.0,0.0,0.0,0.02,-0.01,0.68,0.74,-8.32566039141203e-15,-1.246179962284863e-13,-8.07791963229644e-15
4.4698028564453125,0.61,0.19,9.95,0.0,0.0,0.0,0.02,-0.01,0.68,0.74,-8.32566039141203e-15,-1.246179962284863e-13,-8.07791963229644e-15
4.470191955566406,0.61,0.19,9.95,0.0,0.0,0.0,0.02,-0.01,0.68,0.74,-8.32566039141203e-15,-1.246179962284863e-13,-8.07791963229644e-15
4.470563650131226,0.61,0.19,9.95,0.0,0.0,0.0,0.02,-0.01,0.68,0.74,-8.32566039141203e-15,-1.246179962284863e-13,-8.07791963229644e-15
4.470977544784546,0.61,0.19,9.95,0.0,0.0,0.0,0.02,-0.01,0.68,0.74,-8.32566039141203e-15,-1.246179962284863e-13,-8.07791963229644e-15
4.471355199813843,0.61,0.19,9.95,0.0,0.0,0.0,0.02,-0.01,0.68,0.74,-8.32566039141203e-15,-1.246179962284863e-13,-8.07791963229644e-15
4.471718072891235,0.61,0.19,9.95,0.0,0.0,0.0,0.02,-0.01,0.68,0.74,-8.32566039141203e-15,-1.246179962284863e-13,-8.07791963229644e-15
4.4720776081085205,0.46,0.11,9.68,0.0,0.0,0.0,0.02,-0.01,0.68,0.74,-8.32566039141203e-15,-1.246179962284863e-13,-8.07791963229644e-15
4.4724555015563965,0.46,0.11,9.68,0.0,0.0,0.0,0.02,-0.01,0.68,0.74,-8.32566039141203e-15,-1.246179962284863e-13,-8.07791963229644e-15
4.472867965698242,0.46,0.11,9.68,0.0,0.0,0.0,0.02,-0.01,0.68,0.74,-8.32566039141203e-15,-1.246179962284863e-13,-8.07791963229644e-15
4.473250389099121,0.46,0.11,9.68,0.0,0.0,0.0,0.02,-0.01,0.68,0.74,-8.32566039141203e-15,-1.246179962284863e-13,-8.07791963229644e-15
4.525952577590942,0.46,0.11,9.68,0.0,0.0,0.0,0.02,-0.01,0.68,0.74,-8.32566039141203e-15,-1.246179962284863e-13,-8.07791963229644e-15
4.526618957519531,0.46,0.11,9.68,0.0,0.0,0.0,0.02,-0.01,0.68,0.74,-8.32566039141203e-15,-1.246179962284863e-13,-8.07791963229644e-15
4.5271055698394775,0.46,0.11,9.68,0.0,0.0,0.0,0.02,-0.01,0.68,0.74,-8.32566039141203e-15,-1.246179962284863e-13,-8.07791963229644e-15
4.527584791183472,0.46,0.11,9.68,0.0,0.0,0.0,0.02,-0.01,0.68,0.74,-8.32566039141203e-15,-1.246179962284863e-13,-8.07791963229644e-15
4.52803111076355,0.57,0.23,9.95,0.0,0.0,0.0,0.02,-0.01,0.68,0.74,-8.32566039141203e-15,-1.246179962284863e-13,-8.07791963229644e-15
4.5284388065338135,0.57,0.23,9.95,0.0,0.0,0.0,0.02,-0.01,0.68,0.74,-8.32566039141203e-15,-1.246179962284863e-13,-8.07791963229644e-15
4.528896808624268,0.57,0.23,9.95,0.0,0.0,0.0,0.02,-0.01,0.68,0.74,-8.32566039141203e-15,-1.246179962284863e-13,-8.07791963229644e-15
4.529322147369385,0.57,0.23,9.95,0.0,0.0,0.0,0.02,-0.01,0.68,0.74,-8.32566039141203e-15,-1.246179962284863e-13,-8.07791963229644e-15
4.529879570007324,0.57,0.23,9.95,0.0,0.0,0.0,0.02,-0.01,0.68,0.74,-8.32566039141203e-15,-1.246179962284863e-13,-8.07791963229644e-15
4.53035306930542,0.57,0.23,9.95,0.0,0.0,0.0,0.02,-0.01,0.68,0.74,-8.32566039141203e-15,-1.246179962284863e-13,-8.07791963229644e-15
4.581440210342407,0.57,0.23,9.95,0.0,0.0,0.0,0.02,-0.01,0.68,0.74,-8.32566039141203e-15,-1.246179962284863e-13,-8.07791963229644e-15
4.582118272781372,0.57,0.23,9.95,0.0,0.0,0.0,0.02,-0.01,0.68,0.74,-8.32566039141203e-15,-1.246179962284863e-13,-8.07791963229644e-15
4.582632541656494,0.57,0.23,9.98,0.0,0.0,0.0,0.02,-0.01,0.68,0.74,-8.32566039141203e-15,-1.246179962284863e-13,-8.07791963229644e-15
4.583078861236572,0.57,0.23,9.98,0.0,0.0,0.0,0.02,-0.01,0.68,0.74,-8.32566039141203e-15,-1.246179962284863e-13,-8.07791963229644e-15
4.583504915237427,0.57,0.23,9.98,0.0,0.0,0.0,0.02,-0.01,0.68,0.74,-8.32566039141203e-15,-1.246179962284863e-13,-8.07791963229644e-15
4.583983898162842,0.57,0.23,9.98,0.0,0.0,0.0,0.02,-0.01,0.68,0.74,-8.32566039141203e-15,-1.246179962284863e-13,-8.07791963229644e-15
4.5843894481658936,0.57,0.23,9.98,0.0,0.0,0.0,0.02,-0.01,0.68,0.74,-8.32566039141203e-15,-1.246179962284863e-13,-8.07791963229644e-15
4.584799766540527,0.57,0.23,9.98,0.0,0.0,0.0,0.02,-0.01,0.68,0.74,-8.32566039141203e-15,-1.246179962284863e-13,-8.07791963229644e-15
4.5851709842681885,0.57,0.15,9.75,0.0,0.0,0.0,0.02,-0.01,0.68,0.74,-8.32566039141203e-15,-1.246179962284863e-13,-8.07791963229644e-15
4.585644721984863,0.57,0.15,9.75,0.0,0.0,0.0,0.02,-0.01,0.68,0.74,-8.32566039141203e-15,-1.246179962284863e-13,-8.07791963229644e-15
4.58674955368042,0.57,0.15,9.75,0.0,0.0,0.0,0.02,-0.01,0.68,0.74,-8.32566039141203e-15,-1.246179962284863e-13,-8.07791963229644e-15
4.5872461795806885,0.57,0.15,9.75,0.0,0.0,0.0,0.02,-0.01,0.68,0.74,-8.32566039141203e-15,-1.246179962284863e-13,-8.07791963229644e-15
4.640054225921631,0.57,0.15,9.75,0.0,0.0,0.0,0.02,-0.01,0.68,0.74,-8.32566039141203e-15,-1.246179962284863e-13,-8.07791963229644e-15
4.640765428543091,0.57,0.15,9.75,0.0,0.0,0.0,0.02,-0.01,0.68,0.74,-8.32566039141203e-15,-1.246179962284863e-13,-8.07791963229644e-15
4.641294956207275,0.57,0.15,9.75,0.0,0.0,0.0,0.02,-0.01,0.68,0.74,-8.32566039141203e-15,-1.246179962284863e-13,-8.07791963229644e-15
4.64172625541687,0.57,0.15,9.75,0.0,0.0,0.0,0.02,-0.01,0.68,0.74,-8.32566039141203e-15,-1.246179962284863e-13,-8.07791963229644e-15
4.642196893692017,0.57,0.15,9.75,0.0,0.0,0.0,0.02,-0.01,0.68,0.74,-8.32566039141203e-15,-1.246179962284863e-13,-8.07791963229644e-15
4.642738580703735,0.57,0.15,9.75,0.0,0.0,0.0,0.02,-0.01,0.68,0.74,-8.32566039141203e-15,-1.246179962284863e-13,-8.07791963229644e-15
4.643328905105591,0.54,0.19,9.91,0.0,0.0,0.0,0.02,-0.01,0.68,0.74,-8.32566039141203e-15,-1.246179962284863e-13,-8.07791963229644e-15
4.643784284591675,0.54,0.19,9.91,0.0,0.0,0.0,0.02,-0.01,0.68,0.74,-8.32566039141203e-15,-1.246179962284863e-13,-8.07791963229644e-15
4.644209146499634,0.54,0.19,9.91,0.0,0.0,0.0,0.02,-0.01,0.68,0.74,-8.32566039141203e-15,-1.246179962284863e-13,-8.07791963229644e-15
4.644661903381348,0.54,0.19,9.91,0.0,0.0,0.0,0.02,-0.01,0.68,0.74,-8.32566039141203e-15,-1.246179962284863e-13,-8.07791963229644e-15
4.645105600357056,0.5,0.15,9.75,0.0,0.0,0.0,0.02,-0.01,0.68,0.74,-8.32566039141203e-15,-1.246179962284863e-13,-8.07791963229644e-15
4.6455724239349365,0.5,0.15,9.75,0.0,0.0,0.0,0.02,-0.01,0.68,0.74,-8.32566039141203e-15,-1.246179962284863e-13,-8.07791963229644e-15
4.646104097366333,0.5,0.15,9.75,0.0,0.0,0.0,0.02,-0.01,0.68,0.74,-8.32566039141203e-15,-1.246179962284863e-13,-8.07791963229644e-15
4.646575212478638,0.5,0.15,9.75,0.0,0.0,0.0,0.02,-0.01,0.68,0.74,-8.32566039141203e-15,-1.246179962284863e-13,-8.07791963229644e-15
4.69966983795166,0.5,0.15,9.75,0.0,0.0,0.0,0.02,-0.01,0.68,0.74,-8.32566039141203e-15,-1.246179962284863e-13,-8.07791963229644e-15
4.700286388397217,0.5,0.15,9.75,0.0,0.0,0.0,0.02,-0.01,0.68,0.74,-8.32566039141203e-15,-1.246179962284863e-13,-8.07791963229644e-15
4.7008044719696045,0.5,0.15,9.75,0.0,0.0,0.0,0.02,-0.01,0.68,0.74,-8.32566039141203e-15,-1.246179962284863e-13,-8.07791963229644e-15
4.701264142990112,0.5,0.15,9.75,0.0,0.0,0.0,0.02,-0.01,0.68,0.74,-8.32566039141203e-15,-1.246179962284863e-13,-8.07791963229644e-15
4.701675176620483,0.65,0.23,10.02,0.0,0.0,0.0,0.02,-0.01,0.68,0.74,-8.32566039141203e-15,-1.246179962284863e-13,-8.07791963229644e-15
4.702129602432251,0.65,0.23,10.02,0.0,0.0,0.0,0.02,-0.01,0.68,0.74,-8.32566039141203e-15,-1.246179962284863e-13,-8.07791963229644e-15
4.702563285827637,0.65,0.23,10.02,0.0,0.0,0.0,0.02,-0.01,0.68,0.74,-8.32566039141203e-15,-1.246179962284863e-13,-8.07791963229644e-15
4.703030586242676,0.65,0.23,10.02,0.0,0.0,0.0,0.02,-0.01,0.68,0.74,-8.32566039141203e-15,-1.246179962284863e-13,-8.07791963229644e-15
4.703473329544067,0.65,0.23,10.02,0.0,0.0,0.0,0.02,-0.01,0.68,0.74,-8.32566039141203e-15,-1.246179962284863e-13,-8.07791963229644e-15
4.703943252563477,0.65,0.23,10.02,0.0,0.0,0.0,0.02,-0.01,0.68,0.74,-8.32566039141203e-15,-1.246179962284863e-13,-8.07791963229644e-15
4.704362869262695,0.65,0.23,10.02,0.0,0.0,0.0,0.02,-0.01,0.68,0.74,-8.32566039141203e-15,-1.246179962284863e-13,-8.07791963229644e-15
4.70482063293457,0.65,0.23,10.02,0.0,0.0,0.0,0.02,-0.01,0.68,0.74,-8.32566039141203e-15,-1.246179962284863e-13,-8.07791963229644e-15
4.759902000427246,0.65,0.23,10.02,0.0,0.0,0.0,0.02,-0.01,0.68,0.74,-8.32566039141203e-15,-1.246179962284863e-13,-8.07791963229644e-15
4.760537624359131,0.65,0.23,10.02,0.0,0.0,0.0,0.02,-0.01,0.68,0.74,-8.32566039141203e-15,-1.246179962284863e-13,-8.07791963229644e-15
4.7610557079315186,0.57,0.23,9.98,0.0,0.0,0.0,0.02,-0.01,0.68,0.74,-8.32566039141203e-15,-1.246179962284863e-13,-8.07791963229644e-15
4.761485576629639,0.57,0.23,9.98,0.0,0.0,0.0,0.02,-0.01,0.68,0.74,-8.32566039141203e-15,-1.246179962284863e-13,-8.07791963229644e-15
4.762068748474121,0.57,0.23,9.98,0.0,0.0,0.0,0.02,-0.01,0.68,0.74,-8.32566039141203e-15,-1.246179962284863e-13,-8.07791963229644e-15
4.762514591217041,0.57,0.23,9.98,0.0,0.0,0.0,0.02,-0.01,0.68,0.74,-8.32566039141203e-15,-1.246179962284863e-13,-8.07791963229644e-15
4.762994766235352,0.57,0.23,9.98,0.0,0.0,0.0,0.02,-0.01,0.68,0.74,-8.32566039141203e-15,-1.246179962284863e-13,-8.07791963229644e-15
4.763487100601196,0.57,0.23,9.98,0.0,0.0,0.0,0.02,-0.01,0.68,0.74,-8.32566039141203e-15,-1.246179962284863e-13,-8.07791963229644e-15
4.764041900634766,0.57,0.23,9.98,0.0,0.0,0.0,0.02,-0.01,0.68,0.74,-8.32566039141203e-15,-1.246179962284863e-13,-8.07791963229644e-15
4.764504432678223,0.57,0.23,9.98,0.0,0.0,0.0,0.02,-0.01,0.68,0.74,-8.32566039141203e-15,-1.246179962284863e-13,-8.07791963229644e-15
4.764952182769775,0.61,0.19,9.98,0.0,0.0,0.0,0.02,-0.01,0.68,0.74,-8.32566039141203e-15,-1.246179962284863e-13,-8.07791963229644e-15
4.765444040298462,0.61,0.19,9.98,0.0,0.0,0.0,0.02,-0.01,0.68,0.74,-8.32566039141203e-15,-1.246179962284863e-13,-8.07791963229644e-15
4.765932559967041,0.61,0.19,9.98,0.0,0.0,0.0,0.02,-0.01,0.68,0.74,-8.32566039141203e-15,-1.246179962284863e-13,-8.07791963229644e-15
4.766366004943848,0.61,0.19,9.98,0.0,0.0,0.0,0.02,-0.01,0.68,0.74,-8.32566039141203e-15,-1.246179962284863e-13,-8.07791963229644e-15
4.8189287185668945,0.61,0.19,9.98,0.0,0.0,0.0,0.02,-0.01,0.68,0.74,-8.32566039141203e-15,-1.246179962284863e-13,-8.07791963229644e-15
4.819628000259399,0.61,0.19,9.98,0.0,0.0,0.0,0.02,-0.01,0.68,0.74,-8.32566039141203e-15,-1.246179962284863e-13,-8.07791963229644e-15
4.820161819458008,0.65,0.23,10.02,0.0,0.0,0.0,0.02,-0.01,0.68,0.74,-8.32566039141203e-15,-1.246179962284863e-13,-8.07791963229644e-15
4.820610523223877,0.65,0.23,10.02,0.0,0.0,0.0,0.02,-0.01,0.68,0.74,-8.32566039141203e-15,-1.246179962284863e-13,-8.07791963229644e-15
4.821049213409424,0.65,0.23,10.02,0.0,0.0,0.0,0.02,-0.01,0.68,0.74,-8.32566039141203e-15,-1.246179962284863e-13,-8.07791963229644e-15
4.821451425552368,0.65,0.23,10.02,0.0,0.0,0.0,0.02,-0.01,0.68,0.74,-8.32566039141203e-15,-1.246179962284863e-13,-8.07791963229644e-15
4.821931838989258,0.65,0.23,10.02,0.0,0.0,0.0,0.02,-0.01,0.68,0.74,-8.32566039141203e-15,-1.246179962284863e-13,-8.07791963229644e-15
4.822514295578003,0.65,0.23,10.02,0.0,0.0,0.0,0.02,-0.01,0.68,0.74,-8.32566039141203e-15,-1.246179962284863e-13,-8.07791963229644e-15
4.82300066947937,0.65,0.23,10.02,0.0,0.0,0.0,0.02,-0.01,0.68,0.74,-8.32566039141203e-15,-1.246179962284863e-13,-8.07791963229644e-15
4.823466539382935,0.65,0.23,10.02,0.0,0.0,0.0,0.02,-0.01,0.68,0.74,-8.32566039141203e-15,-1.246179962284863e-13,-8.07791963229644e-15
4.824120998382568,0.65,0.23,10.02,0.0,0.0,0.0,0.02,-0.01,0.68,0.74,-8.32566039141203e-15,-1.246179962284863e-13,-8.07791963229644e-15
4.824633598327637,0.65,0.23,10.02,0.0,0.0,0.0,0.02,-0.01,0.68,0.74,-8.32566039141203e-15,-1.246179962284863e-13,-8.07791963229644e-15
4.87960410118103,0.54,0.11,9.68,0.0,0.0,0.0,0.02,-0.01,0.68,0.74,-8.32566039141203e-15,-1.246179962284863e-13,-8.07791963229644e-15
4.88031530380249,0.54,0.11,9.68,0.0,0.0,0.0,0.02,-0.01,0.68,0.74,-8.32566039141203e-15,-1.246179962284863e-13,-8.07791963229644e-15
4.880781412124634,0.54,0.11,9.68,0.0,0.0,0.0,0.02,-0.01,0.68,0.74,-8.32566039141203e-15,-1.246179962284863e-13,-8.07791963229644e-15
4.881223678588867,0.54,0.11,9.68,0.0,0.0,0.0,0.02,-0.01,0.68,0.74,-8.32566039141203e-15,-1.246179962284863e-13,-8.07791963229644e-15
4.881646156311035,0.54,0.11,9.68,0.0,0.0,0.0,0.02,-0.01,0.68,0.74,-8.32566039141203e-15,-1.246179962284863e-13,-8.07791963229644e-15
4.882037401199341,0.54,0.11,9.68,0.0,0.0,0.0,0.02,-0.01,0.68,0.74,-8.32566039141203e-15,-1.246179962284863e-13,-8.07791963229644e-15
4.882458448410034,0.54,0.11,9.68,0.0,0.0,0.0,0.02,-0.01,0.68,0.74,-8.32566039141203e-15,-1.246179962284863e-13,-8.07791963229644e-15
4.882861614227295,0.54,0.11,9.68,0.0,0.0,0.0,0.02,-0.01,0.68,0.74,-8.32566039141203e-15,-1.246179962284863e-13,-8.07791963229644e-15
4.883253812789917,0.42,0.07,9.64,0.0,0.0,0.0,0.02,-0.01,0.68,0.74,-8.32566039141203e-15,-1.246179962284863e-13,-8.07791963229644e-15
4.8836658000946045,0.42,0.07,9.64,0.0,0.0,0.0,0.02,-0.01,0.68,0.74,-8.32566039141203e-15,-1.246179962284863e-13,-8.07791963229644e-15
4.8840577602386475,0.42,0.07,9.64,0.0,0.0,0.0,0.02,-0.01,0.68,0.74,-8.32566039141203e-15,-1.246179962284863e-13,-8.07791963229644e-15
4.884451150894165,0.42,0.07,9.64,0.0,0.0,0.0,0.02,-0.01,0.68,0.74,-8.32566039141203e-15,-1.246179962284863e-13,-8.07791963229644e-15
4.884882211685181,0.42,0.07,9.64,0.0,0.0,0.0,0.02,-0.01,0.68,0.74,-8.32566039141203e-15,-1.246179962284863e-13,-8.07791963229644e-15
4.885279893875122,0.42,0.07,9.64,0.0,0.0,0.0,0.02,-0.01,0.68,0.74,-8.32566039141203e-15,-1.246179962284863e-13,-8.07791963229644e-15
4.937410116195679,0.42,0.07,9.64,0.0,0.0,0.0,0.02,-0.01,0.68,0.74,-8.32566039141203e-15,-1.246179962284863e-13,-8.07791963229644e-15
4.938085556030273,0.42,0.07,9.64,0.0,0.0,0.0,0.02,-0.01,0.68,0.74,-8.32566039141203e-15,-1.246179962284863e-13,-8.07791963229644e-15
4.938578128814697,0.5,0.15,9.83,0.0,0.0,0.0,0.02,-0.01,0.68,0.74,-8.32566039141203e-15,-1.246179962284863e-13,-8.07791963229644e-15
4.939057350158691,0.5,0.15,9.83,0.0,0.0,0.0,0.02,-0.01,0.68,0.74,-8.32566039141203e-15,-1.246179962284863e-13,-8.07791963229644e-15
4.939497947692871,0.5,0.15,9.83,0.0,0.0,0.0,0.02,-0.01,0.68,0.74,-8.32566039141203e-15,-1.246179962284863e-13,-8.07791963229644e-15
4.939944505691528,0.5,0.15,9.83,0.0,0.0,0.0,0.02,-0.01,0.68,0.74,-8.32566039141203e-15,-1.246179962284863e-13,-8.07791963229644e-15
4.9404096603393555,0.5,0.15,9.83,0.0,0.0,0.0,0.02,-0.01,0.68,0.74,-8.32566039141203e-15,-1.246179962284863e-13,-8.07791963229644e-15
4.940814256668091,0.5,0.15,9.83,0.0,0.0,0.0,0.02,-0.01,0.68,0.74,-8.32566039141203e-15,-1.246179962284863e-13,-8.07791963229644e-15
4.941234350204468,0.5,0.15,9.83,0.0,0.0,0.0,0.02,-0.01,0.68,0.74,-8.32566039141203e-15,-1.246179962284863e-13,-8.07791963229644e-15
4.941737651824951,0.5,0.15,9.83,0.0,0.0,0.0,0.02,-0.01,0.68,0.74,-8.32566039141203e-15,-1.246179962284863e-13,-8.07791963229644e-15
4.942189931869507,0.5,0.15,9.83,0.0,0.0,0.0,0.02,-0.01,0.68,0.74,-8.32566039141203e-15,-1.246179962284863e-13,-8.07791963229644e-15
4.942660808563232,0.5,0.15,9.83,0.0,0.0,0.0,0.02,-0.01,0.68,0.74,-8.32566039141203e-15,-1.246179962284863e-13,-8.07791963229644e-15
4.995824813842773,0.61,0.15,9.87,0.0,0.0,0.0,0.02,-0.01,0.68,0.74,-8.32566039141203e-15,-1.246179962284863e-13,-8.07791963229644e-15
4.996523380279541,0.61,0.15,9.87,0.0,0.0,0.0,0.02,-0.01,0.68,0.74,-8.32566039141203e-15,-1.246179962284863e-13,-8.07791963229644e-15
4.997164487838745,0.61,0.15,9.87,0.0,0.0,0.0,0.02,-0.01,0.68,0.74,-8.32566039141203e-15,-1.246179962284863e-13,-8.07791963229644e-15
4.9976112842559814,0.61,0.15,9.87,0.0,0.0,0.0,0.02,-0.01,0.68,0.74,-8.32566039141203e-15,-1.246179962284863e-13,-8.07791963229644e-15
4.998037815093994,0.61,0.15,9.87,0.0,0.0,0.0,0.02,-0.01,0.68,0.74,-8.32566039141203e-15,-1.246179962284863e-13,-8.07791963229644e-15
4.998468399047852,0.61,0.15,9.87,0.0,0.0,0.0,0.02,-0.01,0.68,0.74,-8.32566039141203e-15,-1.246179962284863e-13,-8.07791963229644e-15
4.998990297317505,0.61,0.15,9.87,0.0,0.0,0.0,0.02,-0.01,0.68,0.74,-8.32566039141203e-15,-1.246179962284863e-13,-8.07791963229644e-15
4.999598026275635,0.61,0.15,9.87,0.0,0.0,0.0,0.02,-0.01,0.68,0.74,-8.32566039141203e-15,-1.246179962284863e-13,-8.07791963229644e-15
5.000442743301392,0.5,0.11,9.79,0.0,0.0,0.0,0.02,-0.01,0.68,0.74,-8.32566039141203e-15,-1.246179962284863e-13,-8.07791963229644e-15
5.0009870529174805,0.5,0.11,9.79,0.0,0.0,0.0,0.02,-0.01,0.68,0.74,-8.32566039141203e-15,-1.246179962284863e-13,-8.07791963229644e-15
5.001434326171875,0.5,0.11,9.79,0.0,0.0,0.0,0.02,-0.01,0.68,0.74,-8.32566039141203e-15,-1.246179962284863e-13,-8.07791963229644e-15
5.001900672912598,0.5,0.11,9.79,0.0,0.0,0.0,0.02,-0.01,0.68,0.74,-8.32566039141203e-15,-1.246179962284863e-13,-8.07791963229644e-15
5.002326965332031,0.5,0.11,9.79,0.0,0.0,0.0,0.02,-0.01,0.68,0.74,-8.32566039141203e-15,-1.246179962284863e-13,-8.07791963229644e-15
5.057634115219116,0.5,0.11,9.79,0.0,0.0,0.0,0.02,-0.01,0.68,0.74,-8.32566039141203e-15,-1.246179962284863e-13,-8.07791963229644e-15
5.05835485458374,0.5,0.11,9.79,0.0,0.0,0.0,0.02,-0.01,0.68,0.74,-8.32566039141203e-15,-1.246179962284863e-13,-8.07791963229644e-15
5.058872222900391,0.5,0.11,9.79,0.0,0.0,0.0,0.02,-0.01,0.68,0.74,-8.32566039141203e-15,-1.246179962284863e-13,-8.07791963229644e-15
5.059319734573364,0.3,-0.2,9.41,0.0,0.0,0.0,0.02,-0.01,0.68,0.74,-8.32566039141203e-15,-1.246179962284863e-13,-8.07791963229644e-15
5.059858322143555,0.3,-0.2,9.41,0.0,0.0,0.0,0.02,-0.01,0.68,0.74,-8.32566039141203e-15,-1.246179962284863e-13,-8.07791963229644e-15
5.060295104980469,0.3,-0.2,9.41,0.0,0.0,0.0,0.02,-0.01,0.68,0.74,-8.32566039141203e-15,-1.246179962284863e-13,-8.07791963229644e-15
5.060755729675293,0.3,-0.2,9.41,0.0,0.0,0.0,0.02,-0.01,0.68,0.74,-8.32566039141203e-15,-1.246179962284863e-13,-8.07791963229644e-15
5.061184883117676,0.3,-0.2,9.41,0.0,0.0,0.0,0.02,-0.01,0.68,0.74,-8.32566039141203e-15,-1.246179962284863e-13,-8.07791963229644e-15
5.061645984649658,0.3,-0.2,9.41,0.0,0.0,0.0,0.02,-0.01,0.68,0.74,-8.32566039141203e-15,-1.246179962284863e-13,-8.07791963229644e-15
5.062091588973999,0.77,0.15,10.45,0.0,0.0,0.0,0.02,-0.01,0.68,0.74,-8.32566039141203e-15,-1.246179962284863e-13,-8.07791963229644e-15
5.062550067901611,0.77,0.15,10.45,0.0,0.0,0.0,0.02,-0.01,0.68,0.74,-8.32566039141203e-15,-1.246179962284863e-13,-8.07791963229644e-15
5.0629730224609375,0.77,0.15,10.45,-0.0,0.01,0.01,0.02,-0.01,0.68,0.74,-8.32566039141203e-15,-1.246179962284863e-13,-8.07791963229644e-15
5.063430309295654,0.77,0.15,10.45,-0.0,0.01,0.01,0.02,-0.01,0.68,0.74,-8.32566039141203e-15,-1.246179962284863e-13,-8.07791963229644e-15
5.118964910507202,0.77,0.15,10.45,0.0,0.0,-0.0,0.02,-0.01,0.68,0.74,-8.32566039141203e-15,-1.246179962284863e-13,-8.07791963229644e-15
5.119712829589844,0.77,0.15,10.45,0.0,0.0,-0.0,0.02,-0.01,0.68,0.74,-8.32566039141203e-15,-1.246179962284863e-13,-8.07791963229644e-15
5.120315313339233,0.77,0.15,10.45,0.0,-0.01,-0.0,0.02,-0.01,0.68,0.74,-8.32566039141203e-15,-1.246179962284863e-13,-8.07791963229644e-15
5.120824337005615,0.77,0.15,10.45,0.0,-0.01,-0.0,0.02,-0.01,0.68,0.74,-8.32566039141203e-15,-1.246179962284863e-13,-8.07791963229644e-15
5.121348857879639,0.77,0.15,10.45,0.0,-0.0,0.0,0.02,-0.01,0.68,0.74,-8.32566039141203e-15,-1.246179962284863e-13,-8.07791963229644e-15
5.121822357177734,0.77,0.15,10.45,0.0,-0.0,0.0,0.02,-0.01,0.68,0.74,-8.32566039141203e-15,-1.246179962284863e-13,-8.07791963229644e-15
5.122318506240845,0.3,0.03,9.18,0.0,-0.0,0.0,0.02,-0.01,0.68,0.74,-8.32566039141203e-15,-1.246179962284863e-13,-8.07791963229644e-15
5.122758150100708,0.3,0.03,9.18,0.0,-0.0,0.0,0.02,-0.01,0.68,0.74,-8.32566039141203e-15,-1.246179962284863e-13,-8.07791963229644e-15
5.123205184936523,0.3,0.03,9.18,0.0,0.0,-0.0,0.02,-0.01,0.68,0.74,-8.32566039141203e-15,-1.246179962284863e-13,-8.07791963229644e-15
5.123655796051025,0.3,0.03,9.18,0.0,0.0,-0.0,0.02,-0.01,0.68,0.74,-8.32566039141203e-15,-1.246179962284863e-13,-8.07791963229644e-15
5.124150037765503,0.3,0.03,9.18,0.0,-0.0,-0.0,0.02,-0.01,0.68,0.74,-8.32566039141203e-15,-1.246179962284863e-13,-8.07791963229644e-15
5.124570369720459,0.3,0.03,9.18,0.0,-0.0,-0.0,0.02,-0.01,0.68,0.74,-8.32566039141203e-15,-1.246179962284863e-13,-8.07791963229644e-15
5.125033378601074,0.3,0.03,9.18,0.0,-0.0,-0.0,0.02,-0.01,0.68,0.74,-8.32566039141203e-15,-1.246179962284863e-13,-8.07791963229644e-15
5.1254589557647705,0.3,0.03,9.18,0.0,-0.0,-0.0,0.02,-0.01,0.68,0.74,-8.32566039141203e-15,-1.246179962284863e-13,-8.07791963229644e-15
5.179355144500732,0.3,0.03,9.18,0.0,-0.0,0.0,0.02,-0.01,0.68,0.74,-8.32566039141203e-15,-1.246179962284863e-13,-8.07791963229644e-15
5.180028676986694,0.3,0.03,9.18,0.0,-0.0,0.0,0.02,-0.01,0.68,0.74,-8.32566039141203e-15,-1.246179962284863e-13,-8.07791963229644e-15
5.18059778213501,0.61,0.19,10.09,0.0,-0.0,0.0,0.02,-0.01,0.68,0.74,-8.32566039141203e-15,-1.246179962284863e-13,-8.07791963229644e-15
5.181019067764282,0.61,0.19,10.09,0.0,-0.0,0.0,0.02,-0.01,0.68,0.74,-8.32566039141203e-15,-1.246179962284863e-13,-8.07791963229644e-15
5.181513786315918,0.61,0.19,10.09,-0.01,-0.0,0.0,0.02,-0.01,0.68,0.74,-8.32566039141203e-15,-1.246179962284863e-13,-8.07791963229644e-15
5.182034254074097,0.61,0.19,10.09,-0.01,-0.0,0.0,0.02,-0.01,0.68,0.74,-8.32566039141203e-15,-1.246179962284863e-13,-8.07791963229644e-15
5.182542324066162,0.61,0.19,10.09,0.0,-0.0,0.01,0.02,-0.01,0.68,0.74,-8.32566039141203e-15,-1.246179962284863e-13,-8.07791963229644e-15
5.182979345321655,0.61,0.19,10.09,0.0,-0.0,0.01,0.02,-0.01,0.68,0.74,-8.32566039141203e-15,-1.246179962284863e-13,-8.07791963229644e-15
5.183495998382568,0.61,0.19,10.09,-0.01,0.0,0.0,0.02,-0.01,0.68,0.74,-8.32566039141203e-15,-1.246179962284863e-13,-8.07791963229644e-15
5.183987379074097,0.61,0.19,10.09,-0.01,0.0,0.0,0.02,-0.01,0.68,0.74,-8.32566039141203e-15,-1.246179962284863e-13,-8.07791963229644e-15
5.184454441070557,0.65,0.19,10.13,-0.01,0.0,0.0,0.02,-0.01,0.68,0.74,-8.32566039141203e-15,-1.246179962284863e-13,-8.07791963229644e-15
5.184959411621094,0.65,0.19,10.13,-0.01,0.0,0.0,0.02,-0.01,0.68,0.74,-8.32566039141203e-15,-1.246179962284863e-13,-8.07791963229644e-15
5.185467720031738,0.65,0.19,10.13,-0.01,0.01,-0.01,0.02,-0.01,0.68,0.74,-8.32566039141203e-15,-1.246179962284863e-13,-8.07791963229644e-15
5.2393479347229,0.65,0.19,10.13,-0.01,0.01,-0.01,0.02,-0.01,0.68,0.74,-8.32566039141203e-15,-1.246179962284863e-13,-8.07791963229644e-15
5.240009307861328,0.65,0.19,10.13,0.01,0.0,-0.0,0.02,-0.01,0.68,0.74,-8.32566039141203e-15,-1.246179962284863e-13,-8.07791963229644e-15
5.240613698959351,0.65,0.19,10.13,0.01,0.0,-0.0,0.02,-0.01,0.68,0.74,-8.32566039141203e-15,-1.246179962284863e-13,-8.07791963229644e-15
5.241072177886963,0.5,0.15,9.71,0.01,0.0,-0.0,0.02,-0.01,0.68,0.74,-8.32566039141203e-15,-1.246179962284863e-13,-8.07791963229644e-15
5.241520166397095,0.5,0.15,9.71,0.01,0.0,-0.0,0.02,-0.01,0.68,0.74,-8.32566039141203e-15,-1.246179962284863e-13,-8.07791963229644e-15
5.241944313049316,0.5,0.15,9.71,0.0,-0.0,0.0,0.02,-0.01,0.68,0.74,-8.32566039141203e-15,-1.246179962284863e-13,-8.07791963229644e-15
5.242352724075317,0.5,0.15,9.71,0.0,-0.0,0.0,0.02,-0.01,0.68,0.74,-8.32566039141203e-15,-1.246179962284863e-13,-8.07791963229644e-15
5.2427918910980225,0.5,0.15,9.71,0.0,0.0,-0.0,0.02,-0.01,0.68,0.74,-8.32566039141203e-15,-1.246179962284863e-13,-8.07791963229644e-15
5.243227243423462,0.5,0.15,9.71,0.0,0.0,-0.0,0.02,-0.01,0.68,0.74,-8.32566039141203e-15,-1.246179962284863e-13,-8.07791963229644e-15
5.243687868118286,0.5,0.15,9.68,0.0,0.0,-0.0,0.02,-0.01,0.68,0.74,-8.32566039141203e-15,-1.246179962284863e-13,-8.07791963229644e-15
5.244144678115845,0.5,0.15,9.68,0.0,0.0,-0.0,0.02,-0.01,0.68,0.74,-8.32566039141203e-15,-1.246179962284863e-13,-8.07791963229644e-15
5.244563341140747,0.5,0.15,9.68,-0.0,0.0,0.0,0.02,-0.01,0.68,0.74,-8.32566039141203e-15,-1.246179962284863e-13,-8.07791963229644e-15
5.296060800552368,0.5,0.15,9.68,-0.0,0.0,0.0,0.02,-0.01,0.68,0.74,-8.32566039141203e-15,-1.246179962284863e-13,-8.07791963229644e-15
5.29671049118042,0.5,0.15,9.68,0.0,-0.01,-0.01,0.02,-0.01,0.68,0.74,-8.32566039141203e-15,-1.246179962284863e-13,-8.07791963229644e-15
5.297221422195435,0.5,0.15,9.68,0.0,-0.01,-0.01,0.02,-0.01,0.68,0.74,-8.32566039141203e-15,-1.246179962284863e-13,-8.07791963229644e-15
5.297719478607178,0.5,0.15,9.68,0.0,0.0,-0.0,0.02,-0.01,0.68,0.74,-8.32566039141203e-15,-1.246179962284863e-13,-8.07791963229644e-15
5.298266649246216,0.5,0.15,9.68,0.0,0.0,-0.0,0.02,-0.01,0.68,0.74,-8.32566039141203e-15,-1.246179962284863e-13,-8.07791963229644e-15
5.298700571060181,0.57,0.19,9.98,0.0,0.0,-0.0,0.02,-0.01,0.68,0.74,-8.32566039141203e-15,-1.246179962284863e-13,-8.07791963229644e-15
5.299158096313477,0.57,0.19,9.98,0.0,0.0,-0.0,0.02,-0.01,0.68,0.74,-8.32566039141203e-15,-1.246179962284863e-13,-8.07791963229644e-15
5.299601316452026,0.57,0.19,9.98,-0.0,-0.0,0.0,0.02,-0.01,0.68,0.74,-8.32566039141203e-15,-1.246179962284863e-13,-8.07791963229644e-15
5.300048351287842,0.57,0.19,9.98,-0.0,-0.0,0.0,0.02,-0.01,0.68,0.74,-8.32566039141203e-15,-1.246179962284863e-13,-8.07791963229644e-15
5.300461769104004,0.57,0.19,9.98,0.0,0.01,0.0,0.02,-0.01,0.68,0.74,-8.32566039141203e-15,-1.246179962284863e-13,-8.07791963229644e-15
5.300882577896118,0.57,0.19,9.98,0.0,0.01,0.0,0.02,-0.01,0.68,0.74,-8.32566039141203e-15,-1.246179962284863e-13,-8.07791963229644e-15
5.30130410194397,0.65,0.19,9.98,0.0,0.01,0.0,0.02,-0.01,0.68,0.74,-8.32566039141203e-15,-1.246179962284863e-13,-8.07791963229644e-15
5.301722288131714,0.65,0.19,9.98,0.0,0.01,0.0,0.02,-0.01,0.68,0.74,-8.32566039141203e-15,-1.246179962284863e-13,-8.07791963229644e-15
5.35349178314209,0.65,0.19,9.98,-0.01,0.0,0.01,0.02,-0.01,0.68,0.74,-8.32566039141203e-15,-1.246179962284863e-13,-8.07791963229644e-15
5.35418176651001,0.65,0.19,9.98,-0.01,0.0,0.01,0.02,-0.01,0.68,0.74,-8.32566039141203e-15,-1.246179962284863e-13,-8.07791963229644e-15
5.354653358459473,0.65,0.19,9.98,0.0,0.0,-0.0,0.02,-0.01,0.68,0.74,-8.32566039141203e-15,-1.246179962284863e-13,-8.07791963229644e-15
5.355112314224243,0.65,0.19,9.98,0.0,0.0,-0.0,0.02,-0.01,0.68,0.74,-8.32566039141203e-15,-1.246179962284863e-13,-8.07791963229644e-15
5.355511426925659,0.65,0.19,9.98,0.0,0.0,-0.0,0.02,-0.01,0.68,0.74,-8.32566039141203e-15,-1.246179962284863e-13,-8.07791963229644e-15
5.35589599609375,0.65,0.19,9.98,0.0,0.0,-0.0,0.02,-0.01,0.68,0.74,-8.32566039141203e-15,-1.246179962284863e-13,-8.07791963229644e-15
5.356285095214844,0.65,0.19,9.98,-0.0,0.0,-0.0,0.02,-0.01,0.68,0.74,-8.32566039141203e-15,-1.246179962284863e-13,-8.07791963229644e-15
5.3567469120025635,0.65,0.19,9.98,-0.0,0.0,-0.0,0.02,-0.01,0.68,0.74,-8.32566039141203e-15,-1.246179962284863e-13,-8.07791963229644e-15
5.357149600982666,0.65,0.19,10.02,-0.0,0.0,-0.0,0.02,-0.01,0.68,0.74,-8.32566039141203e-15,-1.246179962284863e-13,-8.07791963229644e-15
5.357607364654541,0.65,0.19,10.02,-0.0,0.0,-0.0,0.02,-0.01,0.68,0.74,-8.32566039141203e-15,-1.246179962284863e-13,-8.07791963229644e-15
5.358076095581055,0.65,0.19,10.02,0.0,-0.0,-0.0,0.02,-0.01,0.68,0.74,-8.32566039141203e-15,-1.246179962284863e-13,-8.07791963229644e-15
5.410601854324341,0.65,0.19,10.02,0.0,-0.0,-0.0,0.02,-0.01,0.68,0.74,-8.32566039141203e-15,-1.246179962284863e-13,-8.07791963229644e-15
5.411320209503174,0.65,0.19,9.87,0.0,-0.0,-0.0,0.02,-0.01,0.68,0.74,-8.32566039141203e-15,-1.246179962284863e-13,-8.07791963229644e-15
5.4118664264678955,0.65,0.19,9.87,0.0,-0.0,-0.0,0.02,-0.01,0.68,0.74,-8.32566039141203e-15,-1.246179962284863e-13,-8.07791963229644e-15
5.412328720092773,0.65,0.19,9.87,-0.0,0.0,0.0,0.02,-0.01,0.68,0.74,-8.32566039141203e-15,-1.246179962284863e-13,-8.07791963229644e-15
5.412760972976685,0.65,0.19,9.87,-0.0,0.0,0.0,0.02,-0.01,0.68,0.74,-8.32566039141203e-15,-1.246179962284863e-13,-8.07791963229644e-15
5.4132239818573,0.65,0.19,9.87,-0.01,0.0,0.01,0.02,-0.01,0.68,0.74,-8.32566039141203e-15,-1.246179962284863e-13,-8.07791963229644e-15
5.413689374923706,0.65,0.19,9.87,-0.01,0.0,0.01,0.02,-0.01,0.68,0.74,-8.32566039141203e-15,-1.246179962284863e-13,-8.07791963229644e-15
5.414154291152954,0.65,0.19,10.07,-0.01,0.0,0.01,0.02,-0.01,0.68,0.74,-8.32566039141203e-15,-1.246179962284863e-13,-8.07791963229644e-15
5.414579629898071,0.65,0.19,10.07,-0.01,0.0,0.01,0.02,-0.01,0.68,0.74,-8.32566039141203e-15,-1.246179962284863e-13,-8.07791963229644e-15
5.466073513031006,0.65,0.19,10.07,0.0,0.0,-0.0,0.02,-0.01,0.68,0.74,-8.32566039141203e-15,-1.246179962284863e-13,-8.07791963229644e-15
5.466753721237183,0.65,0.19,10.07,0.0,0.0,-0.0,0.02,-0.01,0.68,0.74,-8.32566039141203e-15,-1.246179962284863e-13,-8.07791963229644e-15
5.467207670211792,0.65,0.19,10.07,0.0,0.0,-0.0,0.02,-0.01,0.68,0.74,-8.32566039141203e-15,-1.246179962284863e-13,-8.07791963229644e-15
5.4676513671875,0.65,0.19,10.07,0.0,0.0,-0.0,0.02,-0.01,0.68,0.74,-8.32566039141203e-15,-1.246179962284863e-13,-8.07791963229644e-15
5.468354225158691,0.65,0.19,10.07,0.0,0.0,-0.0,0.02,-0.01,0.68,0.74,-8.32566039141203e-15,-1.246179962284863e-13,-8.07791963229644e-15
5.468761205673218,0.65,0.19,10.07,0.0,0.0,-0.0,0.02,-0.01,0.68,0.74,-8.32566039141203e-15,-1.246179962284863e-13,-8.07791963229644e-15
5.469144821166992,0.65,0.19,10.07,0.0,0.0,0.0,0.02,-0.01,0.68,0.74,-8.32566039141203e-15,-1.246179962284863e-13,-8.07791963229644e-15
5.4695329666137695,0.65,0.19,10.07,0.0,0.0,0.0,0.02,-0.01,0.68,0.74,-8.32566039141203e-15,-1.246179962284863e-13,-8.07791963229644e-15
5.469958782196045,0.42,0.11,9.64,0.0,0.0,0.0,0.02,-0.01,0.68,0.74,-8.32566039141203e-15,-1.246179962284863e-13,-8.07791963229644e-15
5.4703450202941895,0.42,0.11,9.64,0.0,0.0,0.0,0.02,-0.01,0.68,0.74,-8.32566039141203e-15,-1.246179962284863e-13,-8.07791963229644e-15
5.470846891403198,0.42,0.11,9.64,0.0,0.0,-0.0,0.02,-0.01,0.68,0.74,-8.32566039141203e-15,-1.246179962284863e-13,-8.07791963229644e-15
5.471520185470581,0.42,0.11,9.64,0.0,0.0,-0.0,0.02,-0.01,0.68,0.74,-8.32566039141203e-15,-1.246179962284863e-13,-8.07791963229644e-15
5.47209906578064,0.42,0.11,9.64,0.0,-0.0,-0.01,0.02,-0.01,0.68,0.74,-8.32566039141203e-15,-1.246179962284863e-13,-8.07791963229644e-15
5.472626209259033,0.42,0.11,9.64,0.0,-0.0,-0.01,0.02,-0.01,0.68,0.74,-8.32566039141203e-15,-1.246179962284863e-13,-8.07791963229644e-15
5.473097085952759,0.42,0.11,9.64,-0.01,0.0,0.0,0.02,-0.01,0.68,0.74,-8.32566039141203e-15,-1.246179962284863e-13,-8.07791963229644e-15
5.473606824874878,0.42,0.11,9.64,-0.01,0.0,0.0,0.02,-0.01,0.68,0.74,-8.32566039141203e-15,-1.246179962284863e-13,-8.07791963229644e-15
5.474121332168579,0.42,0.15,9.61,-0.01,0.0,0.0,0.02,-0.01,0.68,0.74,-8.32566039141203e-15,-1.246179962284863e-13,-8.07791963229644e-15
5.527903079986572,0.42,0.15,9.61,-0.01,0.0,0.0,0.02,-0.01,0.68,0.74,-8.32566039141203e-15,-1.246179962284863e-13,-8.07791963229644e-15
5.528564691543579,0.42,0.15,9.61,0.0,-0.0,0.0,0.02,-0.01,0.68,0.74,-8.32566039141203e-15,-1.246179962284863e-13,-8.07791963229644e-15
5.529094219207764,0.42,0.15,9.61,0.0,-0.0,0.0,0.02,-0.01,0.68,0.74,-8.32566039141203e-15,-1.246179962284863e-13,-8.07791963229644e-15
5.5295655727386475,0.42,0.15,9.61,0.01,-0.02,-0.0,0.02,-0.01,0.68,0.74,-8.32566039141203e-15,-1.246179962284863e-13,-8.07791963229644e-15
5.530008316040039,0.42,0.15,9.61,0.01,-0.02,-0.0,0.02,-0.01,0.68,0.74,-8.32566039141203e-15,-1.246179962284863e-13,-8.07791963229644e-15
5.5304646492004395,0.42,0.15,9.61,0.0,0.0,-0.12,0.02,-0.01,0.68,0.74,-8.32566039141203e-15,-1.246179962284863e-13,-8.07791963229644e-15
5.530883550643921,0.42,0.15,9.61,0.0,0.0,-0.12,0.02,-0.01,0.68,0.74,-8.32566039141203e-15,-1.246179962284863e-13,-8.07791963229644e-15
5.5313401222229,0.46,0.68,10.56,0.0,0.0,-0.12,0.02,-0.01,0.68,0.74,-8.32566039141203e-15,-1.246179962284863e-13,-8.07791963229644e-15
5.5317676067352295,0.46,0.68,10.56,-0.02,0.04,-0.2,0.02,-0.01,0.68,0.74,-8.32566039141203e-15,-1.246179962284863e-13,-8.07791963229644e-15
5.532212018966675,0.46,0.68,10.56,-0.02,0.04,-0.2,0.02,-0.01,0.68,0.74,-8.32566039141203e-15,-1.246179962284863e-13,-8.07791963229644e-15
5.532653093338013,0.46,0.68,10.56,-0.02,0.04,-0.2,0.02,-0.01,0.68,0.74,-8.32566039141203e-15,-1.246179962284863e-13,-8.07791963229644e-15
5.585211277008057,0.46,0.68,10.56,-0.02,0.03,-0.19,0.02,-0.01,0.68,0.74,-8.32566039141203e-15,-1.246179962284863e-13,-8.07791963229644e-15
5.5858917236328125,0.46,0.68,10.56,-0.02,0.03,-0.19,0.02,-0.01,0.67,0.74,0.022916463746944043,-0.8448233233155332,-0.01124781236520738
5.5865278244018555,0.46,0.68,10.56,-0.01,0.01,-0.19,0.02,-0.01,0.67,0.74,0.022916837643928142,-0.8448371071565386,-0.011247995880568547
5.587184190750122,0.46,0.68,10.56,-0.01,0.01,-0.19,0.02,-0.01,0.67,0.74,0.022917689959227407,-0.8448685280533915,-0.011248414212239082
5.587824821472168,0.46,0.68,10.56,0.01,0.0,-0.32,0.02,-0.01,0.67,0.74,0.0229187991827545,-0.8449094199604853,-0.011248958639086154
5.588554620742798,0.46,0.68,10.56,0.01,0.0,-0.32,0.02,-0.01,0.67,0.74,0.022918868564800726,-0.844911977753499,-0.01124899269304169
5.589089632034302,0.46,0.68,10.56,0.0,0.01,-0.16,0.02,-0.01,0.67,0.74,0.022915060514483918,-0.8447715926679326,-0.01124712363349072
5.5895161628723145,0.46,0.68,10.56,0.0,0.01,-0.16,0.02,-0.01,0.67,0.74,0.022904359930074017,-0.8443771119407831,-0.011241871594303104
5.58994197845459,0.46,0.68,10.56,0.0,0.0,-0.02,0.02,-0.01,0.67,0.74,0.02288894462166529,-0.8438088212907249,-0.011234305483822548
5.590331315994263,0.46,0.68,10.56,0.0,0.0,-0.02,0.02,-0.01,0.67,0.74,0.02288589611885398,-0.8436964371853661,-0.0112328092238413
5.590715408325195,0.46,0.38,9.99,0.0,0.0,-0.02,0.02,-0.01,0.67,0.74,0.022902664233439146,-0.8443145995007214,-0.011241039315911992
5.591076135635376,0.46,0.38,9.99,0.0,0.0,-0.02,0.02,-0.01,0.67,0.74,0.022918251630972608,-0.8448892342755919,-0.011248689890828526
5.642286539077759,0.46,0.38,9.99,0.0,-0.0,0.01,0.02,-0.01,0.67,0.74,0.022921709435727876,-0.8450167074379864,-0.011250387043561698
5.642933130264282,0.46,0.38,9.99,0.0,-0.0,0.01,0.02,-0.01,0.67,0.74,0.022920052022252415,-0.8449556063197726,-0.01124957355523342
5.643428087234497,0.46,0.38,9.99,0.0,0.01,0.0,0.02,-0.01,0.67,0.74,0.022917871360284753,-0.8448752154658045,-0.011248503247138986
5.643892765045166,0.46,0.38,9.99,0.0,0.01,0.0,0.02,-0.01,0.67,0.74,0.022916691857570233,-0.8448317326922781,-0.01124792432600335
5.644436836242676,0.46,0.38,9.99,0.0,0.0,0.0,0.02,-0.01,0.67,0.74,0.022916403446966754,-0.8448211003361168,-0.011247782768894541
5.64506721496582,0.46,0.38,9.99,0.0,0.0,0.0,0.02,-0.01,0.67,0.74,0.02291650885489679,-0.8448249862357364,-0.011247834505001473
5.6456873416900635,0.61,0.19,9.91,0.0,0.0,0.0,0.02,-0.01,0.67,0.74,0.022916666187480703,-0.8448307863555922,-0.011247911726661949
5.646187782287598,0.61,0.19,9.91,0.0,0.0,0.0,0.02,-0.01,0.67,0.74,0.0229167551454712,-0.8448340658225292,-0.01124795538884284
5.646653652191162,0.61,0.19,9.91,0.0,0.0,-0.0,0.02,-0.01,0.67,0.74,0.022916778839014256,-0.8448349392931486,-0.0112479670180597
5.647165775299072,0.61,0.19,9.91,0.0,0.0,-0.0,0.02,-0.01,0.67,0.74,0.022916772341095487,-0.8448346997451365,-0.011247963828764357
5.647645950317383,0.61,0.19,9.91,0.0,0.0,0.0,0.02,-0.01,0.67,0.74,0.022916761032285796,-0.8448342828419751,-0.011247958278197266
5.648166179656982,0.61,0.19,9.91,0.0,0.0,0.0,0.02,-0.01,0.67,0.74,0.022916754344510844,-0.8448340362948499,-0.011247954995717098
5.700069189071655,0.54,0.07,9.87,0.0,0.0,0.0,0.02,-0.01,0.67,0.74,0.022916752421892037,-0.844833965416846,-0.011247954052061226
5.700719118118286,0.54,0.07,9.87,0.0,0.01,-0.01,0.02,-0.01,0.67,0.74,0.022916752804690743,-0.844833979528852,-0.01124795423994571
5.7012012004852295,0.54,0.07,9.87,0.0,0.01,-0.01,0.02,-0.01,0.67,0.74,0.02291675361430903,-0.8448340093757086,-0.011247954637320921
5.701675653457642,0.54,0.07,9.87,0.0,0.01,-0.01,0.02,-0.01,0.67,0.74,0.0229167541155293,-0.8448340278533665,-0.011247954883328842
5.702116012573242,0.54,0.07,9.87,-0.0,0.0,-0.01,0.02,-0.01,0.67,0.74,0.022916754269946202,-0.8448340335459987,-0.01124795495911943
5.702691078186035,0.54,0.07,9.87,-0.0,0.0,-0.01,0.02,-0.01,0.67,0.74,0.02291675424897784,-0.844834032772993,-0.011247954948827783
5.703188180923462,0.54,0.07,9.87,-0.01,-0.0,0.0,0.02,-0.01,0.67,0.74,0.022916754191263343,-0.8448340306453281,-0.01124795492050047
5.703657150268555,0.54,0.07,9.87,-0.01,-0.0,0.0,0.02,-0.01,0.67,0.74,0.022916754153812967,-0.8448340292647071,-0.011247954902119153
5.704151630401611,0.54,0.07,9.87,-0.01,0.01,0.0,0.02,-0.01,0.67,0.74,0.02291675414151873,-0.8448340288114757,-0.011247954896084919
5.704615354537964,0.54,0.07,9.87,-0.01,0.01,0.0,0.02,-0.01,0.67,0.74,0.022916754142519785,-0.8448340288483799,-0.011247954896576255
5.705117225646973,0.54,0.07,9.87,-0.02,0.02,0.02,0.02,-0.01,0.67,0.74,0.022916754146615037,-0.8448340289993529,-0.01124795489858628
5.706056594848633,0.54,0.07,9.87,-0.02,0.02,0.02,0.02,-0.01,0.67,0.74,0.022916754149404923,-0.844834029102203,-0.011247954899955604
5.759846210479736,1.38,-0.04,11.06,-0.02,0.02,0.02,0.02,-0.01,0.67,0.74,0.022916754150376376,-0.844834029138016,-0.011247954900432412
5.760499000549316,1.38,-0.04,11.06,-0.02,0.02,0.02,0.02,-0.01,0.67,0.74,0.02291675415034337,-0.8448340291367994,-0.011247954900416215
5.761017084121704,1.38,-0.04,11.06,-0.03,0.01,0.1,0.02,-0.01,0.67,0.74,0.022916754150054248,-0.8448340291261406,-0.011247954900274306
5.761471748352051,1.38,-0.04,11.06,-0.03,0.01,0.1,0.02,-0.01,0.67,0.74,0.022916754149847028,-0.8448340291185014,-0.011247954900172597
5.761906862258911,1.38,-0.04,11.06,-0.15,0.04,0.18,0.02,-0.01,0.67,0.74,0.022916754149770773,-0.8448340291156903,-0.01124795490013517
5.7623279094696045,1.38,-0.04,11.06,-0.15,0.04,0.18,0.02,-0.01,0.67,0.74,0.02291675414977016,-0.8448340291156679,-0.01124795490013487
5.7628583908081055,0.92,-0.73,9.87,-0.15,0.04,0.18,0.02,-0.01,0.67,0.74,0.022916754149790455,-0.8448340291164161,-0.011247954900144833
5.7633702754974365,0.92,-0.73,9.87,-0.34,0.05,0.18,0.02,-0.01,0.67,0.74,0.022916754149805804,-0.8448340291169818,-0.011247954900152367
5.763794183731079,0.92,-0.73,9.87,-0.34,0.05,0.18,0.02,-0.01,0.67,0.74,0.022916754149811754,-0.8448340291172012,-0.011247954900155288
5.764250993728638,0.92,-0.73,9.87,-0.34,0.05,0.18,0.02,-0.02,0.67,0.74,-0.8158617510243708,-0.8732346086933854,-0.7938837269089526
5.764702081680298,0.92,-0.73,9.87,-0.41,-0.01,0.18,0.02,-0.02,0.67,0.74,-0.8158754362402452,-0.8732350720672273,-0.7938964961196836
5.765115261077881,0.92,-0.73,9.87,-0.41,-0.01,0.18,0.02,-0.02,0.67,0.74,-0.815906632316593,-0.8732361283491995,-0.7939256041203586
5.765565395355225,0.92,-0.73,9.87,-0.53,-0.01,0.16,0.02,-0.02,0.67,0.74,-0.8159472316369,-0.8732375030198732,-0.7939634859690171
5.818207025527954,0.92,-0.73,9.87,-0.53,-0.01,0.16,0.02,-0.02,0.67,0.74,-0.81594977112858,-0.8732375890056656,-0.7939658554825649
5.81887674331665,0.27,0.53,11.44,-0.53,-0.01,0.16,0.02,-0.02,0.67,0.74,-0.8158103905161248,-0.8732328696546714,-0.7938358041608405
5.819455146789551,0.27,0.53,11.44,-0.66,-0.01,0.1,0.02,-0.02,0.67,0.74,-0.815418732348663,-0.8732196083242004,-0.7934703612097349
5.819925308227539,0.27,0.53,11.44,-0.66,-0.01,0.1,0.02,-0.02,0.67,0.74,-0.8148545078903588,-0.8732005039938834,-0.7929439025060518
5.820396900177002,0.27,0.53,11.44,-0.66,-0.01,0.1,0.01,-0.02,0.68,0.74,-1.6092254067302731,-0.03304622090866491,0.06862535325899256
5.820913553237915,0.27,0.53,11.44,-0.76,-0.03,0.11,0.01,-0.02,0.68,0.74,-1.6098521085132225,-0.033053294182899866,0.06806674931269927
5.821387767791748,0.27,0.53,11.44,-0.76,-0.03,0.11,0.01,-0.02,0.68,0.74,-1.61045218030991,-0.033041364680681695,0.0675664533199766
5.821819543838501,0.27,0.53,11.44,-0.85,-0.02,0.11,0.01,-0.02,0.68,0.74,-1.610617196649383,-0.033004984240113076,0.06749006089278377
5.822270631790161,0.27,0.53,11.44,-0.85,-0.02,0.11,0.01,-0.03,0.68,0.74,-2.448827946189234,-0.07168540998551311,-0.7046334263428323
5.822702884674072,0.27,0.53,11.44,-0.9,-0.01,0.06,0.01,-0.03,0.68,0.74,-2.4486297875450016,-0.0718229472417657,-0.704714702204407
5.823143243789673,0.27,0.53,11.44,-0.9,-0.01,0.06,0.0,-0.03,0.68,0.74,-3.220041322901683,-0.06473460691301648,0.13379499696044195
5.823566913604736,0.27,0.53,11.44,-0.95,-0.02,0.04,0.0,-0.03,0.68,0.74,-3.2195495059340944,-0.06530114726664438,0.13320167281283746
5.823977470397949,0.27,0.53,11.44,-0.95,-0.02,0.04,0.0,-0.03,0.68,0.74,-3.219478919341899,-0.06541287929710209,0.13311233778566825
5.878916263580322,0.61,-0.66,10.45,-0.95,-0.02,0.04,0.0,-0.03,0.68,0.74,-3.2199640667282403,-0.06479154068442225,0.13390622339389147
5.8796186447143555,0.61,-0.66,10.45,-0.99,-0.02,0.05,0.0,-0.03,0.68,0.74,-3.220118632926712,-0.06420210834529921,0.134852241460787
5.8801188468933105,0.61,-0.66,10.45,-0.99,-0.02,0.05,0.0,-0.03,0.68,0.74,-3.2195472459617185,-0.06405059026886814,0.13536144281707735
5.8805625438690186,0.61,-0.66,10.45,-0.99,-0.02,0.05,-0.0,-0.04,0.68,0.74,-4.056381949265422,-0.1132016984892526,-0.6383981837779988
5.881014585494995,0.61,-0.66,10.45,-1.03,-0.02,0.07,-0.0,-0.04,0.68,0.74,-4.056413797335258,-0.11331576972508912,-0.6396217078438982
5.8814473152160645,0.61,-0.66,10.45,-1.03,-0.02,0.07,-0.01,-0.04,0.68,0.74,-4.828650304591574,-0.0936641054881331,0.19900807558357156
5.881913423538208,0.61,-0.66,10.45,-1.06,-0.04,0.07,-0.01,-0.04,0.68,0.74,-4.82938456925071,-0.09367709450753027,0.1994708744476156
5.882335662841797,0.61,-0.66,10.45,-1.06,-0.04,0.07,-0.01,-0.05,0.68,0.74,-5.666037748562332,-0.15322070959162165,-0.5747856781137402
5.936754941940308,0.61,-0.66,10.45,-1.05,-0.03,0.05,-0.01,-0.05,0.68,0.74,-5.665991772704486,-0.15320199200365828,-0.5744232320894944
5.937431812286377,0.61,-0.66,10.45,-1.05,-0.03,0.05,-0.02,-0.05,0.68,0.73,-6.4938438848317315,0.6563713779192816,0.28923517056801173
5.938024997711182,0.61,-0.66,10.45,-0.96,-0.02,0.02,-0.02,-0.05,0.68,0.73,-6.493123186617793,0.6564120923683909,0.28952330262943393
5.938532114028931,0.61,-0.66,10.45,-0.96,-0.02,0.02,-0.02,-0.05,0.68,0.73,-6.492648665076626,0.6564385404559201,0.2892170567763761
5.939041614532471,0.61,-0.66,10.45,-0.88,-0.01,0.04,-0.02,-0.05,0.68,0.73,-6.49263900953855,0.6564376583752854,0.2882408216188386
5.93952751159668,0.61,-0.66,10.45,-0.88,-0.01,0.04,-0.02,-0.06,0.68,0.73,-7.3387139563709285,0.585832335978901,-0.48875494197178776
5.940227270126343,0.07,-1.65,7.65,-0.88,-0.01,0.04,-0.02,-0.06,0.68,0.73,-7.3387248213075456,0.5857436882301308,-0.48788746980920467
5.9407854080200195,0.07,-1.65,7.65,-0.76,-0.02,0.03,-0.02,-0.06,0.68,0.73,-7.338725447980418,0.585387996294218,-0.4875860701388956
5.941282749176025,0.07,-1.65,7.65,-0.76,-0.02,0.03,-0.02,-0.06,0.68,0.73,-7.338858218772812,0.5848041439106464,-0.4885699038328072
5.941877841949463,0.07,-1.65,7.65,-0.76,-0.02,0.03,-0.03,-0.06,0.68,0.73,-8.109876142245103,0.6305205976228045,0.3636324363940199
5.942386865615845,0.07,-1.65,7.65,-0.66,-0.02,0.03,-0.03,-0.06,0.68,0.73,-8.11039595389882,0.6311151884570265,0.36421972833268296
5.942869424819946,0.07,-1.65,7.65,-0.66,-0.02,0.03,-0.03,-0.06,0.68,0.73,-8.110496433097248,0.6317035634887196,0.36521038948192963
5.943479299545288,0.07,-1.65,7.65,-0.58,-0.02,0.02,-0.03,-0.06,0.68,0.73,-8.11000607368196,0.631880502002803,0.36596218511325335
5.944002628326416,0.07,-1.65,7.65,-0.58,-0.02,0.02,-0.03,-0.07,0.68,0.73,-8.95394808795238,0.5506340350140693,-0.41277658840197584
5.944408178329468,0.07,-1.65,7.65,-0.54,-0.03,0.04,-0.03,-0.07,0.68,0.73,-8.954369670225446,0.5504972306826481,-0.4135667637760437
5.944777727127075,0.07,-1.65,7.65,-0.54,-0.03,0.04,-0.03,-0.07,0.68,0.73,-8.954580632781072,0.5503829243179035,-0.4145667846446764
5.945142030715942,0.07,-1.65,7.65,-0.5,-0.02,0.04,-0.03,-0.07,0.68,0.73,-8.954226444870976,0.5503269377422297,-0.41531030977971206
5.9457480907440186,0.07,-1.65,7.65,-0.5,-0.02,0.04,-0.04,-0.07,0.68,0.73,-9.723692616682523,0.6089028456807823,0.43909229054650883
6.004979372024536,0.42,-1.5,8.88,-0.5,-0.02,0.04,-0.04,-0.07,0.68,0.73,-9.72405439032852,0.6089630620645305,0.4399383834131379
6.005624055862427,0.42,-1.5,8.88,-0.5,-0.02,0.04,-0.04,-0.07,0.68,0.73,-9.724172259233068,0.6090411384679284,0.4409572211613279
6.006267309188843,0.42,-1.5,8.88,-0.46,-0.02,0.04,-0.04,-0.07,0.68,0.73,-9.72374771808632,0.6091072667539055,0.44166211241572667
6.006746530532837,0.42,-1.5,8.88,-0.46,-0.02,0.04,-0.04,-0.07,0.68,0.73,-9.723585460555334,0.6091143912097333,0.44170302649983106
6.007177829742432,0.42,-1.5,8.88,-0.38,-0.01,0.01,-0.04,-0.07,0.68,0.73,-9.724007269348313,0.6090400000522246,0.44090434503271414
6.007603406906128,0.42,-1.5,8.88,-0.38,-0.01,0.01,-0.04,-0.07,0.68,0.73,-9.724185486307935,0.6089545471625,0.4399284638842641
6.008067607879639,0.42,-1.5,8.88,-0.27,-0.01,0.0,-0.04,-0.07,0.68,0.73,-9.723786292698524,0.6089021741126813,0.439224546668482
6.008479118347168,0.42,-1.5,8.88,-0.27,-0.01,0.0,-0.04,-0.08,0.68,0.73,-10.565631096377817,0.5170057355372593,-0.3420443214089369
6.008898735046387,0.65,-2.0,9.29,-0.27,-0.01,0.0,-0.04,-0.08,0.68,0.73,-10.566132549674697,0.5170551995851144,-0.3413514803034286
6.009319067001343,0.65,-2.0,9.29,-0.27,-0.01,0.0,-0.04,-0.08,0.68,0.73,-10.566646661731127,0.5170960183541551,-0.3407557038278702
6.00972843170166,0.65,-2.0,9.29,-0.21,-0.01,0.01,-0.04,-0.08,0.68,0.73,-10.566793648420411,0.5171014892624888,-0.34065383367931323
6.01017427444458,0.65,-2.0,9.29,-0.21,-0.01,0.01,-0.04,-0.08,0.68,0.73,-10.566744211945048,0.5170965864260282,-0.3407218337743949
6.010572671890259,0.65,-2.0,9.29,-0.18,-0.02,0.04,-0.04,-0.08,0.68,0.73,-10.566536503108981,0.5171056983599699,-0.3406791233560018
6.0109782218933105,0.65,-2.0,9.29,-0.18,-0.02,0.04,-0.04,-0.08,0.68,0.73,-10.56610679551444,0.5171452613589049,-0.34036161282949473
6.064547061920166,0.65,-2.0,9.29,-0.17,-0.02,0.05,-0.04,-0.08,0.68,0.73,-10.56553152837967,0.5172062506849259,-0.33984774561875086
6.065465688705444,0.65,-2.0,9.29,-0.17,-0.02,0.05,-0.04,-0.08,0.68,0.73,-10.565422832064833,0.51721876844932,-0.33973965706203674
6.065998077392578,0.5,-1.65,9.75,-0.17,-0.02,0.05,-0.04,-0.08,0.68,0.73,-10.566043824638312,0.5171519726451135,-0.3403049944517132
6.066405534744263,0.5,-1.65,9.75,-0.16,-0.02,0.04,-0.04,-0.08,0.68,0.73,-10.566619299127444,0.5170897196430256,-0.34083280017153106
6.066796541213989,0.5,-1.65,9.75,-0.16,-0.02,0.04,-0.04,-0.08,0.68,0.73,-10.566747076683896,0.5170759216388878,-0.34094972076044217
6.067432641983032,0.5,-1.65,9.75,-0.16,-0.02,0.04,-0.04,-0.08,0.68,0.73,-10.5666859746055,0.5170825498378111,-0.3408934761102888
6.067885160446167,0.5,-1.65,9.75,-0.16,-0.01,0.03,-0.04,-0.08,0.68,0.73,-10.566605500172908,0.5170912623560772,-0.34081958943871665
6.06828498840332,0.5,-1.65,9.75,-0.16,-0.01,0.03,-0.04,-0.08,0.68,0.73,-10.566561955161566,0.5170959731881934,-0.34077964841924746
6.068673133850098,0.5,-1.65,9.75,-0.15,-0.01,0.03,-0.04,-0.08,0.68,0.73,-10.566551299015991,0.5170971242198517,-0.3407698940128354
6.069054126739502,0.5,-1.65,9.75,-0.15,-0.01,0.03,-0.05,-0.08,0.68,0.73,-11.33480775262882,0.5884613433476052,0.5156625705521689
6.0694921016693115,0.5,-1.65,9.75,-0.1,-0.01,0.02,-0.05,-0.08,0.68,0.73,-11.334826093130257,0.5884618790897976,0.515671212751151
6.122053623199463,0.5,-1.65,9.75,-0.1,-0.01,0.02,-0.05,-0.08,0.68,0.73,-11.334857950253264,0.5884641780027782,0.5157000530716407
6.122727870941162,0.5,-1.65,9.75,-0.03,-0.01,0.03,-0.05,-0.08,0.68,0.73,-11.334896011232683,0.5884675376888425,0.5157407055764589
6.12328028678894,0.5,-1.65,9.75,-0.03,-0.01,0.03,-0.05,-0.08,0.68,0.73,-11.334898097782208,0.5884677797523172,0.5157435192234008
6.123715877532959,0.5,-1.65,9.75,0.08,-0.01,0.05,-0.05,-0.08,0.68,0.73,-11.334770019222136,0.5884559662083801,0.5156015876527895
6.124187707901001,0.5,-1.65,9.75,0.08,-0.01,0.05,-0.05,-0.08,0.68,0.73,-11.334411045459728,0.5884226700056636,0.5152019109820262
6.124621391296387,0.54,-2.11,8.22,0.08,-0.01,0.05,-0.05,-0.08,0.68,0.73,-11.333894190941454,0.5883746725448161,0.5146258738049723
6.12507700920105,0.54,-2.11,8.22,0.08,-0.01,0.05,-0.05,-0.08,0.68,0.73,-11.33379200689246,0.5883651776058786,0.5145119318861264
6.125509738922119,0.54,-2.11,8.22,0.23,-0.0,0.06,-0.05,-0.08,0.68,0.73,-11.334354171800058,0.5884173923084411,0.5151385638620116
6.125914812088013,0.54,-2.11,8.22,0.23,-0.0,0.06,-0.05,-0.08,0.68,0.73,-11.334876742923493,0.5884659313482852,0.5157210804408217
6.126398086547852,0.54,-2.11,8.22,0.57,0.0,0.06,-0.05,-0.08,0.68,0.73,-11.334992668230354,0.5884766987542086,0.5158503005908559
6.126906633377075,0.54,-2.11,8.22,0.57,0.0,0.06,-0.04,-0.08,0.68,0.73,-10.566684535693774,0.5171068966945098,-0.34064768256126104
6.178831577301025,0.5,-1.84,8.68,0.57,0.0,0.06,-0.04,-0.08,0.68,0.73,-10.566598894414202,0.5170989417194798,-0.34074314980091713
6.179513931274414,0.5,-1.84,8.68,0.57,0.0,0.06,-0.04,-0.08,0.68,0.73,-10.566530778272641,0.5170926145419451,-0.34081908180910064
6.180001735687256,0.5,-1.84,8.68,0.7,0.0,0.08,-0.04,-0.08,0.68,0.73,-10.566483923468672,0.5170882621892461,-0.3408713138953049
6.180437088012695,0.5,-1.84,8.68,0.7,0.0,0.08,-0.04,-0.07,0.68,0.73,-9.724480230029865,0.6089831370961508,0.44034570311185467
6.180896520614624,0.5,-1.84,8.68,0.83,0.01,0.09,-0.04,-0.07,0.68,0.73,-9.724599428000307,0.6089969850846231,0.4405066436427818
6.181329250335693,0.5,-1.84,8.68,0.83,0.01,0.09,-0.04,-0.07,0.68,0.73,-9.724929821138053,0.6090340027887294,0.44093892643343624
6.181748390197754,0.42,-1.42,8.84,0.83,0.01,0.09,-0.04,-0.07,0.68,0.73,-9.725406643487345,0.6090865296787934,0.44155372721339936
6.182204723358154,0.42,-1.42,8.84,0.95,0.01,0.12,-0.04,-0.07,0.68,0.73,-9.725506074535993,0.6090962810714399,0.4416697784955578
6.182651996612549,0.42,-1.42,8.84,0.95,0.01,0.12,-0.04,-0.07,0.68,0.73,-9.7250834771212,0.6090287576789304,0.4409128811171895
6.183117389678955,0.42,-1.42,8.84,0.95,0.01,0.12,-0.03,-0.07,0.68,0.73,-8.955333136133254,0.5503636390792317,-0.41449596759186746
6.1835432052612305,0.42,-1.42,8.84,1.03,0.01,0.13,-0.03,-0.07,0.68,0.73,-8.955770989982302,0.5502900941889092,-0.4151647093456835
6.183950185775757,0.42,-1.42,8.84,1.03,0.01,0.13,-0.03,-0.06,0.68,0.73,-8.111761618312304,0.6314812647820406,0.36358452304350686
6.2371580600738525,0.42,-1.42,8.84,1.09,-0.0,0.11,-0.03,-0.06,0.68,0.73,-8.111167625295582,0.6315537878023691,0.36420901798822936
6.23787784576416,0.42,-1.42,8.84,1.09,-0.0,0.11,-0.02,-0.06,0.68,0.73,-7.3399445661183,0.58575907026754,-0.4880566490466715
6.238409519195557,0.73,1.38,17.88,1.09,-0.0,0.11,-0.02,-0.06,0.68,0.73,-7.3399016476955765,0.585786749929728,-0.4877622203528105
6.238866090774536,0.73,1.38,17.88,1.09,-0.0,0.11,-0.02,-0.06,0.68,0.73,-7.340287158092465,0.5858056657726708,-0.48745304224404307
6.239367961883545,0.73,1.38,17.88,1.11,-0.05,0.09,-0.02,-0.06,0.68,0.73,-7.340982679137887,0.5858201190905213,-0.48712918754774537
6.239809036254883,0.73,1.38,17.88,1.11,-0.05,0.09,-0.02,-0.05,0.68,0.73,-6.495527838911172,0.6563840556244304,0.28929781151459555
6.240349531173706,0.73,1.38,17.88,0.32,-0.04,0.08,-0.02,-0.05,0.68,0.73,-6.495656599353006,0.6562941182782637,0.2882923798743352
6.240811347961426,0.73,1.38,17.88,0.32,-0.04,0.08,-0.01,-0.05,0.68,0.73,-5.724214727031703,0.6230499864863733,-0.5636117997587288
6.2412638664245605,0.84,-0.73,7.07,0.32,-0.04,0.08,-0.01,-0.05,0.68,0.73,-5.723940397880662,0.6231349560026992,-0.5625676692935097
6.241733074188232,0.84,-0.73,7.07,-0.51,0.05,-0.04,-0.01,-0.05,0.68,0.73,-5.723490108255133,0.6231998804155249,-0.5618887150858596
6.242292642593384,0.84,-0.73,7.07,-0.51,0.05,-0.04,-0.01,-0.05,0.68,0.73,-5.7229745149136395,0.6231709090670939,-0.5624833524366347
6.242785215377808,0.84,-0.73,7.07,-0.51,0.05,-0.04,-0.01,-0.05,0.68,0.73,-5.722943907592038,0.6231037620069257,-0.5634413039845398
6.24322772026062,0.84,-0.73,7.07,-0.46,0.03,-0.1,-0.01,-0.05,0.68,0.73,-5.723615278106868,0.6230478338715787,-0.5640147253753731
6.295010566711426,0.84,-0.73,7.07,-0.46,0.03,-0.1,-0.02,-0.05,0.68,0.73,-6.495539280338971,0.6562707663137056,0.28794738454734187
6.295710802078247,0.84,-0.73,7.07,0.07,0.0,-0.06,-0.02,-0.05,0.68,0.73,-6.495530459493932,0.656348243013783,0.2891679127558564
6.296261787414551,0.84,-0.73,7.07,0.07,0.0,-0.06,-0.02,-0.05,0.68,0.73,-6.495119112650229,0.6564044260632238,0.28988537007028475
6.296720266342163,0.73,-0.66,11.86,0.07,0.0,-0.06,-0.02,-0.05,0.68,0.73,-6.494467473908817,0.6563934582020263,0.28943585934960564
6.297138452529907,0.73,-0.66,11.86,0.07,0.0,-0.06,-0.02,-0.05,0.68,0.73,-6.493999711061539,0.6563659814174696,0.2888023447123121
6.297587156295776,0.73,-0.66,11.86,0.28,-0.01,-0.08,-0.02,-0.05,0.68,0.73,-6.493829859070927,0.6563485300140801,0.2884537885261114
6.29805850982666,0.73,-0.66,11.86,0.28,-0.01,-0.08,-0.02,-0.05,0.68,0.73,-6.493566486894537,0.6563316039463618,0.2880744542765455
6.298518896102905,0.73,-0.66,11.86,0.07,0.0,-0.05,-0.02,-0.05,0.68,0.73,-6.493131349427578,0.6563114486713829,0.28757163990962037
6.298940420150757,0.73,-0.66,11.86,0.07,0.0,-0.05,-0.01,-0.05,0.68,0.73,-5.7217095886612235,0.6230910790448181,-0.5641445928182252
6.299379587173462,0.07,-0.73,8.76,0.07,0.0,-0.05,-0.01,-0.05,0.68,0.73,-5.72226573286831,0.6231157593177696,-0.5635189546128658
6.2998270988464355,0.07,-0.73,8.76,-0.17,0.02,-0.04,-0.01,-0.05,0.68,0.73,-5.722755069501769,0.6231372529062305,-0.5629720099574284
6.351860523223877,0.07,-0.73,8.76,-0.17,0.02,-0.04,-0.01,-0.05,0.68,0.73,-5.7228279805410684,0.6231405085069766,-0.5628896795070626
