Timestamp,AccelX,AccelY,AccelZ,GyroX,GyroY,GyroZ,QuatW,QuatX,QuatY,QuatZ,Tilt,Obliquity,Rotation
2.131387948989868,0.16,-0.0,9.74,0.0,0.0,0.0,-0.01,-0.01,-0.36,0.93,4.027974794735379e-15,-1.532621912254286e-13,8.364040108030047e-15
2.1318092346191406,0.16,-0.0,9.74,0.0,0.0,0.0,-0.01,-0.01,-0.36,0.93,4.027974794735379e-15,-1.532621912254286e-13,8.364040108030047e-15
2.1320502758026123,0.16,-0.0,9.74,0.0,0.0,0.0,-0.01,-0.01,-0.36,0.93,4.027974794735379e-15,-1.532621912254286e-13,8.364040108030047e-15
2.132251024246216,0.16,-0.0,9.74,0.0,0.0,0.0,-0.01,-0.01,-0.36,0.93,4.027974794735379e-15,-1.532621912254286e-13,8.364040108030047e-15
2.1324498653411865,0.16,-0.0,9.74,0.0,0.0,0.0,-0.01,-0.01,-0.36,0.93,4.027974794735379e-15,-1.532621912254286e-13,8.364040108030047e-15
2.1327946186065674,0.16,-0.0,9.74,0.0,0.0,0.0,-0.01,-0.01,-0.36,0.93,4.027974794735379e-15,-1.532621912254286e-13,8.364040108030047e-15
2.1330063343048096,0.16,-0.0,9.74,0.0,0.0,0.0,-0.01,-0.01,-0.36,0.93,4.027974794735379e-15,-1.532621912254286e-13,8.364040108030047e-15
2.1331756114959717,0.16,-0.0,9.74,0.0,0.0,0.0,-0.01,-0.01,-0.36,0.93,4.027974794735379e-15,-1.532621912254286e-13,8.364040108030047e-15
2.1333203315734863,0.16,-0.0,9.74,0.0,0.0,0.0,-0.01,-0.01,-0.36,0.93,4.027974794735379e-15,-1.532621912254286e-13,8.364040108030047e-15
2.133455991744995,0.16,-0.0,9.74,0.0,0.0,0.0,-0.01,-0.01,-0.36,0.93,4.027974794735379e-15,-1.532621912254286e-13,8.364040108030047e-15
2.209559440612793,0.16,-0.0,9.74,0.0,0.0,0.0,-0.01,-0.01,-0.36,0.93,4.027974794735379e-15,-1.532621912254286e-13,8.364040108030047e-15
2.2101333141326904,0.2,-0.0,9.73,0.0,0.0,0.0,-0.01,-0.01,-0.36,0.93,4.027974794735379e-15,-1.532621912254286e-13,8.364040108030047e-15
2.210455894470215,0.2,-0.0,9.73,0.0,0.0,0.0,-0.01,-0.01,-0.36,0.93,4.027974794735379e-15,-1.532621912254286e-13,8.364040108030047e-15
2.2106566429138184,0.2,-0.0,9.73,0.0,0.0,0.0,-0.01,-0.01,-0.36,0.93,4.027974794735379e-15,-1.532621912254286e-13,8.364040108030047e-15
2.2109534740448,0.2,-0.0,9.73,0.0,0.0,0.0,-0.01,-0.01,-0.36,0.93,4.027974794735379e-15,-1.532621912254286e-13,8.364040108030047e-15
2.2112014293670654,0.2,-0.08,9.82,0.0,0.0,0.0,-0.01,-0.01,-0.36,0.93,4.027974794735379e-15,-1.532621912254286e-13,8.364040108030047e-15
2.2114200592041016,0.2,-0.08,9.82,0.0,0.0,0.0,-0.01,-0.01,-0.36,0.93,4.027974794735379e-15,-1.532621912254286e-13,8.364040108030047e-15
2.211581230163574,0.2,-0.08,9.82,0.0,0.0,0.0,-0.01,-0.01,-0.36,0.93,4.027974794735379e-15,-1.532621912254286e-13,8.364040108030047e-15
2.2117228507995605,0.2,-0.08,9.82,0.0,0.0,0.0,-0.01,-0.01,-0.36,0.93,4.027974794735379e-15,-1.532621912254286e-13,8.364040108030047e-15
2.2118568420410156,0.2,-0.08,9.82,0.0,0.0,0.0,-0.01,-0.01,-0.36,0.93,4.027974794735379e-15,-1.532621912254286e-13,8.364040108030047e-15
2.212080478668213,0.2,-0.08,9.82,0.0,0.0,0.0,-0.01,-0.01,-0.36,0.93,4.027974794735379e-15,-1.532621912254286e-13,8.364040108030047e-15
2.212268829345703,0.2,-0.08,9.82,0.0,0.0,0.0,-0.01,-0.01,-0.36,0.93,4.027974794735379e-15,-1.532621912254286e-13,8.364040108030047e-15
2.2124218940734863,0.2,-0.08,9.82,0.0,0.0,0.0,-0.01,-0.01,-0.36,0.93,4.027974794735379e-15,-1.532621912254286e-13,8.364040108030047e-15
2.212606430053711,0.24,-0.08,9.85,0.0,0.0,0.0,-0.01,-0.01,-0.36,0.93,4.027974794735379e-15,-1.532621912254286e-13,8.364040108030047e-15
2.212750196456909,0.24,-0.08,9.85,0.0,0.0,0.0,-0.01,-0.01,-0.36,0.93,4.027974794735379e-15,-1.532621912254286e-13,8.364040108030047e-15
2.2128682136535645,0.24,-0.08,9.85,0.0,0.0,0.0,-0.01,-0.01,-0.36,0.93,4.027974794735379e-15,-1.532621912254286e-13,8.364040108030047e-15
2.213006019592285,0.24,-0.08,9.85,0.0,0.0,0.0,-0.01,-0.01,-0.36,0.93,4.027974794735379e-15,-1.532621912254286e-13,8.364040108030047e-15
2.2132062911987305,0.24,-0.08,9.85,0.0,0.0,0.0,-0.01,-0.01,-0.36,0.93,4.027974794735379e-15,-1.532621912254286e-13,8.364040108030047e-15
2.3158040046691895,0.24,-0.08,9.85,0.0,0.0,0.0,-0.01,-0.01,-0.36,0.93,4.027974794735379e-15,-1.532621912254286e-13,8.364040108030047e-15
2.3165934085845947,0.24,-0.08,9.85,0.0,0.0,0.0,-0.01,-0.01,-0.36,0.93,4.027974794735379e-15,-1.532621912254286e-13,8.364040108030047e-15
2.317051410675049,0.24,-0.08,9.85,0.0,0.0,0.0,-0.01,-0.01,-0.36,0.93,4.027974794735379e-15,-1.532621912254286e-13,8.364040108030047e-15
2.317380905151367,0.24,-0.08,9.81,0.0,0.0,0.0,-0.01,-0.01,-0.36,0.93,4.027974794735379e-15,-1.532621912254286e-13,8.364040108030047e-15
2.3176655769348145,0.24,-0.08,9.81,0.0,0.0,0.0,-0.01,-0.01,-0.36,0.93,4.027974794735379e-15,-1.532621912254286e-13,8.364040108030047e-15
2.3179876804351807,0.24,-0.08,9.81,0.0,0.0,0.0,-0.01,-0.01,-0.36,0.93,4.027974794735379e-15,-1.532621912254286e-13,8.364040108030047e-15
2.318208932876587,0.24,-0.08,9.81,0.0,0.0,0.0,-0.01,-0.01,-0.36,0.93,4.027974794735379e-15,-1.532621912254286e-13,8.364040108030047e-15
2.318408727645874,0.24,-0.08,9.81,0.0,0.0,0.0,-0.01,-0.01,-0.36,0.93,4.027974794735379e-15,-1.532621912254286e-13,8.364040108030047e-15
2.318769693374634,0.24,-0.08,9.81,0.0,0.0,0.0,-0.01,-0.01,-0.36,0.93,4.027974794735379e-15,-1.532621912254286e-13,8.364040108030047e-15
2.3190462589263916,0.24,-0.08,9.81,0.0,0.0,0.0,-0.01,-0.01,-0.36,0.93,4.027974794735379e-15,-1.532621912254286e-13,8.364040108030047e-15
2.3193020820617676,0.24,-0.08,9.81,0.0,0.0,0.0,-0.01,-0.01,-0.36,0.93,4.027974794735379e-15,-1.532621912254286e-13,8.364040108030047e-15
2.3195300102233887,0.24,-0.04,9.85,0.0,0.0,0.0,-0.01,-0.01,-0.36,0.93,4.027974794735379e-15,-1.532621912254286e-13,8.364040108030047e-15
2.319835901260376,0.24,-0.04,9.85,0.0,0.0,0.0,-0.01,-0.01,-0.36,0.93,4.027974794735379e-15,-1.532621912254286e-13,8.364040108030047e-15
2.3200864791870117,0.24,-0.04,9.85,0.0,0.0,0.0,-0.01,-0.01,-0.36,0.93,4.027974794735379e-15,-1.532621912254286e-13,8.364040108030047e-15
2.320298910140991,0.24,-0.04,9.85,0.0,0.0,0.0,-0.01,-0.01,-0.36,0.93,4.027974794735379e-15,-1.532621912254286e-13,8.364040108030047e-15
2.3205180168151855,0.24,-0.04,9.85,0.0,0.0,0.0,-0.01,-0.01,-0.36,0.93,4.027974794735379e-15,-1.532621912254286e-13,8.364040108030047e-15
2.320704221725464,0.24,-0.04,9.85,0.0,0.0,0.0,-0.01,-0.01,-0.36,0.93,4.027974794735379e-15,-1.532621912254286e-13,8.364040108030047e-15
2.321134090423584,0.24,-0.04,9.85,0.0,0.0,0.0,-0.01,-0.01,-0.36,0.93,4.027974794735379e-15,-1.532621912254286e-13,8.364040108030047e-15
2.3213624954223633,0.24,-0.04,9.85,0.0,0.0,0.0,-0.01,-0.01,-0.36,0.93,4.027974794735379e-15,-1.532621912254286e-13,8.364040108030047e-15
2.321559190750122,0.24,-0.04,9.85,0.0,0.0,0.0,-0.01,-0.01,-0.36,0.93,4.027974794735379e-15,-1.532621912254286e-13,8.364040108030047e-15
2.3217380046844482,0.24,-0.04,9.85,0.0,0.0,0.0,-0.01,-0.01,-0.36,0.93,4.027974794735379e-15,-1.532621912254286e-13,8.364040108030047e-15
2.3219094276428223,0.24,-0.04,9.85,0.0,0.0,0.0,-0.01,-0.01,-0.36,0.93,4.027974794735379e-15,-1.532621912254286e-13,8.364040108030047e-15
2.3220856189727783,0.24,-0.04,9.85,0.0,0.0,0.0,-0.01,-0.01,-0.36,0.93,4.027974794735379e-15,-1.532621912254286e-13,8.364040108030047e-15
2.4135148525238037,0.24,-0.04,9.85,0.0,0.0,0.0,-0.01,-0.01,-0.36,0.93,4.027974794735379e-15,-1.532621912254286e-13,8.364040108030047e-15
2.4138808250427246,0.24,-0.04,9.85,0.0,0.0,0.0,-0.01,-0.01,-0.36,0.93,4.027974794735379e-15,-1.532621912254286e-13,8.364040108030047e-15
2.4141225814819336,0.24,-0.04,9.85,0.0,0.0,0.0,-0.01,-0.01,-0.36,0.93,4.027974794735379e-15,-1.532621912254286e-13,8.364040108030047e-15
2.4142651557922363,0.24,-0.04,9.85,0.0,0.0,0.0,-0.01,-0.01,-0.36,0.93,4.027974794735379e-15,-1.532621912254286e-13,8.364040108030047e-15
2.414411783218384,0.24,-0.04,9.85,0.0,0.0,0.0,-0.01,-0.01,-0.36,0.93,4.027974794735379e-15,-1.532621912254286e-13,8.364040108030047e-15
2.4145407676696777,0.24,-0.04,9.85,0.0,0.0,0.0,-0.01,-0.01,-0.36,0.93,4.027974794735379e-15,-1.532621912254286e-13,8.364040108030047e-15
2.4146556854248047,0.24,-0.04,9.85,0.0,0.0,0.0,-0.01,-0.01,-0.36,0.93,4.027974794735379e-15,-1.532621912254286e-13,8.364040108030047e-15
2.4147655963897705,0.24,-0.04,9.85,0.0,0.0,0.0,-0.01,-0.01,-0.36,0.93,4.027974794735379e-15,-1.532621912254286e-13,8.364040108030047e-15
2.414870023727417,0.24,-0.04,9.85,0.0,0.0,0.0,-0.01,-0.01,-0.36,0.93,4.027974794735379e-15,-1.532621912254286e-13,8.364040108030047e-15
2.415081024169922,0.24,-0.04,9.85,0.0,0.0,0.0,-0.01,-0.01,-0.36,0.93,4.027974794735379e-15,-1.532621912254286e-13,8.364040108030047e-15
2.4152214527130127,0.24,-0.04,9.85,0.0,0.0,0.0,-0.01,-0.01,-0.36,0.93,4.027974794735379e-15,-1.532621912254286e-13,8.364040108030047e-15
2.4153361320495605,0.24,-0.04,9.85,0.0,0.0,0.0,-0.01,-0.01,-0.36,0.93,4.027974794735379e-15,-1.532621912254286e-13,8.364040108030047e-15
2.41544246673584,0.2,-0.04,9.89,0.0,0.0,0.0,-0.01,-0.01,-0.36,0.93,4.027974794735379e-15,-1.532621912254286e-13,8.364040108030047e-15
2.4155731201171875,0.2,-0.04,9.89,0.0,0.0,0.0,-0.01,-0.01,-0.36,0.93,4.027974794735379e-15,-1.532621912254286e-13,8.364040108030047e-15
2.415703773498535,0.2,-0.04,9.89,0.0,0.0,0.0,-0.01,-0.01,-0.36,0.93,4.027974794735379e-15,-1.532621912254286e-13,8.364040108030047e-15
2.41581654548645,0.2,-0.04,9.89,0.0,0.0,0.0,-0.01,-0.01,-0.36,0.93,4.027974794735379e-15,-1.532621912254286e-13,8.364040108030047e-15
2.415944814682007,0.2,-0.04,9.89,0.0,0.0,0.0,-0.01,-0.01,-0.36,0.93,4.027974794735379e-15,-1.532621912254286e-13,8.364040108030047e-15
2.4160642623901367,0.2,-0.04,9.89,0.0,0.0,0.0,-0.01,-0.01,-0.36,0.93,4.027974794735379e-15,-1.532621912254286e-13,8.364040108030047e-15
2.416185140609741,0.2,-0.08,9.82,0.0,0.0,0.0,-0.01,-0.01,-0.36,0.93,4.027974794735379e-15,-1.532621912254286e-13,8.364040108030047e-15
2.416346788406372,0.2,-0.08,9.82,0.0,0.0,0.0,-0.01,-0.01,-0.36,0.93,4.027974794735379e-15,-1.532621912254286e-13,8.364040108030047e-15
2.4885339736938477,0.2,-0.08,9.82,0.0,0.0,0.0,-0.01,-0.01,-0.36,0.93,4.027974794735379e-15,-1.532621912254286e-13,8.364040108030047e-15
2.4889118671417236,0.2,-0.08,9.82,0.0,0.0,0.0,-0.01,-0.01,-0.36,0.93,4.027974794735379e-15,-1.532621912254286e-13,8.364040108030047e-15
2.489118814468384,0.2,-0.08,9.82,0.0,0.0,0.0,-0.01,-0.01,-0.36,0.93,4.027974794735379e-15,-1.532621912254286e-13,8.364040108030047e-15
2.4892687797546387,0.2,-0.08,9.82,0.0,0.0,0.0,-0.01,-0.01,-0.36,0.93,4.027974794735379e-15,-1.532621912254286e-13,8.364040108030047e-15
2.4894185066223145,0.2,-0.08,9.82,0.0,0.0,0.0,-0.01,-0.01,-0.36,0.93,4.027974794735379e-15,-1.532621912254286e-13,8.364040108030047e-15
2.4895668029785156,0.2,-0.08,9.82,0.0,0.0,0.0,-0.01,-0.01,-0.36,0.93,4.027974794735379e-15,-1.532621912254286e-13,8.364040108030047e-15
2.489694356918335,0.2,-0.08,9.82,0.0,0.0,0.0,-0.01,-0.01,-0.36,0.93,4.027974794735379e-15,-1.532621912254286e-13,8.364040108030047e-15
2.489823818206787,0.2,-0.08,9.82,0.0,0.0,0.0,-0.01,-0.01,-0.36,0.93,4.027974794735379e-15,-1.532621912254286e-13,8.364040108030047e-15
2.4899473190307617,0.16,0.04,9.73,0.0,0.0,0.0,-0.01,-0.01,-0.36,0.93,4.027974794735379e-15,-1.532621912254286e-13,8.364040108030047e-15
2.4901416301727295,0.16,0.04,9.73,0.0,0.0,0.0,-0.01,-0.01,-0.36,0.93,4.027974794735379e-15,-1.532621912254286e-13,8.364040108030047e-15
2.490419626235962,0.16,0.04,9.73,0.0,0.0,0.0,-0.01,-0.01,-0.36,0.93,4.027974794735379e-15,-1.532621912254286e-13,8.364040108030047e-15
2.4906234741210938,0.16,0.04,9.73,0.0,0.0,0.0,-0.01,-0.01,-0.36,0.93,4.027974794735379e-15,-1.532621912254286e-13,8.364040108030047e-15
2.49078106880188,0.16,0.04,9.73,0.0,0.0,0.0,-0.01,-0.01,-0.36,0.93,4.027974794735379e-15,-1.532621912254286e-13,8.364040108030047e-15
2.490915536880493,0.16,0.04,9.73,0.0,0.0,0.0,-0.01,-0.01,-0.36,0.93,4.027974794735379e-15,-1.532621912254286e-13,8.364040108030047e-15
2.4910285472869873,0.16,0.04,9.73,0.0,0.0,0.0,-0.01,-0.01,-0.36,0.93,4.027974794735379e-15,-1.532621912254286e-13,8.364040108030047e-15
2.491137742996216,0.16,0.04,9.73,0.0,0.0,0.0,-0.01,-0.01,-0.36,0.93,4.027974794735379e-15,-1.532621912254286e-13,8.364040108030047e-15
2.4912638664245605,0.16,-0.04,9.74,0.0,0.0,0.0,-0.01,-0.01,-0.36,0.93,4.027974794735379e-15,-1.532621912254286e-13,8.364040108030047e-15
2.5584604740142822,0.16,-0.04,9.74,0.0,0.0,0.0,-0.01,-0.01,-0.36,0.93,4.027974794735379e-15,-1.532621912254286e-13,8.364040108030047e-15
2.5588467121124268,0.16,-0.04,9.74,0.0,0.0,0.0,-0.01,-0.01,-0.36,0.93,4.027974794735379e-15,-1.532621912254286e-13,8.364040108030047e-15
2.5590765476226807,0.16,-0.04,9.74,0.0,0.0,0.0,-0.01,-0.01,-0.36,0.93,4.027974794735379e-15,-1.532621912254286e-13,8.364040108030047e-15
2.5592591762542725,0.16,-0.04,9.74,0.0,0.0,0.0,-0.01,-0.01,-0.36,0.93,4.027974794735379e-15,-1.532621912254286e-13,8.364040108030047e-15
2.5594100952148438,0.16,-0.04,9.74,0.0,0.0,0.0,-0.01,-0.01,-0.36,0.93,4.027974794735379e-15,-1.532621912254286e-13,8.364040108030047e-15
2.5595617294311523,0.2,-0.12,9.7,0.0,0.0,0.0,-0.01,-0.01,-0.36,0.93,4.027974794735379e-15,-1.532621912254286e-13,8.364040108030047e-15
2.5596976280212402,0.2,-0.12,9.7,0.0,0.0,0.0,-0.01,-0.01,-0.36,0.93,4.027974794735379e-15,-1.532621912254286e-13,8.364040108030047e-15
2.5598580837249756,0.2,-0.12,9.7,0.0,0.0,0.0,-0.01,-0.01,-0.36,0.93,4.027974794735379e-15,-1.532621912254286e-13,8.364040108030047e-15
2.560011148452759,0.2,-0.12,9.7,0.0,0.0,0.0,-0.01,-0.01,-0.36,0.93,4.027974794735379e-15,-1.532621912254286e-13,8.364040108030047e-15
2.560137987136841,0.2,-0.12,9.7,0.0,0.0,0.0,-0.01,-0.01,-0.36,0.93,4.027974794735379e-15,-1.532621912254286e-13,8.364040108030047e-15
2.5602850914001465,0.2,-0.12,9.7,0.0,0.0,0.0,-0.01,-0.01,-0.36,0.93,4.027974794735379e-15,-1.532621912254286e-13,8.364040108030047e-15
2.560426950454712,0.2,-0.12,9.7,0.0,0.0,0.0,-0.01,-0.01,-0.36,0.93,4.027974794735379e-15,-1.5326219122542851e-13,8.364040108030046e-15
2.5611579418182373,0.2,-0.12,9.7,0.0,0.0,0.0,-0.01,-0.01,-0.36,0.93,4.027974794735379e-15,-1.5326219122542851e-13,8.364040108030046e-15
2.561727523803711,0.2,-0.12,9.7,0.0,0.0,0.0,-0.01,-0.01,-0.36,0.93,4.027974794735379e-15,-1.5326219122542851e-13,8.364040108030046e-15
2.635798931121826,0.2,-0.12,9.7,0.0,0.0,0.0,-0.01,-0.01,-0.36,0.93,4.027974794735379e-15,-1.5326219122542851e-13,8.364040108030046e-15
2.6367027759552,0.2,-0.12,9.7,0.0,0.0,0.0,-0.01,-0.01,-0.36,0.93,4.027974794735379e-15,-1.5326219122542851e-13,8.364040108030046e-15
2.6375417709350586,0.2,-0.12,9.7,0.0,0.0,0.0,-0.01,-0.01,-0.36,0.93,4.027974794735379e-15,-1.5326219122542851e-13,8.364040108030046e-15
2.638418436050415,0.24,-0.08,9.81,0.0,0.0,0.0,-0.01,-0.01,-0.36,0.93,4.027974794735379e-15,-1.5326219122542851e-13,8.364040108030046e-15
2.639120578765869,0.24,-0.08,9.81,0.0,0.0,0.0,-0.01,-0.01,-0.36,0.93,4.027974794735379e-15,-1.5326219122542851e-13,8.364040108030046e-15
2.6396853923797607,0.24,-0.08,9.81,0.0,0.0,0.0,-0.01,-0.01,-0.36,0.93,4.027974794735379e-15,-1.5326219122542851e-13,8.364040108030046e-15
2.640120267868042,0.24,-0.08,9.81,0.0,0.0,0.0,-0.01,-0.01,-0.36,0.93,4.027974794735379e-15,-1.5326219122542851e-13,8.364040108030046e-15
2.6405556201934814,0.24,-0.08,9.81,0.0,0.0,0.0,-0.01,-0.01,-0.36,0.93,4.027974794735379e-15,-1.5326219122542851e-13,8.364040108030046e-15
2.640997886657715,0.24,-0.08,9.81,0.0,0.0,0.0,-0.01,-0.01,-0.36,0.93,4.027974794735379e-15,-1.5326219122542851e-13,8.364040108030046e-15
2.6413960456848145,0.24,-0.08,9.81,0.0,0.0,0.0,-0.01,-0.01,-0.36,0.93,4.027974794735379e-15,-1.5326219122542851e-13,8.364040108030046e-15
2.6418344974517822,0.24,-0.08,9.81,0.0,0.0,0.0,-0.01,-0.01,-0.36,0.93,4.027974794735379e-15,-1.5326219122542851e-13,8.364040108030046e-15
2.64225697517395,0.24,-0.08,9.81,0.0,0.0,0.0,-0.01,-0.01,-0.36,0.93,4.027974794735379e-15,-1.5326219122542851e-13,8.364040108030046e-15
2.642670154571533,0.24,-0.08,9.81,0.0,0.0,0.0,-0.01,-0.01,-0.36,0.93,4.027974794735379e-15,-1.5326219122542851e-13,8.364040108030046e-15
2.643336534500122,0.24,-0.08,9.81,0.0,0.0,0.0,-0.01,-0.01,-0.36,0.93,4.027974794735379e-15,-1.5326219122542851e-13,8.364040108030046e-15
2.6440024375915527,0.24,-0.08,9.81,0.0,0.0,0.0,-0.01,-0.01,-0.36,0.93,4.027974794735379e-15,-1.5326219122542851e-13,8.364040108030046e-15
2.6447176933288574,0.2,-0.08,9.73,0.0,0.0,0.0,-0.01,-0.01,-0.36,0.93,4.027974794735379e-15,-1.5326219122542851e-13,8.364040108030046e-15
2.714167594909668,0.2,-0.08,9.73,0.0,0.0,0.0,-0.01,-0.01,-0.36,0.93,4.027974794735379e-15,-1.5326219122542851e-13,8.364040108030046e-15
2.7150237560272217,0.2,-0.08,9.73,0.0,0.0,0.0,-0.01,-0.01,-0.36,0.93,4.027974794735379e-15,-1.5326219122542851e-13,8.364040108030046e-15
2.715676784515381,0.2,-0.08,9.73,0.0,0.0,0.0,-0.01,-0.01,-0.36,0.93,4.027974794735379e-15,-1.5326219122542851e-13,8.364040108030046e-15
2.716243028640747,0.2,-0.08,9.73,0.0,0.0,0.0,-0.01,-0.01,-0.36,0.93,4.027974794735379e-15,-1.5326219122542851e-13,8.364040108030046e-15
2.7166881561279297,0.2,-0.08,9.73,0.0,0.0,0.0,-0.01,-0.01,-0.36,0.93,4.027974794735379e-15,-1.5326219122542851e-13,8.364040108030046e-15
2.717095375061035,0.2,-0.08,9.73,0.0,0.0,0.0,-0.01,-0.01,-0.36,0.93,4.027974794735379e-15,-1.5326219122542851e-13,8.364040108030046e-15
2.7175509929656982,0.2,-0.08,9.73,0.0,0.0,0.0,-0.01,-0.01,-0.36,0.93,4.027974794735379e-15,-1.5326219122542851e-13,8.364040108030046e-15
2.7179713249206543,0.24,-0.04,9.78,0.0,0.0,0.0,-0.01,-0.01,-0.36,0.93,4.027974794735379e-15,-1.5326219122542851e-13,8.364040108030046e-15
2.7183785438537598,0.24,-0.04,9.78,0.0,0.0,0.0,-0.01,-0.01,-0.36,0.93,4.027974794735379e-15,-1.5326219122542851e-13,8.364040108030046e-15
2.718837022781372,0.24,-0.04,9.78,0.0,0.0,0.0,-0.01,-0.01,-0.36,0.93,4.027974794735379e-15,-1.5326219122542851e-13,8.364040108030046e-15
2.7193503379821777,0.24,-0.04,9.78,0.0,0.0,0.0,-0.01,-0.01,-0.36,0.93,4.027974794735379e-15,-1.5326219122542851e-13,8.364040108030046e-15
2.7198288440704346,0.24,-0.04,9.78,0.0,0.0,0.0,-0.01,-0.01,-0.36,0.93,4.027974794735379e-15,-1.5326219122542851e-13,8.364040108030046e-15
2.720263957977295,0.24,-0.04,9.78,0.0,0.0,0.0,-0.01,-0.01,-0.36,0.93,4.027974794735379e-15,-1.5326219122542851e-13,8.364040108030046e-15
2.7206578254699707,0.24,-0.04,9.78,0.0,0.0,0.0,-0.01,-0.01,-0.36,0.93,4.027974794735379e-15,-1.5326219122542851e-13,8.364040108030046e-15
2.7211191654205322,0.24,-0.04,9.78,0.0,0.0,0.0,-0.01,-0.01,-0.36,0.93,4.027974794735379e-15,-1.5326219122542851e-13,8.364040108030046e-15
2.72156023979187,0.24,-0.08,9.89,0.0,0.0,0.0,-0.01,-0.01,-0.36,0.93,4.027974794735379e-15,-1.5326219122542851e-13,8.364040108030046e-15
2.722019672393799,0.24,-0.08,9.89,0.0,0.0,0.0,-0.01,-0.01,-0.36,0.93,4.027974794735379e-15,-1.5326219122542851e-13,8.364040108030046e-15
2.7224278450012207,0.24,-0.08,9.89,0.0,0.0,0.0,-0.01,-0.01,-0.36,0.93,4.027974794735379e-15,-1.5326219122542851e-13,8.364040108030046e-15
2.722877264022827,0.24,-0.08,9.89,0.0,0.0,0.0,-0.01,-0.01,-0.36,0.93,4.027974794735379e-15,-1.5326219122542851e-13,8.364040108030046e-15
2.7929680347442627,0.24,-0.08,9.89,0.0,0.0,0.0,-0.01,-0.01,-0.36,0.93,4.027974794735379e-15,-1.5326219122542851e-13,8.364040108030046e-15
2.7937350273132324,0.24,-0.08,9.89,0.0,0.0,0.0,-0.01,-0.01,-0.36,0.93,4.027974794735379e-15,-1.5326219122542851e-13,8.364040108030046e-15
2.7942466735839844,0.24,-0.08,9.89,0.0,0.0,0.0,-0.01,-0.01,-0.36,0.93,4.027974794735379e-15,-1.5326219122542851e-13,8.364040108030046e-15
2.795072078704834,0.24,-0.08,9.89,0.0,0.0,0.0,-0.01,-0.01,-0.36,0.93,4.027974794735379e-15,-1.5326219122542851e-13,8.364040108030046e-15
2.7958877086639404,0.24,-0.08,9.89,0.0,0.0,0.0,-0.01,-0.01,-0.36,0.93,4.027974794735379e-15,-1.5326219122542851e-13,8.364040108030046e-15
2.7966582775115967,0.24,-0.08,9.89,0.0,0.0,0.0,-0.01,-0.01,-0.36,0.93,4.027974794735379e-15,-1.5326219122542851e-13,8.364040108030046e-15
2.797332525253296,0.2,-0.08,9.77,0.0,0.0,0.0,-0.01,-0.01,-0.36,0.93,4.027974794735379e-15,-1.5326219122542851e-13,8.364040108030046e-15
2.7979254722595215,0.2,-0.08,9.77,0.0,0.0,0.0,-0.01,-0.01,-0.36,0.93,4.027974794735379e-15,-1.5326219122542851e-13,8.364040108030046e-15
2.798417568206787,0.2,-0.08,9.77,0.0,0.0,0.0,-0.01,-0.01,-0.36,0.93,4.027974794735379e-15,-1.5326219122542851e-13,8.364040108030046e-15
2.7989907264709473,0.2,-0.08,9.77,0.0,0.0,0.0,-0.01,-0.01,-0.36,0.93,4.027974794735379e-15,-1.5326219122542851e-13,8.364040108030046e-15
2.799504280090332,0.2,-0.08,9.77,0.0,0.0,0.0,-0.01,-0.01,-0.36,0.93,4.027974794735379e-15,-1.5326219122542851e-13,8.364040108030046e-15
2.7999448776245117,0.2,-0.08,9.77,0.0,0.0,0.0,-0.01,-0.01,-0.36,0.93,4.027974794735379e-15,-1.5326219122542851e-13,8.364040108030046e-15
2.80039644241333,0.2,-0.08,9.77,0.0,0.0,0.0,-0.01,-0.01,-0.36,0.93,4.027974794735379e-15,-1.5326219122542851e-13,8.364040108030046e-15
2.800889253616333,0.2,-0.08,9.77,0.0,0.0,0.0,-0.01,-0.01,-0.36,0.93,4.027974794735379e-15,-1.5326219122542851e-13,8.364040108030046e-15
2.8013298511505127,0.2,-0.08,9.77,0.0,0.0,0.0,-0.01,-0.01,-0.36,0.93,4.027974794735379e-15,-1.5326219122542851e-13,8.364040108030046e-15
2.8017306327819824,0.2,-0.08,9.77,0.0,0.0,0.0,-0.01,-0.01,-0.36,0.93,4.027974794735379e-15,-1.5326219122542851e-13,8.364040108030046e-15
2.877197265625,0.2,-0.08,9.77,0.0,0.0,0.0,-0.01,-0.01,-0.36,0.93,4.027974794735379e-15,-1.5326219122542851e-13,8.364040108030046e-15
2.877913475036621,0.2,-0.08,9.77,0.0,0.0,0.0,-0.01,-0.01,-0.36,0.93,4.027974794735379e-15,-1.5326219122542851e-13,8.364040108030046e-15
2.878406047821045,0.2,-0.08,9.77,0.0,0.0,0.0,-0.01,-0.01,-0.36,0.93,4.027974794735379e-15,-1.5326219122542851e-13,8.364040108030046e-15
2.8788514137268066,0.2,-0.08,9.77,0.0,0.0,0.0,-0.01,-0.01,-0.36,0.93,4.027974794735379e-15,-1.5326219122542851e-13,8.364040108030046e-15
2.879295587539673,0.2,-0.08,9.77,0.0,0.0,0.0,-0.01,-0.01,-0.36,0.93,4.027974794735379e-15,-1.5326219122542851e-13,8.364040108030046e-15
2.8798916339874268,0.2,-0.08,9.77,0.0,0.0,0.0,-0.01,-0.01,-0.36,0.93,4.027974794735379e-15,-1.5326219122542851e-13,8.364040108030046e-15
2.8805222511291504,0.2,-0.08,9.82,0.0,0.0,0.0,-0.01,-0.01,-0.36,0.93,4.027974794735379e-15,-1.5326219122542851e-13,8.364040108030046e-15
2.8812079429626465,0.2,-0.08,9.82,0.0,0.0,0.0,-0.01,-0.01,-0.36,0.93,4.027974794735379e-15,-1.5326219122542851e-13,8.364040108030046e-15
2.8817317485809326,0.2,-0.08,9.82,0.0,0.0,0.0,-0.01,-0.01,-0.36,0.93,4.027974794735379e-15,-1.5326219122542851e-13,8.364040108030046e-15
2.8821723461151123,0.2,-0.08,9.82,0.0,0.0,0.0,-0.01,-0.01,-0.36,0.93,4.027974794735379e-15,-1.5326219122542851e-13,8.364040108030046e-15
2.882641315460205,0.2,-0.08,9.82,0.0,0.0,0.0,-0.01,-0.01,-0.36,0.93,4.027974794735379e-15,-1.5326219122542851e-13,8.364040108030046e-15
2.883058786392212,0.2,-0.08,9.82,0.0,0.0,0.0,-0.01,-0.01,-0.36,0.93,4.027974794735379e-15,-1.5326219122542851e-13,8.364040108030046e-15
2.883485794067383,0.2,-0.08,9.82,0.0,0.0,0.0,-0.01,-0.01,-0.36,0.93,4.027974794735379e-15,-1.5326219122542851e-13,8.364040108030046e-15
2.883884906768799,0.2,-0.08,9.82,0.0,0.0,0.0,-0.01,-0.01,-0.36,0.93,4.027974794735379e-15,-1.5326219122542851e-13,8.364040108030046e-15
2.884340763092041,0.2,-0.08,9.82,0.0,0.0,0.0,-0.01,-0.01,-0.36,0.93,4.027974794735379e-15,-1.5326219122542851e-13,8.364040108030046e-15
2.884793996810913,0.2,-0.08,9.82,0.0,0.0,0.0,-0.01,-0.01,-0.36,0.93,4.027974794735379e-15,-1.5326219122542851e-13,8.364040108030046e-15
2.8852527141571045,0.2,-0.08,9.82,0.0,0.0,0.0,-0.01,-0.01,-0.36,0.93,4.027974794735379e-15,-1.5326219122542851e-13,8.364040108030046e-15
2.885704278945923,0.2,-0.08,9.82,0.0,0.0,0.0,-0.01,-0.01,-0.36,0.93,4.027974794735379e-15,-1.5326219122542851e-13,8.364040108030046e-15
2.8861372470855713,0.24,-0.08,9.78,0.0,0.0,0.0,-0.01,-0.01,-0.36,0.93,4.027974794735379e-15,-1.5326219122542851e-13,8.364040108030046e-15
2.9587864875793457,0.24,-0.08,9.78,0.0,0.0,0.0,-0.01,-0.01,-0.36,0.93,4.027974794735379e-15,-1.5326219122542851e-13,8.364040108030046e-15
2.959472417831421,0.24,-0.08,9.78,0.0,0.0,0.0,-0.01,-0.01,-0.36,0.93,4.027974794735379e-15,-1.5326219122542851e-13,8.364040108030046e-15
2.9599568843841553,0.24,-0.08,9.78,0.0,0.0,0.0,-0.01,-0.01,-0.36,0.93,4.027974794735379e-15,-1.5326219122542851e-13,8.364040108030046e-15
2.9603686332702637,0.24,-0.08,9.78,0.0,0.0,0.0,-0.01,-0.01,-0.36,0.93,4.027974794735379e-15,-1.5326219122542851e-13,8.364040108030046e-15
2.9608070850372314,0.24,-0.08,9.78,0.0,0.0,0.0,-0.01,-0.01,-0.36,0.93,4.027974794735379e-15,-1.5326219122542851e-13,8.364040108030046e-15
2.9612064361572266,0.24,-0.08,9.78,0.0,0.0,0.0,-0.01,-0.01,-0.36,0.93,4.027974794735379e-15,-1.5326219122542851e-13,8.364040108030046e-15
2.961592197418213,0.24,-0.08,9.78,0.0,0.0,0.0,-0.01,-0.01,-0.36,0.93,4.027974794735379e-15,-1.5326219122542851e-13,8.364040108030046e-15
2.96199107170105,0.2,-0.12,9.81,0.0,0.0,0.0,-0.01,-0.01,-0.36,0.93,4.027974794735379e-15,-1.5326219122542851e-13,8.364040108030046e-15
2.962496042251587,0.2,-0.12,9.81,0.0,0.0,0.0,-0.01,-0.01,-0.36,0.93,4.027974794735379e-15,-1.5326219122542851e-13,8.364040108030046e-15
2.9629874229431152,0.2,-0.12,9.81,0.0,0.0,0.0,-0.01,-0.01,-0.36,0.93,4.027974794735379e-15,-1.5326219122542851e-13,8.364040108030046e-15
2.9634366035461426,0.2,-0.12,9.81,0.0,0.0,0.0,-0.01,-0.01,-0.36,0.93,4.027974794735379e-15,-1.5326219122542851e-13,8.364040108030046e-15
2.96386456489563,0.2,-0.12,9.81,0.0,0.0,0.0,-0.01,-0.01,-0.36,0.93,4.027974794735379e-15,-1.5326219122542851e-13,8.364040108030046e-15
2.9642817974090576,0.2,-0.12,9.81,0.0,0.0,0.0,-0.01,-0.01,-0.36,0.93,4.027974794735379e-15,-1.5326219122542851e-13,8.364040108030046e-15
2.9647698402404785,0.2,-0.12,9.81,0.0,0.0,0.0,-0.01,-0.01,-0.36,0.93,4.027974794735379e-15,-1.5326219122542851e-13,8.364040108030046e-15
2.9651737213134766,0.2,-0.12,9.81,0.0,0.0,0.0,-0.01,-0.01,-0.36,0.93,4.027974794735379e-15,-1.5326219122542851e-13,8.364040108030046e-15
2.965594530105591,0.2,-0.12,9.81,0.0,0.0,0.0,-0.01,-0.01,-0.36,0.93,4.027974794735379e-15,-1.5326219122542851e-13,8.364040108030046e-15
2.966015577316284,0.2,-0.12,9.81,0.0,0.0,0.0,-0.01,-0.01,-0.36,0.93,4.027974794735379e-15,-1.5326219122542851e-13,8.364040108030046e-15
3.0386264324188232,0.24,-0.08,9.81,0.0,0.0,0.0,-0.01,-0.01,-0.36,0.93,4.027974794735379e-15,-1.5326219122542851e-13,8.364040108030046e-15
3.039435625076294,0.24,-0.08,9.81,0.0,0.0,0.0,-0.01,-0.01,-0.36,0.93,4.027974794735379e-15,-1.5326219122542851e-13,8.364040108030046e-15
3.040167808532715,0.24,-0.08,9.81,0.0,0.0,0.0,-0.01,-0.01,-0.36,0.93,4.027974794735379e-15,-1.5326219122542851e-13,8.364040108030046e-15
3.041001081466675,0.24,-0.08,9.81,0.0,0.0,0.0,-0.01,-0.01,-0.36,0.93,4.027974794735379e-15,-1.5326219122542851e-13,8.364040108030046e-15
3.0415732860565186,0.24,-0.08,9.81,0.0,0.0,0.0,-0.01,-0.01,-0.36,0.93,4.027974794735379e-15,-1.5326219122542851e-13,8.364040108030046e-15
3.042105197906494,0.24,-0.08,9.81,0.0,0.0,0.0,-0.01,-0.01,-0.36,0.93,4.027974794735379e-15,-1.5326219122542851e-13,8.364040108030046e-15
3.0425307750701904,0.24,-0.08,9.81,0.0,0.0,0.0,-0.01,-0.01,-0.36,0.93,4.027974794735379e-15,-1.5326219122542851e-13,8.364040108030046e-15
3.0429556369781494,0.24,-0.08,9.81,0.0,0.0,0.0,-0.01,-0.01,-0.36,0.93,4.027974794735379e-15,-1.5326219122542851e-13,8.364040108030046e-15
3.043363571166992,0.24,-0.08,9.81,0.0,0.0,0.0,-0.01,-0.01,-0.36,0.93,4.027974794735379e-15,-1.5326219122542851e-13,8.364040108030046e-15
3.0437769889831543,0.24,-0.08,9.81,0.0,0.0,0.0,-0.01,-0.01,-0.36,0.93,4.027974794735379e-15,-1.5326219122542851e-13,8.364040108030046e-15
3.0442206859588623,0.24,-0.04,9.81,0.0,0.0,0.0,-0.01,-0.01,-0.36,0.93,4.027974794735379e-15,-1.5326219122542851e-13,8.364040108030046e-15
3.04472279548645,0.24,-0.04,9.81,0.0,0.0,0.0,-0.01,-0.01,-0.36,0.93,4.027974794735379e-15,-1.5326219122542851e-13,8.364040108030046e-15
3.045233964920044,0.24,-0.04,9.81,0.0,0.0,0.0,-0.01,-0.01,-0.36,0.93,4.027974794735379e-15,-1.5326219122542851e-13,8.364040108030046e-15
3.0456364154815674,0.24,-0.04,9.81,0.0,0.0,0.0,-0.01,-0.01,-0.36,0.93,4.027974794735379e-15,-1.5326219122542851e-13,8.364040108030046e-15
3.0460205078125,0.24,-0.04,9.81,0.0,0.0,0.0,-0.01,-0.01,-0.36,0.93,4.027974794735379e-15,-1.5326219122542851e-13,8.364040108030046e-15
3.046398162841797,0.24,-0.04,9.81,0.0,0.0,0.0,-0.01,-0.01,-0.36,0.93,4.027974794735379e-15,-1.5326219122542851e-13,8.364040108030046e-15
3.046851396560669,0.24,-0.04,9.81,0.0,0.0,0.0,-0.01,-0.01,-0.36,0.93,4.027974794735379e-15,-1.5326219122542851e-13,8.364040108030046e-15
3.123729944229126,0.24,-0.04,9.81,0.0,0.0,0.0,-0.01,-0.01,-0.36,0.93,4.027974794735379e-15,-1.5326219122542851e-13,8.364040108030046e-15
3.125450849533081,0.2,-0.12,9.89,0.0,0.0,0.0,-0.01,-0.01,-0.36,0.93,4.027974794735379e-15,-1.5326219122542851e-13,8.364040108030046e-15
3.1265597343444824,0.2,-0.12,9.89,0.0,0.0,0.0,-0.01,-0.01,-0.36,0.93,4.027974794735379e-15,-1.5326219122542851e-13,8.364040108030046e-15
3.1274147033691406,0.2,-0.12,9.89,0.0,0.0,0.0,-0.01,-0.01,-0.36,0.93,4.027974794735379e-15,-1.5326219122542851e-13,8.364040108030046e-15
3.1283795833587646,0.2,-0.12,9.89,0.0,0.0,0.0,-0.01,-0.01,-0.36,0.93,4.027974794735379e-15,-1.5326219122542851e-13,8.364040108030046e-15
3.129450559616089,0.2,-0.12,9.89,0.0,0.0,0.0,-0.01,-0.01,-0.36,0.93,4.027974794735379e-15,-1.5326219122542851e-13,8.364040108030046e-15
3.1303157806396484,0.2,-0.12,9.89,0.0,0.0,0.0,-0.01,-0.01,-0.36,0.93,4.027974794735379e-15,-1.5326219122542851e-13,8.364040108030046e-15
3.1310946941375732,0.16,-0.12,9.82,0.0,0.0,0.0,-0.01,-0.01,-0.36,0.93,4.027974794735379e-15,-1.5326219122542851e-13,8.364040108030046e-15
3.1318094730377197,0.16,-0.12,9.82,0.0,0.0,0.0,-0.01,-0.01,-0.36,0.93,4.027974794735379e-15,-1.5326219122542851e-13,8.364040108030046e-15
3.1325411796569824,0.16,-0.12,9.82,0.0,0.0,0.0,-0.01,-0.01,-0.36,0.93,4.027974794735379e-15,-1.5326219122542851e-13,8.364040108030046e-15
3.1332924365997314,0.16,-0.12,9.82,0.0,0.0,0.0,-0.01,-0.01,-0.36,0.93,4.027974794735379e-15,-1.5326219122542851e-13,8.364040108030046e-15
3.1340692043304443,0.16,-0.12,9.82,0.0,0.0,0.0,-0.01,-0.01,-0.36,0.93,4.027974794735379e-15,-1.5326219122542851e-13,8.364040108030046e-15
3.134946584701538,0.16,-0.12,9.82,0.0,0.0,0.0,-0.01,-0.01,-0.36,0.93,4.027974794735379e-15,-1.5326219122542851e-13,8.364040108030046e-15
3.1358442306518555,0.16,-0.12,9.82,0.0,0.0,0.0,-0.01,-0.01,-0.36,0.93,4.027974794735379e-15,-1.5326219122542851e-13,8.364040108030046e-15
3.136946678161621,0.16,-0.12,9.82,0.0,0.0,0.0,-0.01,-0.01,-0.36,0.93,4.027974794735379e-15,-1.5326219122542851e-13,8.364040108030046e-15
3.1381778717041016,0.16,-0.04,9.74,0.0,0.0,0.0,-0.01,-0.01,-0.36,0.93,4.027974794735379e-15,-1.5326219122542851e-13,8.364040108030046e-15
3.1392765045166016,0.16,-0.04,9.74,0.0,0.0,0.0,-0.01,-0.01,-0.36,0.93,4.027974794735379e-15,-1.5326219122542851e-13,8.364040108030046e-15
3.1401100158691406,0.16,-0.04,9.74,0.0,0.0,0.0,-0.01,-0.01,-0.36,0.93,4.027974794735379e-15,-1.5326219122542851e-13,8.364040108030046e-15
3.140878200531006,0.16,-0.04,9.74,0.0,0.0,0.0,-0.01,-0.01,-0.36,0.93,4.027974794735379e-15,-1.5326219122542851e-13,8.364040108030046e-15
3.1423709392547607,0.16,-0.04,9.74,0.0,0.0,0.0,-0.01,-0.01,-0.36,0.93,4.027974794735379e-15,-1.5326219122542851e-13,8.364040108030046e-15
3.143670082092285,0.16,-0.04,9.74,0.0,0.0,0.0,-0.01,-0.01,-0.36,0.93,4.027974794735379e-15,-1.5326219122542851e-13,8.364040108030046e-15
3.144808053970337,0.2,-0.04,9.77,0.0,0.0,0.0,-0.01,-0.01,-0.36,0.93,4.027974794735379e-15,-1.5326219122542851e-13,8.364040108030046e-15
3.246685743331909,0.2,-0.04,9.77,0.0,0.0,0.0,-0.01,-0.01,-0.36,0.93,4.027974794735379e-15,-1.5326219122542851e-13,8.364040108030046e-15
3.247488498687744,0.2,-0.04,9.77,0.0,0.0,0.0,-0.01,-0.01,-0.36,0.93,4.027974794735379e-15,-1.5326219122542851e-13,8.364040108030046e-15
3.2484312057495117,0.2,-0.04,9.77,0.0,0.0,0.0,-0.01,-0.01,-0.36,0.93,4.027974794735379e-15,-1.5326219122542851e-13,8.364040108030046e-15
3.249213457107544,0.2,-0.04,9.77,0.0,0.0,0.0,-0.01,-0.01,-0.36,0.93,4.027974794735379e-15,-1.5326219122542851e-13,8.364040108030046e-15
3.2500174045562744,0.2,-0.04,9.77,0.0,0.0,0.0,-0.01,-0.01,-0.36,0.93,4.027974794735379e-15,-1.5326219122542851e-13,8.364040108030046e-15
3.2507402896881104,0.2,-0.04,9.77,0.0,0.0,0.0,-0.01,-0.01,-0.36,0.93,4.027974794735379e-15,-1.5326219122542851e-13,8.364040108030046e-15
3.2514841556549072,0.2,-0.04,9.77,0.0,0.0,0.0,-0.01,-0.01,-0.36,0.93,4.027974794735379e-15,-1.5326219122542851e-13,8.364040108030046e-15
3.252196788787842,0.16,-0.04,9.78,0.0,0.0,0.0,-0.01,-0.01,-0.36,0.93,4.027974794735379e-15,-1.5326219122542851e-13,8.364040108030046e-15
3.252849817276001,0.16,-0.04,9.78,0.0,0.0,0.0,-0.01,-0.01,-0.36,0.93,4.027974794735379e-15,-1.5326219122542851e-13,8.364040108030046e-15
3.253462553024292,0.16,-0.04,9.78,0.0,0.0,0.0,-0.01,-0.01,-0.36,0.93,4.027974794735379e-15,-1.5326219122542851e-13,8.364040108030046e-15
3.2541346549987793,0.16,-0.04,9.78,0.0,0.0,0.0,-0.01,-0.01,-0.36,0.93,4.027974794735379e-15,-1.5326219122542851e-13,8.364040108030046e-15
3.2549285888671875,0.16,-0.04,9.78,0.0,0.0,0.0,-0.01,-0.01,-0.36,0.93,4.027974794735379e-15,-1.5326219122542851e-13,8.364040108030046e-15
3.255655288696289,0.16,-0.04,9.78,0.0,0.0,0.0,-0.01,-0.01,-0.36,0.93,4.027974794735379e-15,-1.5326219122542851e-13,8.364040108030046e-15
3.256463050842285,0.2,-0.0,9.7,0.0,0.0,0.0,-0.01,-0.01,-0.36,0.93,4.027974794735379e-15,-1.5326219122542851e-13,8.364040108030046e-15
3.257260322570801,0.2,-0.0,9.7,0.0,0.0,0.0,-0.01,-0.01,-0.36,0.93,4.027974794735379e-15,-1.5326219122542851e-13,8.364040108030046e-15
3.2579398155212402,0.2,-0.0,9.7,0.0,0.0,0.0,-0.01,-0.01,-0.36,0.93,4.027974794735379e-15,-1.5326219122542851e-13,8.364040108030046e-15
3.258685350418091,0.2,-0.0,9.7,0.0,0.0,0.0,-0.01,-0.01,-0.36,0.93,4.027974794735379e-15,-1.5326219122542851e-13,8.364040108030046e-15
3.259373903274536,0.2,-0.0,9.7,0.0,0.0,0.0,-0.01,-0.01,-0.36,0.93,4.027974794735379e-15,-1.5326219122542851e-13,8.364040108030046e-15
3.260075330734253,0.2,-0.0,9.7,0.0,0.0,0.0,-0.01,-0.01,-0.36,0.93,4.027974794735379e-15,-1.5326219122542851e-13,8.364040108030046e-15
3.2614097595214844,0.2,-0.0,9.7,0.0,0.0,0.0,-0.01,-0.01,-0.36,0.93,4.027974794735379e-15,-1.5326219122542851e-13,8.364040108030046e-15
3.2623791694641113,0.2,-0.0,9.7,0.0,0.0,0.0,-0.01,-0.01,-0.36,0.93,4.027974794735379e-15,-1.5326219122542851e-13,8.364040108030046e-15
3.263521432876587,0.2,-0.0,9.7,0.0,0.0,0.0,-0.01,-0.01,-0.36,0.93,4.027974794735379e-15,-1.5326219122542851e-13,8.364040108030046e-15
3.264749050140381,0.2,-0.0,9.7,0.0,0.0,0.0,-0.01,-0.01,-0.36,0.93,4.027974794735379e-15,-1.5326219122542851e-13,8.364040108030046e-15
3.3494021892547607,0.2,-0.0,9.7,0.0,0.0,0.0,-0.01,-0.01,-0.36,0.93,4.027974794735379e-15,-1.5326219122542851e-13,8.364040108030046e-15
3.350201368331909,0.2,-0.0,9.7,0.0,0.0,0.0,-0.01,-0.01,-0.36,0.93,4.027974794735379e-15,-1.5326219122542851e-13,8.364040108030046e-15
3.3508639335632324,0.2,-0.08,9.82,0.0,0.0,0.0,-0.01,-0.01,-0.36,0.93,4.027974794735379e-15,-1.5326219122542851e-13,8.364040108030046e-15
3.351564884185791,0.2,-0.08,9.82,0.0,0.0,0.0,-0.01,-0.01,-0.36,0.93,4.027974794735379e-15,-1.5326219122542851e-13,8.364040108030046e-15
3.3521533012390137,0.2,-0.08,9.82,0.0,0.0,0.0,-0.01,-0.01,-0.36,0.93,4.027974794735379e-15,-1.5326219122542851e-13,8.364040108030046e-15
3.352720260620117,0.2,-0.08,9.82,0.0,0.0,0.0,-0.01,-0.01,-0.36,0.93,4.027974794735379e-15,-1.5326219122542851e-13,8.364040108030046e-15
3.3532700538635254,0.2,-0.08,9.82,0.0,0.0,0.0,-0.01,-0.01,-0.36,0.93,4.027974794735379e-15,-1.5326219122542851e-13,8.364040108030046e-15
3.353724479675293,0.2,-0.08,9.82,0.0,0.0,0.0,-0.01,-0.01,-0.36,0.93,4.027974794735379e-15,-1.5326219122542851e-13,8.364040108030046e-15
3.354163408279419,0.2,-0.08,9.82,0.0,0.0,0.0,-0.01,-0.01,-0.36,0.93,4.027974794735379e-15,-1.5326219122542851e-13,8.364040108030046e-15
3.3552961349487305,0.2,-0.08,9.82,0.0,0.0,0.0,-0.01,-0.01,-0.36,0.93,4.027974794735379e-15,-1.5326219122542851e-13,8.364040108030046e-15
3.355973958969116,0.2,-0.08,9.82,0.0,0.0,0.0,-0.01,-0.01,-0.36,0.93,4.027974794735379e-15,-1.5326219122542851e-13,8.364040108030046e-15
3.356445074081421,0.2,-0.08,9.82,0.0,0.0,0.0,-0.01,-0.01,-0.36,0.93,4.027974794735379e-15,-1.5326219122542851e-13,8.364040108030046e-15
3.3569223880767822,0.24,-0.08,9.89,0.0,0.0,0.0,-0.01,-0.01,-0.36,0.93,4.027974794735379e-15,-1.5326219122542851e-13,8.364040108030046e-15
3.357407808303833,0.24,-0.08,9.89,0.0,0.0,0.0,-0.01,-0.01,-0.36,0.93,4.027974794735379e-15,-1.5326219122542851e-13,8.364040108030046e-15
3.3578805923461914,0.24,-0.08,9.89,0.0,0.0,0.0,-0.01,-0.01,-0.36,0.93,4.027974794735379e-15,-1.5326219122542851e-13,8.364040108030046e-15
3.358358860015869,0.24,-0.08,9.89,0.0,0.0,0.0,-0.01,-0.01,-0.36,0.93,4.027974794735379e-15,-1.5326219122542851e-13,8.364040108030046e-15
3.358867645263672,0.24,-0.08,9.89,0.0,0.0,0.0,-0.01,-0.01,-0.36,0.93,4.027974794735379e-15,-1.5326219122542851e-13,8.364040108030046e-15
3.359356164932251,0.24,-0.08,9.89,0.0,0.0,0.0,-0.01,-0.01,-0.36,0.93,4.027974794735379e-15,-1.5326219122542851e-13,8.364040108030046e-15
3.359872579574585,0.24,-0.08,9.89,0.0,0.0,0.0,-0.01,-0.01,-0.36,0.93,4.027974794735379e-15,-1.5326219122542851e-13,8.364040108030046e-15
3.360321521759033,0.24,-0.08,9.89,0.0,0.0,0.0,-0.01,-0.01,-0.36,0.93,4.027974794735379e-15,-1.5326219122542851e-13,8.364040108030046e-15
3.360758066177368,0.24,-0.08,9.74,0.0,0.0,0.0,-0.01,-0.01,-0.36,0.93,4.027974794735379e-15,-1.5326219122542851e-13,8.364040108030046e-15
3.361208200454712,0.24,-0.08,9.74,0.0,0.0,0.0,-0.01,-0.01,-0.36,0.93,4.027974794735379e-15,-1.5326219122542851e-13,8.364040108030046e-15
3.4322831630706787,0.24,-0.08,9.74,0.0,0.0,0.0,-0.01,-0.01,-0.36,0.93,4.027974794735379e-15,-1.5326219122542851e-13,8.364040108030046e-15
3.4330625534057617,0.24,-0.08,9.74,0.0,0.0,0.0,-0.01,-0.01,-0.36,0.93,4.027974794735379e-15,-1.5326219122542851e-13,8.364040108030046e-15
3.4335758686065674,0.24,-0.08,9.74,0.0,0.0,0.0,-0.01,-0.01,-0.36,0.93,4.027974794735379e-15,-1.5326219122542851e-13,8.364040108030046e-15
3.434051513671875,0.24,-0.08,9.74,0.0,0.0,0.0,-0.01,-0.01,-0.36,0.93,4.027974794735379e-15,-1.5326219122542851e-13,8.364040108030046e-15
3.4345505237579346,0.16,-0.04,9.81,0.0,0.0,0.0,-0.01,-0.01,-0.36,0.93,4.027974794735379e-15,-1.5326219122542851e-13,8.364040108030046e-15
3.4353229999542236,0.16,-0.04,9.81,0.0,0.0,0.0,-0.01,-0.01,-0.36,0.93,4.027974794735379e-15,-1.5326219122542851e-13,8.364040108030046e-15
3.4362354278564453,0.16,-0.04,9.81,0.0,0.0,0.0,-0.01,-0.01,-0.36,0.93,4.027974794735379e-15,-1.5326219122542851e-13,8.364040108030046e-15
3.436892509460449,0.16,-0.04,9.81,0.0,0.0,0.0,-0.01,-0.01,-0.36,0.93,4.027974794735379e-15,-1.5326219122542851e-13,8.364040108030046e-15
3.4374630451202393,0.16,-0.04,9.81,0.0,0.0,0.0,-0.01,-0.01,-0.36,0.93,4.027974794735379e-15,-1.5326219122542851e-13,8.364040108030046e-15
3.4379868507385254,0.16,-0.04,9.81,0.0,0.0,0.0,-0.01,-0.01,-0.36,0.93,4.027974794735379e-15,-1.5326219122542851e-13,8.364040108030046e-15
3.4384398460388184,0.16,-0.04,9.81,0.0,0.0,0.0,-0.01,-0.01,-0.36,0.93,4.027974794735379e-15,-1.5326219122542851e-13,8.364040108030046e-15
3.438889980316162,0.16,-0.04,9.81,0.0,0.0,0.0,-0.01,-0.01,-0.36,0.93,4.027974794735379e-15,-1.5326219122542851e-13,8.364040108030046e-15
3.4393603801727295,0.2,-0.08,9.77,0.0,0.0,0.0,-0.01,-0.01,-0.36,0.93,4.027974794735379e-15,-1.5326219122542851e-13,8.364040108030046e-15
3.4397964477539062,0.2,-0.08,9.77,0.0,0.0,0.0,-0.01,-0.01,-0.36,0.93,4.027974794735379e-15,-1.5326219122542851e-13,8.364040108030046e-15
3.4403140544891357,0.2,-0.08,9.77,0.0,0.0,0.0,-0.01,-0.01,-0.36,0.93,4.027974794735379e-15,-1.5326219122542851e-13,8.364040108030046e-15
3.440800666809082,0.2,-0.08,9.77,0.0,0.0,0.0,-0.01,-0.01,-0.36,0.93,4.027974794735379e-15,-1.5326219122542851e-13,8.364040108030046e-15
3.4412403106689453,0.2,-0.08,9.77,0.0,0.0,0.0,-0.01,-0.01,-0.36,0.93,4.027974794735379e-15,-1.5326219122542851e-13,8.364040108030046e-15
3.4416873455047607,0.2,-0.08,9.77,0.0,0.0,0.0,-0.01,-0.01,-0.36,0.93,4.027974794735379e-15,-1.5326219122542851e-13,8.364040108030046e-15
3.511536121368408,0.16,-0.12,9.89,0.0,0.0,0.0,-0.01,-0.01,-0.36,0.93,4.027974794735379e-15,-1.5326219122542851e-13,8.364040108030046e-15
3.5122270584106445,0.16,-0.12,9.89,0.0,0.0,0.0,-0.01,-0.01,-0.36,0.93,4.027974794735379e-15,-1.5326219122542851e-13,8.364040108030046e-15
3.5127458572387695,0.16,-0.12,9.89,0.0,0.0,0.0,-0.01,-0.01,-0.36,0.93,4.027974794735379e-15,-1.5326219122542851e-13,8.364040108030046e-15
3.5132648944854736,0.16,-0.12,9.89,0.0,0.0,0.0,-0.01,-0.01,-0.36,0.93,4.027974794735379e-15,-1.5326219122542851e-13,8.364040108030046e-15
3.513758897781372,0.16,-0.12,9.89,0.0,0.0,0.0,-0.01,-0.01,-0.36,0.93,4.027974794735379e-15,-1.5326219122542851e-13,8.364040108030046e-15
3.5142359733581543,0.16,-0.12,9.89,0.0,0.0,0.0,-0.01,-0.01,-0.36,0.93,4.027974794735379e-15,-1.5326219122542851e-13,8.364040108030046e-15
3.514843463897705,0.16,-0.12,9.89,0.0,0.0,0.0,-0.01,-0.01,-0.36,0.93,4.027974794735379e-15,-1.5326219122542851e-13,8.364040108030046e-15
3.5155484676361084,0.16,-0.12,9.89,0.0,0.0,0.0,-0.01,-0.01,-0.36,0.93,4.027974794735379e-15,-1.5326219122542851e-13,8.364040108030046e-15
3.5162441730499268,0.16,-0.04,9.85,0.0,0.0,0.0,-0.01,-0.01,-0.36,0.93,4.027974794735379e-15,-1.5326219122542851e-13,8.364040108030046e-15
3.5170021057128906,0.16,-0.04,9.85,0.0,0.0,0.0,-0.01,-0.01,-0.36,0.93,4.027974794735379e-15,-1.5326219122542851e-13,8.364040108030046e-15
3.5178048610687256,0.16,-0.04,9.85,0.0,0.0,0.0,-0.01,-0.01,-0.36,0.93,4.027974794735379e-15,-1.5326219122542851e-13,8.364040108030046e-15
3.5183560848236084,0.16,-0.04,9.85,0.0,0.0,0.0,-0.01,-0.01,-0.36,0.93,4.027974794735379e-15,-1.5326219122542851e-13,8.364040108030046e-15
3.518850326538086,0.16,-0.04,9.85,0.0,0.0,0.0,-0.01,-0.01,-0.36,0.93,4.027974794735379e-15,-1.5326219122542851e-13,8.364040108030046e-15
3.5193910598754883,0.16,-0.04,9.85,0.0,0.0,0.0,-0.01,-0.01,-0.36,0.93,4.027974794735379e-15,-1.5326219122542851e-13,8.364040108030046e-15
3.519860029220581,0.16,-0.04,9.85,0.0,0.0,0.0,-0.01,-0.01,-0.36,0.93,4.027974794735379e-15,-1.5326219122542851e-13,8.364040108030046e-15
3.520299196243286,0.16,-0.04,9.85,0.0,0.0,0.0,-0.01,-0.01,-0.36,0.93,4.027974794735379e-15,-1.5326219122542851e-13,8.364040108030046e-15
3.5207440853118896,0.16,-0.04,9.85,0.0,0.0,0.0,-0.01,-0.01,-0.36,0.93,4.027974794735379e-15,-1.5326219122542851e-13,8.364040108030046e-15
3.5906505584716797,0.16,-0.04,9.85,0.0,0.0,0.0,-0.01,-0.01,-0.36,0.93,4.027974794735379e-15,-1.5326219122542851e-13,8.364040108030046e-15
3.5913565158843994,0.16,-0.04,9.85,0.0,0.0,0.0,-0.01,-0.01,-0.36,0.93,4.027974794735379e-15,-1.5326219122542851e-13,8.364040108030046e-15
3.5919926166534424,0.16,-0.04,9.85,0.0,0.0,0.0,-0.01,-0.01,-0.36,0.93,4.027974794735379e-15,-1.5326219122542851e-13,8.364040108030046e-15
3.592458963394165,0.16,-0.04,9.74,0.0,0.0,0.0,-0.01,-0.01,-0.36,0.93,4.027974794735379e-15,-1.5326219122542851e-13,8.364040108030046e-15
3.5929176807403564,0.16,-0.04,9.74,0.0,0.0,0.0,-0.01,-0.01,-0.36,0.93,4.027974794735379e-15,-1.5326219122542851e-13,8.364040108030046e-15
3.5935134887695312,0.16,-0.04,9.74,0.0,0.0,0.0,-0.01,-0.01,-0.36,0.93,4.027974794735379e-15,-1.5326219122542851e-13,8.364040108030046e-15
3.594012975692749,0.16,-0.04,9.74,0.0,0.0,0.0,-0.01,-0.01,-0.36,0.93,4.027974794735379e-15,-1.5326219122542851e-13,8.364040108030046e-15
3.5945420265197754,0.16,-0.04,9.74,0.0,0.0,0.0,-0.01,-0.01,-0.36,0.93,4.027974794735379e-15,-1.5326219122542851e-13,8.364040108030046e-15
3.595366954803467,0.16,-0.04,9.74,0.0,0.0,0.0,-0.01,-0.01,-0.36,0.93,4.027974794735379e-15,-1.5326219122542851e-13,8.364040108030046e-15
3.5963237285614014,0.16,-0.04,9.74,0.0,0.0,0.0,-0.01,-0.01,-0.36,0.93,4.027974794735379e-15,-1.5326219122542851e-13,8.364040108030046e-15
3.5968782901763916,0.16,-0.04,9.74,0.0,0.0,0.0,-0.01,-0.01,-0.36,0.93,4.027974794735379e-15,-1.5326219122542851e-13,8.364040108030046e-15
3.597402334213257,0.24,-0.08,9.78,0.0,0.0,0.0,-0.01,-0.01,-0.36,0.93,4.027974794735379e-15,-1.5326219122542851e-13,8.364040108030046e-15
3.5979394912719727,0.24,-0.08,9.78,0.0,0.0,0.0,-0.01,-0.01,-0.36,0.93,4.027974794735379e-15,-1.5326219122542851e-13,8.364040108030046e-15
3.598463535308838,0.24,-0.08,9.78,0.0,0.0,0.0,-0.01,-0.01,-0.36,0.93,4.027974794735379e-15,-1.5326219122542851e-13,8.364040108030046e-15
3.598918914794922,0.24,-0.08,9.78,0.0,0.0,0.0,-0.01,-0.01,-0.36,0.93,4.027974794735379e-15,-1.5326219122542851e-13,8.364040108030046e-15
3.5993332862854004,0.24,-0.08,9.78,0.0,0.0,0.0,-0.01,-0.01,-0.36,0.93,4.027974794735379e-15,-1.5326219122542851e-13,8.364040108030046e-15
3.6708621978759766,0.24,-0.08,9.78,0.0,0.0,0.0,-0.01,-0.01,-0.36,0.93,4.027974794735379e-15,-1.5326219122542851e-13,8.364040108030046e-15
3.6716840267181396,0.24,-0.08,9.78,0.0,0.0,0.0,-0.01,-0.01,-0.36,0.93,4.027974794735379e-15,-1.5326219122542851e-13,8.364040108030046e-15
3.6722681522369385,0.24,-0.08,9.78,0.0,0.0,0.0,-0.01,-0.01,-0.36,0.93,4.027974794735379e-15,-1.5326219122542851e-13,8.364040108030046e-15
3.6727774143218994,0.2,-0.08,9.86,0.0,0.0,0.0,-0.01,-0.01,-0.36,0.93,4.027974794735379e-15,-1.5326219122542851e-13,8.364040108030046e-15
3.6733195781707764,0.2,-0.08,9.86,0.0,0.0,0.0,-0.01,-0.01,-0.36,0.93,4.027974794735379e-15,-1.5326219122542851e-13,8.364040108030046e-15
3.6738226413726807,0.2,-0.08,9.86,0.0,0.0,0.0,-0.01,-0.01,-0.36,0.93,4.027974794735379e-15,-1.5326219122542851e-13,8.364040108030046e-15
3.6743457317352295,0.2,-0.08,9.86,0.0,0.0,0.0,-0.01,-0.01,-0.36,0.93,4.027974794735379e-15,-1.5326219122542851e-13,8.364040108030046e-15
3.6751275062561035,0.2,-0.08,9.86,0.0,0.0,0.0,-0.01,-0.01,-0.36,0.93,4.027974794735379e-15,-1.5326219122542851e-13,8.364040108030046e-15
3.6759567260742188,0.2,-0.08,9.86,0.0,0.0,0.0,-0.01,-0.01,-0.36,0.93,4.027974794735379e-15,-1.5326219122542851e-13,8.364040108030046e-15
3.6765341758728027,0.2,-0.08,9.86,0.0,0.0,0.0,-0.01,-0.01,-0.36,0.93,4.027974794735379e-15,-1.5326219122542851e-13,8.364040108030046e-15
3.677109718322754,0.2,-0.08,9.86,0.0,0.0,0.0,-0.01,-0.01,-0.36,0.93,4.027974794735379e-15,-1.5326219122542851e-13,8.364040108030046e-15
3.6779441833496094,0.2,-0.08,9.86,0.0,0.0,0.0,-0.01,-0.01,-0.36,0.93,4.027974794735379e-15,-1.5326219122542851e-13,8.364040108030046e-15
3.678844928741455,0.2,-0.08,9.86,0.0,0.0,0.0,-0.01,-0.01,-0.36,0.93,4.027974794735379e-15,-1.5326219122542851e-13,8.364040108030046e-15
3.6795613765716553,0.16,-0.0,9.74,0.0,0.0,0.0,-0.01,-0.01,-0.36,0.93,4.027974794735379e-15,-1.5326219122542851e-13,8.364040108030046e-15
3.680148124694824,0.16,-0.0,9.74,0.0,0.0,0.0,-0.01,-0.01,-0.36,0.93,4.027974794735379e-15,-1.5326219122542851e-13,8.364040108030046e-15
3.680675506591797,0.16,-0.0,9.74,0.0,0.0,0.0,-0.01,-0.01,-0.36,0.93,4.027974794735379e-15,-1.5326219122542851e-13,8.364040108030046e-15
3.75494122505188,0.16,-0.0,9.74,0.0,0.0,0.0,-0.01,-0.01,-0.36,0.93,4.027974794735379e-15,-1.5326219122542851e-13,8.364040108030046e-15
3.7557365894317627,0.16,-0.0,9.74,0.0,0.0,0.0,-0.01,-0.01,-0.36,0.93,4.027974794735379e-15,-1.5326219122542851e-13,8.364040108030046e-15
3.7563159465789795,0.16,-0.0,9.74,0.0,0.0,0.0,-0.01,-0.01,-0.36,0.93,4.027974794735379e-15,-1.5326219122542851e-13,8.364040108030046e-15
3.756762981414795,0.28,-0.12,9.89,0.0,0.0,0.0,-0.01,-0.01,-0.36,0.93,4.027974794735379e-15,-1.5326219122542851e-13,8.364040108030046e-15
3.7572743892669678,0.28,-0.12,9.89,0.0,0.0,0.0,-0.01,-0.01,-0.36,0.93,4.027974794735379e-15,-1.5326219122542851e-13,8.364040108030046e-15
3.7577314376831055,0.28,-0.12,9.89,0.0,0.0,0.0,-0.01,-0.01,-0.36,0.93,4.027974794735379e-15,-1.5326219122542851e-13,8.364040108030046e-15
3.7581660747528076,0.28,-0.12,9.89,0.0,0.0,0.0,-0.01,-0.01,-0.36,0.93,4.027974794735379e-15,-1.5326219122542851e-13,8.364040108030046e-15
3.7586143016815186,0.28,-0.12,9.89,0.0,0.0,0.0,-0.01,-0.01,-0.36,0.93,4.027974794735379e-15,-1.5326219122542851e-13,8.364040108030046e-15
3.7590370178222656,0.28,-0.12,9.89,0.0,0.0,0.0,-0.01,-0.01,-0.36,0.93,4.027974794735379e-15,-1.5326219122542851e-13,8.364040108030046e-15
3.759474754333496,0.28,-0.12,9.89,0.0,0.0,0.0,-0.01,-0.01,-0.36,0.93,4.027974794735379e-15,-1.5326219122542851e-13,8.364040108030046e-15
3.7599544525146484,0.28,-0.12,9.89,0.0,0.0,0.0,-0.01,-0.01,-0.36,0.93,4.027974794735379e-15,-1.5326219122542851e-13,8.364040108030046e-15
3.760382890701294,0.16,-0.08,9.78,0.0,0.0,0.0,-0.01,-0.01,-0.36,0.93,4.027974794735379e-15,-1.5326219122542851e-13,8.364040108030046e-15
3.760842800140381,0.16,-0.08,9.78,0.0,0.0,0.0,-0.01,-0.01,-0.36,0.93,4.027974794735379e-15,-1.5326219122542851e-13,8.364040108030046e-15
3.7612550258636475,0.16,-0.08,9.78,0.0,0.0,0.0,-0.01,-0.01,-0.36,0.93,4.027974794735379e-15,-1.5326219122542851e-13,8.364040108030046e-15
3.761683464050293,0.16,-0.08,9.78,0.0,0.0,0.0,-0.01,-0.01,-0.36,0.93,4.027974794735379e-15,-1.5326219122542851e-13,8.364040108030046e-15
3.762138843536377,0.16,-0.08,9.78,0.0,0.0,0.0,-0.01,-0.01,-0.36,0.93,4.027974794735379e-15,-1.5326219122542851e-13,8.364040108030046e-15
3.76255464553833,0.16,-0.08,9.78,0.0,0.0,0.0,-0.01,-0.01,-0.36,0.93,4.027974794735379e-15,-1.5326219122542851e-13,8.364040108030046e-15
3.763000249862671,0.16,-0.08,9.78,0.0,0.0,0.0,-0.01,-0.01,-0.36,0.93,4.027974794735379e-15,-1.5326219122542851e-13,8.364040108030046e-15
3.7634503841400146,0.16,-0.08,9.78,0.0,0.0,0.0,-0.01,-0.01,-0.36,0.93,4.027974794735379e-15,-1.5326219122542851e-13,8.364040108030046e-15
3.763861894607544,0.16,-0.08,9.78,0.0,0.0,0.0,-0.01,-0.01,-0.36,0.93,4.027974794735379e-15,-1.5326219122542851e-13,8.364040108030046e-15
3.837296724319458,0.16,-0.08,9.78,0.0,0.0,0.0,-0.01,-0.01,-0.36,0.93,4.027974794735379e-15,-1.5326219122542851e-13,8.364040108030046e-15
3.8380842208862305,0.16,-0.12,9.77,0.0,0.0,0.0,-0.01,-0.01,-0.36,0.93,4.027974794735379e-15,-1.5326219122542851e-13,8.364040108030046e-15
3.838650941848755,0.16,-0.12,9.77,0.0,0.0,0.0,-0.01,-0.01,-0.36,0.93,4.027974794735379e-15,-1.5326219122542851e-13,8.364040108030046e-15
3.839146137237549,0.16,-0.12,9.77,0.0,0.0,0.0,-0.01,-0.01,-0.36,0.93,4.027974794735379e-15,-1.5326219122542851e-13,8.364040108030046e-15
3.839648962020874,0.16,-0.12,9.77,0.0,0.0,0.0,-0.01,-0.01,-0.36,0.93,4.027974794735379e-15,-1.5326219122542851e-13,8.364040108030046e-15
3.840089797973633,0.16,-0.12,9.77,0.0,0.0,0.0,-0.01,-0.01,-0.36,0.93,4.027974794735379e-15,-1.5326219122542851e-13,8.364040108030046e-15
3.8407487869262695,0.16,-0.12,9.77,0.0,0.0,0.0,-0.01,-0.01,-0.36,0.93,4.027974794735379e-15,-1.5326219122542851e-13,8.364040108030046e-15
3.841315984725952,0.16,-0.12,9.77,0.0,0.0,0.0,-0.01,-0.01,-0.36,0.93,4.027974794735379e-15,-1.5326219122542851e-13,8.364040108030046e-15
3.8419172763824463,0.16,-0.12,9.77,0.0,0.0,0.0,-0.01,-0.01,-0.36,0.93,4.027974794735379e-15,-1.5326219122542851e-13,8.364040108030046e-15
3.8423357009887695,0.2,-0.12,9.78,0.0,0.0,0.0,-0.01,-0.01,-0.36,0.93,4.027974794735379e-15,-1.5326219122542851e-13,8.364040108030046e-15
3.8427600860595703,0.2,-0.12,9.78,0.0,0.0,0.0,-0.01,-0.01,-0.36,0.93,4.027974794735379e-15,-1.5326219122542851e-13,8.364040108030046e-15
3.8432424068450928,0.2,-0.12,9.78,0.0,0.0,0.0,-0.01,-0.01,-0.36,0.93,4.027974794735379e-15,-1.5326219122542851e-13,8.364040108030046e-15
3.843677282333374,0.2,-0.12,9.78,0.0,0.0,0.0,-0.01,-0.01,-0.36,0.93,4.027974794735379e-15,-1.5326219122542851e-13,8.364040108030046e-15
3.844156503677368,0.2,-0.12,9.78,0.0,0.0,0.0,-0.01,-0.01,-0.36,0.93,4.027974794735379e-15,-1.5326219122542851e-13,8.364040108030046e-15
3.844578504562378,0.2,-0.12,9.78,0.0,0.0,0.0,-0.01,-0.01,-0.36,0.93,4.027974794735379e-15,-1.5326219122542851e-13,8.364040108030046e-15
3.845017433166504,0.2,-0.12,9.78,0.0,0.0,0.0,-0.01,-0.01,-0.36,0.93,4.027974794735379e-15,-1.5326219122542851e-13,8.364040108030046e-15
3.8455448150634766,0.2,-0.12,9.78,0.0,0.0,0.0,-0.01,-0.01,-0.36,0.93,4.027974794735379e-15,-1.5326219122542851e-13,8.364040108030046e-15
3.84604549407959,0.2,-0.12,9.78,0.0,0.0,0.0,-0.01,-0.01,-0.36,0.93,4.027974794735379e-15,-1.5326219122542851e-13,8.364040108030046e-15
3.846599578857422,0.2,-0.12,9.78,0.0,0.0,0.0,-0.01,-0.01,-0.36,0.93,4.027974794735379e-15,-1.5326219122542851e-13,8.364040108030046e-15
3.915036678314209,0.2,-0.04,9.66,0.0,0.0,0.0,-0.01,-0.01,-0.36,0.93,4.027974794735379e-15,-1.5326219122542851e-13,8.364040108030046e-15
3.916065216064453,0.2,-0.04,9.66,0.0,0.0,0.0,-0.01,-0.01,-0.36,0.93,4.027974794735379e-15,-1.5326219122542851e-13,8.364040108030046e-15
3.9167580604553223,0.2,-0.04,9.66,0.0,0.0,0.0,-0.01,-0.01,-0.36,0.93,4.027974794735379e-15,-1.5326219122542851e-13,8.364040108030046e-15
3.917226552963257,0.2,-0.04,9.66,0.0,0.0,0.0,-0.01,-0.01,-0.36,0.93,4.027974794735379e-15,-1.5326219122542851e-13,8.364040108030046e-15
3.917642593383789,0.2,-0.04,9.66,0.0,0.0,0.0,-0.01,-0.01,-0.36,0.93,4.027974794735379e-15,-1.5326219122542851e-13,8.364040108030046e-15
3.9180796146392822,0.2,-0.04,9.66,0.0,0.0,0.0,-0.01,-0.01,-0.36,0.93,4.027974794735379e-15,-1.5326219122542851e-13,8.364040108030046e-15
3.9184722900390625,0.2,-0.04,9.66,0.0,0.0,0.0,-0.01,-0.01,-0.36,0.93,4.027974794735379e-15,-1.5326219122542851e-13,8.364040108030046e-15
3.91884708404541,0.2,-0.04,9.66,0.0,0.0,0.0,-0.01,-0.01,-0.36,0.93,4.027974794735379e-15,-1.5326219122542851e-13,8.364040108030046e-15
3.9192965030670166,0.28,-0.04,9.89,0.0,0.0,0.0,-0.01,-0.01,-0.36,0.93,4.027974794735379e-15,-1.5326219122542851e-13,8.364040108030046e-15
3.919684410095215,0.28,-0.04,9.89,0.0,0.0,0.0,-0.01,-0.01,-0.36,0.93,4.027974794735379e-15,-1.5326219122542851e-13,8.364040108030046e-15
3.920124053955078,0.28,-0.04,9.89,0.0,0.0,0.0,-0.01,-0.01,-0.36,0.93,4.027974794735379e-15,-1.5326219122542851e-13,8.364040108030046e-15
3.920581817626953,0.28,-0.04,9.89,0.0,0.0,0.0,-0.01,-0.01,-0.36,0.93,4.027974794735379e-15,-1.5326219122542851e-13,8.364040108030046e-15
3.9209787845611572,0.28,-0.04,9.89,0.0,0.0,0.0,-0.01,-0.01,-0.36,0.93,4.027974794735379e-15,-1.5326219122542851e-13,8.364040108030046e-15
3.921412706375122,0.28,-0.04,9.89,0.0,0.0,0.0,-0.01,-0.01,-0.36,0.93,4.027974794735379e-15,-1.5326219122542851e-13,8.364040108030046e-15
3.921832799911499,0.2,-0.08,9.86,0.0,0.0,0.0,-0.01,-0.01,-0.36,0.93,4.027974794735379e-15,-1.5326219122542851e-13,8.364040108030046e-15
3.9911069869995117,0.2,-0.08,9.86,0.0,0.0,0.0,-0.01,-0.01,-0.36,0.93,4.027974794735379e-15,-1.5326219122542851e-13,8.364040108030046e-15
3.9918124675750732,0.2,-0.08,9.86,0.0,0.0,0.0,-0.01,-0.01,-0.36,0.93,4.027974794735379e-15,-1.5326219122542851e-13,8.364040108030046e-15
3.9925267696380615,0.2,-0.08,9.86,0.0,0.0,0.0,-0.01,-0.01,-0.36,0.93,4.027974794735379e-15,-1.5326219122542851e-13,8.364040108030046e-15
3.9931888580322266,0.2,-0.08,9.86,0.0,0.0,0.0,-0.01,-0.01,-0.36,0.93,4.027974794735379e-15,-1.5326219122542851e-13,8.364040108030046e-15
3.99381685256958,0.2,-0.08,9.86,0.0,0.0,0.0,-0.01,-0.01,-0.36,0.93,4.027974794735379e-15,-1.5326219122542851e-13,8.364040108030046e-15
3.994311571121216,0.2,-0.08,9.86,0.0,0.0,0.0,-0.01,-0.01,-0.36,0.93,4.027974794735379e-15,-1.5326219122542851e-13,8.364040108030046e-15
3.994856834411621,0.2,-0.08,9.86,0.0,0.0,0.0,-0.01,-0.01,-0.36,0.93,4.027974794735379e-15,-1.5326219122542851e-13,8.364040108030046e-15
3.995541572570801,0.2,-0.08,9.86,0.0,0.0,0.0,-0.01,-0.01,-0.36,0.93,4.027974794735379e-15,-1.5326219122542851e-13,8.364040108030046e-15
3.9960789680480957,0.2,-0.08,9.86,0.0,0.0,0.0,-0.01,-0.01,-0.36,0.93,4.027974794735379e-15,-1.5326219122542851e-13,8.364040108030046e-15
3.9967217445373535,0.24,-0.08,9.85,0.0,0.0,0.0,-0.01,-0.01,-0.36,0.93,4.027974794735379e-15,-1.5326219122542851e-13,8.364040108030046e-15
3.997394561767578,0.24,-0.08,9.85,0.0,0.0,0.0,-0.01,-0.01,-0.36,0.93,4.027974794735379e-15,-1.5326219122542851e-13,8.364040108030046e-15
3.997873067855835,0.24,-0.08,9.85,0.0,0.0,0.0,-0.01,-0.01,-0.36,0.93,4.027974794735379e-15,-1.5326219122542851e-13,8.364040108030046e-15
3.998377799987793,0.24,-0.08,9.85,0.0,0.0,0.0,-0.01,-0.01,-0.36,0.93,4.027974794735379e-15,-1.5326219122542851e-13,8.364040108030046e-15
3.998806953430176,0.24,-0.08,9.85,0.0,0.0,0.0,-0.01,-0.01,-0.36,0.93,4.027974794735379e-15,-1.5326219122542851e-13,8.364040108030046e-15
3.999272584915161,0.24,-0.08,9.85,0.0,0.0,0.0,-0.01,-0.01,-0.36,0.93,4.027974794735379e-15,-1.5326219122542851e-13,8.364040108030046e-15
3.9996981620788574,0.24,-0.08,9.85,0.0,0.0,0.0,-0.01,-0.01,-0.36,0.93,4.027974794735379e-15,-1.5326219122542851e-13,8.364040108030046e-15
4.089860677719116,0.24,-0.08,9.85,0.0,0.0,0.0,-0.01,-0.01,-0.36,0.93,4.027974794735379e-15,-1.5326219122542851e-13,8.364040108030046e-15
4.091047286987305,0.24,-0.08,9.85,0.0,0.0,0.0,-0.01,-0.01,-0.36,0.93,4.027974794735379e-15,-1.5326219122542851e-13,8.364040108030046e-15
4.09186577796936,0.24,-0.08,9.85,0.0,0.0,0.0,-0.01,-0.01,-0.36,0.93,4.027974794735379e-15,-1.5326219122542851e-13,8.364040108030046e-15
4.092569589614868,0.24,-0.04,9.74,0.0,0.0,0.0,-0.01,-0.01,-0.36,0.93,4.027974794735379e-15,-1.5326219122542851e-13,8.364040108030046e-15
4.093172311782837,0.24,-0.04,9.74,0.0,0.0,0.0,-0.01,-0.01,-0.36,0.93,4.027974794735379e-15,-1.5326219122542851e-13,8.364040108030046e-15
4.093942642211914,0.24,-0.04,9.74,0.0,0.0,0.0,-0.01,-0.01,-0.36,0.93,4.027974794735379e-15,-1.5326219122542851e-13,8.364040108030046e-15
4.094980478286743,0.24,-0.04,9.74,0.0,0.0,0.0,-0.01,-0.01,-0.36,0.93,4.027974794735379e-15,-1.5326219122542851e-13,8.364040108030046e-15
4.095693588256836,0.24,-0.04,9.74,0.0,0.0,0.0,-0.01,-0.01,-0.36,0.93,4.027974794735379e-15,-1.5326219122542851e-13,8.364040108030046e-15
4.096766710281372,0.24,-0.04,9.74,0.0,0.0,0.0,-0.01,-0.01,-0.36,0.93,4.027974794735379e-15,-1.5326219122542851e-13,8.364040108030046e-15
4.097890853881836,0.16,-0.12,9.82,0.0,0.0,0.0,-0.01,-0.01,-0.36,0.93,4.027974794735379e-15,-1.5326219122542851e-13,8.364040108030046e-15
4.098738431930542,0.16,-0.12,9.82,0.0,0.0,0.0,-0.01,-0.01,-0.36,0.93,4.027974794735379e-15,-1.5326219122542851e-13,8.364040108030046e-15
4.099512577056885,0.16,-0.12,9.82,0.0,0.0,0.0,-0.01,-0.01,-0.36,0.93,4.027974794735379e-15,-1.5326219122542851e-13,8.364040108030046e-15
4.100173473358154,0.16,-0.12,9.82,0.0,0.0,0.0,-0.01,-0.01,-0.36,0.93,4.027974794735379e-15,-1.5326219122542851e-13,8.364040108030046e-15
4.100822687149048,0.16,-0.12,9.82,0.0,0.0,0.0,-0.01,-0.01,-0.36,0.93,4.027974794735379e-15,-1.5326219122542851e-13,8.364040108030046e-15
4.101480484008789,0.16,-0.12,9.82,0.0,0.0,0.0,-0.01,-0.01,-0.36,0.93,4.027974794735379e-15,-1.5326219122542851e-13,8.364040108030046e-15
4.10207462310791,0.16,-0.12,9.82,0.0,0.0,0.0,-0.01,-0.01,-0.36,0.93,4.027974794735379e-15,-1.5326219122542851e-13,8.364040108030046e-15
4.102590322494507,0.16,-0.12,9.82,0.0,0.0,0.0,-0.01,-0.01,-0.36,0.93,4.027974794735379e-15,-1.5326219122542851e-13,8.364040108030046e-15
4.103254318237305,0.16,-0.08,9.78,0.0,0.0,0.0,-0.01,-0.01,-0.36,0.93,4.027974794735379e-15,-1.5326219122542851e-13,8.364040108030046e-15
4.103806018829346,0.16,-0.08,9.78,0.0,0.0,0.0,-0.01,-0.01,-0.36,0.93,4.027974794735379e-15,-1.5326219122542851e-13,8.364040108030046e-15
4.104400396347046,0.16,-0.08,9.78,0.0,0.0,0.0,-0.01,-0.01,-0.36,0.93,4.027974794735379e-15,-1.5326219122542851e-13,8.364040108030046e-15
4.104968070983887,0.16,-0.08,9.78,0.0,0.0,0.0,-0.01,-0.01,-0.36,0.93,4.027974794735379e-15,-1.5326219122542851e-13,8.364040108030046e-15
4.105683088302612,0.16,-0.08,9.78,0.0,0.0,0.0,-0.01,-0.01,-0.36,0.93,4.027974794735379e-15,-1.5326219122542851e-13,8.364040108030046e-15
4.10642671585083,0.16,-0.08,9.78,0.0,0.0,0.0,-0.01,-0.01,-0.36,0.93,4.027974794735379e-15,-1.5326219122542851e-13,8.364040108030046e-15
4.107269287109375,0.16,-0.08,9.78,0.0,0.0,0.0,-0.01,-0.01,-0.36,0.93,4.027974794735379e-15,-1.5326219122542851e-13,8.364040108030046e-15
4.107936382293701,0.16,-0.08,9.78,0.0,0.0,0.0,-0.01,-0.01,-0.36,0.93,4.027974794735379e-15,-1.5326219122542851e-13,8.364040108030046e-15
4.193645477294922,0.16,-0.08,9.78,0.0,0.0,0.0,-0.01,-0.01,-0.36,0.93,4.027974794735379e-15,-1.5326219122542851e-13,8.364040108030046e-15
4.194347381591797,0.16,-0.08,9.78,0.0,0.0,0.0,-0.01,-0.01,-0.36,0.93,4.027974794735379e-15,-1.5326219122542851e-13,8.364040108030046e-15
4.194902181625366,0.16,-0.08,9.78,0.0,0.0,0.0,-0.01,-0.01,-0.36,0.93,4.027974794735379e-15,-1.5326219122542851e-13,8.364040108030046e-15
4.195410490036011,0.16,-0.08,9.78,0.0,0.0,0.0,-0.01,-0.01,-0.36,0.93,4.027974794735379e-15,-1.5326219122542851e-13,8.364040108030046e-15
4.195902585983276,0.24,-0.08,9.81,0.0,0.0,0.0,-0.01,-0.01,-0.36,0.93,4.027974794735379e-15,-1.5326219122542851e-13,8.364040108030046e-15
4.196453809738159,0.24,-0.08,9.81,0.0,0.0,0.0,-0.01,-0.01,-0.36,0.93,4.027974794735379e-15,-1.5326219122542851e-13,8.364040108030046e-15
4.197021007537842,0.24,-0.08,9.81,0.0,0.0,0.0,-0.01,-0.01,-0.36,0.93,4.027974794735379e-15,-1.5326219122542851e-13,8.364040108030046e-15
4.197468042373657,0.24,-0.08,9.81,0.0,0.0,0.0,-0.01,-0.01,-0.36,0.93,4.027974794735379e-15,-1.5326219122542851e-13,8.364040108030046e-15
4.1980109214782715,0.24,-0.08,9.81,0.0,0.0,0.0,-0.01,-0.01,-0.36,0.93,4.027974794735379e-15,-1.5326219122542851e-13,8.364040108030046e-15
4.198456525802612,0.24,-0.08,9.81,0.0,0.0,0.0,-0.01,-0.01,-0.36,0.93,4.027974794735379e-15,-1.5326219122542851e-13,8.364040108030046e-15
4.198913097381592,0.24,-0.08,9.81,0.0,0.0,0.0,-0.01,-0.01,-0.36,0.93,4.027974794735379e-15,-1.5326219122542851e-13,8.364040108030046e-15
4.199551582336426,0.24,-0.08,9.81,0.0,0.0,0.0,-0.01,-0.01,-0.36,0.93,4.027974794735379e-15,-1.5326219122542851e-13,8.364040108030046e-15
4.200181007385254,0.16,-0.04,9.78,0.0,0.0,0.0,-0.01,-0.01,-0.36,0.93,4.027974794735379e-15,-1.5326219122542851e-13,8.364040108030046e-15
4.200847148895264,0.16,-0.04,9.78,0.0,0.0,0.0,-0.01,-0.01,-0.36,0.93,4.027974794735379e-15,-1.5326219122542851e-13,8.364040108030046e-15
4.201471567153931,0.16,-0.04,9.78,0.0,0.0,0.0,-0.01,-0.01,-0.36,0.93,4.027974794735379e-15,-1.5326219122542851e-13,8.364040108030046e-15
4.202172517776489,0.16,-0.04,9.78,0.0,0.0,0.0,-0.01,-0.01,-0.36,0.93,4.027974794735379e-15,-1.5326219122542851e-13,8.364040108030046e-15
4.202914714813232,0.16,-0.04,9.78,0.0,0.0,0.0,-0.01,-0.01,-0.36,0.93,4.027974794735379e-15,-1.5326219122542851e-13,8.364040108030046e-15
4.203599452972412,0.16,-0.04,9.78,0.0,0.0,0.0,-0.01,-0.01,-0.36,0.93,4.027974794735379e-15,-1.5326219122542851e-13,8.364040108030046e-15
4.204254388809204,0.2,-0.12,9.78,0.0,0.0,0.0,-0.01,-0.01,-0.36,0.93,4.027974794735379e-15,-1.5326219122542851e-13,8.364040108030046e-15
4.204913854598999,0.2,-0.12,9.78,0.0,0.0,0.0,-0.01,-0.01,-0.36,0.93,4.027974794735379e-15,-1.5326219122542851e-13,8.364040108030046e-15
4.205535173416138,0.2,-0.12,9.78,0.0,0.0,0.0,-0.01,-0.01,-0.36,0.93,4.027974794735379e-15,-1.5326219122542851e-13,8.364040108030046e-15
4.206140041351318,0.2,-0.12,9.78,0.0,0.0,0.0,-0.01,-0.01,-0.36,0.93,4.027974794735379e-15,-1.5326219122542851e-13,8.364040108030046e-15
4.2836754322052,0.2,-0.12,9.78,0.0,0.0,0.0,-0.01,-0.01,-0.36,0.93,4.027974794735379e-15,-1.5326219122542851e-13,8.364040108030046e-15
4.284428119659424,0.2,-0.12,9.78,0.0,0.0,0.0,-0.01,-0.01,-0.36,0.93,4.027974794735379e-15,-1.5326219122542851e-13,8.364040108030046e-15
4.2849438190460205,0.2,-0.12,9.78,0.0,0.0,0.0,-0.01,-0.01,-0.36,0.93,4.027974794735379e-15,-1.5326219122542851e-13,8.364040108030046e-15
4.285465955734253,0.2,-0.12,9.78,0.0,0.0,0.0,-0.01,-0.01,-0.36,0.93,4.027974794735379e-15,-1.5326219122542851e-13,8.364040108030046e-15
4.285962343215942,0.28,-0.12,9.93,0.0,0.0,0.0,-0.01,-0.01,-0.36,0.93,4.027974794735379e-15,-1.5326219122542851e-13,8.364040108030046e-15
4.286410093307495,0.28,-0.12,9.93,0.0,0.0,0.0,-0.01,-0.01,-0.36,0.93,4.027974794735379e-15,-1.5326219122542851e-13,8.364040108030046e-15
4.286852598190308,0.28,-0.12,9.93,0.0,0.0,0.0,-0.01,-0.01,-0.36,0.93,4.027974794735379e-15,-1.5326219122542851e-13,8.364040108030046e-15
4.2872700691223145,0.28,-0.12,9.93,0.0,0.0,0.0,-0.01,-0.01,-0.36,0.93,4.027974794735379e-15,-1.5326219122542851e-13,8.364040108030046e-15
4.287677764892578,0.28,-0.12,9.93,0.0,0.0,0.0,-0.01,-0.01,-0.36,0.93,4.027974794735379e-15,-1.5326219122542851e-13,8.364040108030046e-15
4.288164138793945,0.28,-0.12,9.93,0.0,0.0,0.0,-0.01,-0.01,-0.36,0.93,4.027974794735379e-15,-1.5326219122542851e-13,8.364040108030046e-15
4.288578987121582,0.24,-0.12,9.82,0.0,0.0,0.0,-0.01,-0.01,-0.36,0.93,4.027974794735379e-15,-1.5326219122542851e-13,8.364040108030046e-15
4.289001226425171,0.24,-0.12,9.82,0.0,0.0,0.0,-0.01,-0.01,-0.36,0.93,4.027974794735379e-15,-1.5326219122542851e-13,8.364040108030046e-15
4.289494276046753,0.24,-0.12,9.82,0.0,0.0,0.0,-0.01,-0.01,-0.36,0.93,4.027974794735379e-15,-1.5326219122542851e-13,8.364040108030046e-15
4.2899253368377686,0.24,-0.12,9.82,0.0,0.0,0.0,-0.01,-0.01,-0.36,0.93,4.027974794735379e-15,-1.5326219122542851e-13,8.364040108030046e-15
4.290330410003662,0.24,-0.12,9.82,0.0,0.0,0.0,-0.01,-0.01,-0.36,0.93,4.027974794735379e-15,-1.5326219122542851e-13,8.364040108030046e-15
4.290780067443848,0.24,-0.12,9.82,0.0,0.0,0.0,-0.01,-0.01,-0.36,0.93,4.027974794735379e-15,-1.5326219122542851e-13,8.364040108030046e-15
4.291197061538696,0.24,-0.12,9.82,0.0,0.0,0.0,-0.01,-0.01,-0.36,0.93,4.027974794735379e-15,-1.5326219122542851e-13,8.364040108030046e-15
4.360460042953491,0.24,-0.12,9.82,0.0,0.0,0.0,-0.01,-0.01,-0.36,0.93,4.027974794735379e-15,-1.5326219122542851e-13,8.364040108030046e-15
4.36119270324707,0.24,-0.12,9.82,0.0,0.0,0.0,-0.01,-0.01,-0.36,0.93,4.027974794735379e-15,-1.5326219122542851e-13,8.364040108030046e-15
4.3617918491363525,0.24,-0.12,9.82,0.0,0.0,0.0,-0.01,-0.01,-0.36,0.93,4.027974794735379e-15,-1.5326219122542851e-13,8.364040108030046e-15
4.362256288528442,0.24,-0.12,9.82,0.0,0.0,0.0,-0.01,-0.01,-0.36,0.93,4.027974794735379e-15,-1.5326219122542851e-13,8.364040108030046e-15
4.362694501876831,0.24,-0.12,9.82,0.0,0.0,0.0,-0.01,-0.01,-0.36,0.93,4.027974794735379e-15,-1.5326219122542851e-13,8.364040108030046e-15
4.363096475601196,0.28,-0.04,9.81,0.0,0.0,0.0,-0.01,-0.01,-0.36,0.93,4.027974794735379e-15,-1.5326219122542851e-13,8.364040108030046e-15
4.3635923862457275,0.28,-0.04,9.81,0.0,0.0,0.0,-0.01,-0.01,-0.36,0.93,4.027974794735379e-15,-1.5326219122542851e-13,8.364040108030046e-15
4.364131212234497,0.28,-0.04,9.81,0.0,0.0,0.0,-0.01,-0.01,-0.36,0.93,4.027974794735379e-15,-1.5326219122542851e-13,8.364040108030046e-15
4.3645710945129395,0.28,-0.04,9.81,0.0,0.0,0.0,-0.01,-0.01,-0.36,0.93,4.027974794735379e-15,-1.5326219122542851e-13,8.364040108030046e-15
4.365064859390259,0.28,-0.04,9.81,0.0,0.0,0.0,-0.01,-0.01,-0.36,0.93,4.027974794735379e-15,-1.5326219122542851e-13,8.364040108030046e-15
4.3656182289123535,0.28,-0.04,9.81,0.0,0.0,0.0,-0.01,-0.01,-0.36,0.93,4.027974794735379e-15,-1.5326219122542851e-13,8.364040108030046e-15
4.366135835647583,0.24,-0.12,9.77,0.0,0.0,0.0,-0.01,-0.01,-0.36,0.93,4.027974794735379e-15,-1.5326219122542851e-13,8.364040108030046e-15
4.36655068397522,0.24,-0.12,9.77,0.0,0.0,0.0,-0.01,-0.01,-0.36,0.93,4.027974794735379e-15,-1.5326219122542851e-13,8.364040108030046e-15
4.367082595825195,0.24,-0.12,9.77,0.0,0.0,0.0,-0.01,-0.01,-0.36,0.93,4.027974794735379e-15,-1.5326219122542851e-13,8.364040108030046e-15
4.367521047592163,0.24,-0.12,9.77,0.0,0.0,0.0,-0.01,-0.01,-0.36,0.93,4.027974794735379e-15,-1.5326219122542851e-13,8.364040108030046e-15
4.3680713176727295,0.24,-0.12,9.77,0.0,0.0,0.0,-0.01,-0.01,-0.36,0.93,4.027974794735379e-15,-1.5326219122542851e-13,8.364040108030046e-15
4.368517160415649,0.24,-0.12,9.77,0.0,0.0,0.0,-0.01,-0.01,-0.36,0.93,4.027974794735379e-15,-1.5326219122542851e-13,8.364040108030046e-15
4.4338929653167725,0.2,-0.04,9.77,0.0,0.0,0.0,-0.01,-0.01,-0.36,0.93,4.027974794735379e-15,-1.5326219122542851e-13,8.364040108030046e-15
4.4345128536224365,0.2,-0.04,9.77,0.0,0.0,0.0,-0.01,-0.01,-0.36,0.93,4.027974794735379e-15,-1.5326219122542851e-13,8.364040108030046e-15
4.43510890007019,0.2,-0.04,9.77,0.0,0.0,0.0,-0.01,-0.01,-0.36,0.93,4.027974794735379e-15,-1.5326219122542851e-13,8.364040108030046e-15
4.435754060745239,0.2,-0.04,9.77,0.0,0.0,0.0,-0.01,-0.01,-0.36,0.93,4.027974794735379e-15,-1.5326219122542851e-13,8.364040108030046e-15
4.436281204223633,0.2,-0.04,9.77,0.0,0.0,0.0,-0.01,-0.01,-0.36,0.93,4.027974794735379e-15,-1.5326219122542851e-13,8.364040108030046e-15
4.436707019805908,0.2,-0.04,9.77,0.0,0.0,0.0,-0.01,-0.01,-0.36,0.93,4.027974794735379e-15,-1.5326219122542851e-13,8.364040108030046e-15
4.4371583461761475,0.2,-0.04,9.77,0.0,0.0,0.0,-0.01,-0.01,-0.36,0.93,4.027974794735379e-15,-1.5326219122542851e-13,8.364040108030046e-15
4.437593460083008,0.2,-0.04,9.77,0.0,0.0,0.0,-0.01,-0.01,-0.36,0.93,4.027974794735379e-15,-1.5326219122542851e-13,8.364040108030046e-15
4.438010215759277,0.2,-0.04,9.77,0.0,0.0,0.0,-0.01,-0.01,-0.36,0.93,4.027974794735379e-15,-1.5326219122542851e-13,8.364040108030046e-15
4.438639163970947,0.2,-0.04,9.77,0.0,0.0,0.0,-0.01,-0.01,-0.36,0.93,4.027974794735379e-15,-1.5326219122542851e-13,8.364040108030046e-15
4.439143419265747,0.2,-0.04,9.73,0.0,0.0,0.0,-0.01,-0.01,-0.36,0.93,4.027974794735379e-15,-1.5326219122542851e-13,8.364040108030046e-15
4.439577102661133,0.2,-0.04,9.73,0.0,0.0,0.0,-0.01,-0.01,-0.36,0.93,4.027974794735379e-15,-1.5326219122542851e-13,8.364040108030046e-15
4.43998646736145,0.2,-0.04,9.73,0.0,0.0,0.0,-0.01,-0.01,-0.36,0.93,4.027974794735379e-15,-1.5326219122542851e-13,8.364040108030046e-15
4.440386056900024,0.2,-0.04,9.73,0.0,0.0,0.0,-0.01,-0.01,-0.36,0.93,4.027974794735379e-15,-1.5326219122542851e-13,8.364040108030046e-15
4.4408862590789795,0.2,-0.04,9.73,0.0,0.0,0.0,-0.01,-0.01,-0.36,0.93,4.027974794735379e-15,-1.5326219122542851e-13,8.364040108030046e-15
4.441304445266724,0.2,-0.04,9.73,0.0,0.0,0.0,-0.01,-0.01,-0.36,0.93,4.027974794735379e-15,-1.5326219122542851e-13,8.364040108030046e-15
4.508945465087891,0.2,-0.04,9.73,0.0,0.0,0.0,-0.01,-0.01,-0.36,0.93,4.027974794735379e-15,-1.5326219122542851e-13,8.364040108030046e-15
4.509807825088501,0.2,-0.04,9.73,0.0,0.0,0.0,-0.01,-0.01,-0.36,0.93,4.027974794735379e-15,-1.5326219122542851e-13,8.364040108030046e-15
4.510640859603882,0.2,-0.04,9.73,0.0,0.0,0.0,-0.01,-0.01,-0.36,0.93,4.027974794735379e-15,-1.5326219122542851e-13,8.364040108030046e-15
4.5113983154296875,0.2,-0.04,9.73,0.0,0.0,0.0,-0.01,-0.01,-0.36,0.93,4.027974794735379e-15,-1.5326219122542851e-13,8.364040108030046e-15
4.511858701705933,0.2,-0.04,9.86,0.0,0.0,0.0,-0.01,-0.01,-0.36,0.93,4.027974794735379e-15,-1.5326219122542851e-13,8.364040108030046e-15
4.512322425842285,0.2,-0.04,9.86,0.0,0.0,0.0,-0.01,-0.01,-0.36,0.93,4.027974794735379e-15,-1.5326219122542851e-13,8.364040108030046e-15
4.512775421142578,0.2,-0.04,9.86,0.0,0.0,0.0,-0.01,-0.01,-0.36,0.93,4.027974794735379e-15,-1.5326219122542851e-13,8.364040108030046e-15
4.513192892074585,0.2,-0.04,9.86,0.0,0.0,0.0,-0.01,-0.01,-0.36,0.93,4.027974794735379e-15,-1.5326219122542851e-13,8.364040108030046e-15
4.513599395751953,0.2,-0.04,9.86,0.0,0.0,0.0,-0.01,-0.01,-0.36,0.93,4.027974794735379e-15,-1.5326219122542851e-13,8.364040108030046e-15
4.514055490493774,0.2,-0.04,9.86,0.0,0.0,0.0,-0.01,-0.01,-0.36,0.93,4.027974794735379e-15,-1.5326219122542851e-13,8.364040108030046e-15
4.514488458633423,0.24,-0.08,9.78,0.0,0.0,0.0,-0.01,-0.01,-0.36,0.93,4.027974794735379e-15,-1.5326219122542851e-13,8.364040108030046e-15
4.514954566955566,0.24,-0.08,9.78,0.0,0.0,0.0,-0.01,-0.01,-0.36,0.93,4.027974794735379e-15,-1.5326219122542851e-13,8.364040108030046e-15
4.515437364578247,0.24,-0.08,9.78,0.0,0.0,0.0,-0.01,-0.01,-0.36,0.93,4.027974794735379e-15,-1.5326219122542851e-13,8.364040108030046e-15
4.515958786010742,0.24,-0.08,9.78,0.0,0.0,0.0,-0.01,-0.01,-0.36,0.93,4.027974794735379e-15,-1.5326219122542851e-13,8.364040108030046e-15
4.51646089553833,0.24,-0.08,9.78,0.0,0.0,0.0,-0.01,-0.01,-0.36,0.93,4.027974794735379e-15,-1.5326219122542851e-13,8.364040108030046e-15
4.516922950744629,0.24,-0.08,9.78,0.0,0.0,0.0,-0.01,-0.01,-0.36,0.93,4.027974794735379e-15,-1.5326219122542851e-13,8.364040108030046e-15
4.590029954910278,0.24,-0.08,9.78,0.0,0.0,0.0,-0.01,-0.01,-0.36,0.93,4.027974794735379e-15,-1.5326219122542851e-13,8.364040108030046e-15
4.5907886028289795,0.24,-0.08,9.78,0.0,0.0,0.0,-0.01,-0.01,-0.36,0.93,4.027974794735379e-15,-1.5326219122542851e-13,8.364040108030046e-15
4.591289758682251,0.24,-0.08,9.78,0.0,0.0,0.0,-0.01,-0.01,-0.36,0.93,4.027974794735379e-15,-1.5326219122542851e-13,8.364040108030046e-15
4.591707944869995,0.24,-0.08,9.78,0.0,0.0,0.0,-0.01,-0.01,-0.36,0.93,4.027974794735379e-15,-1.5326219122542851e-13,8.364040108030046e-15
4.5921525955200195,0.24,-0.08,9.78,0.0,0.0,0.0,-0.01,-0.01,-0.36,0.93,4.027974794735379e-15,-1.5326219122542851e-13,8.364040108030046e-15
4.592599630355835,0.24,-0.08,9.78,0.0,0.0,0.0,-0.01,-0.01,-0.36,0.93,4.027974794735379e-15,-1.5326219122542851e-13,8.364040108030046e-15
4.593109130859375,0.24,-0.08,9.78,0.0,0.0,0.0,-0.01,-0.01,-0.36,0.93,4.027974794735379e-15,-1.5326219122542851e-13,8.364040108030046e-15
4.593557596206665,0.24,-0.08,9.78,0.0,0.0,0.0,-0.01,-0.01,-0.36,0.93,4.027974794735379e-15,-1.5326219122542851e-13,8.364040108030046e-15
4.594011068344116,0.24,-0.08,9.78,0.0,0.0,0.0,-0.01,-0.01,-0.36,0.93,4.027974794735379e-15,-1.5326219122542851e-13,8.364040108030046e-15
4.594447135925293,0.24,-0.08,9.78,0.0,0.0,0.0,-0.01,-0.01,-0.36,0.93,4.027974794735379e-15,-1.5326219122542851e-13,8.364040108030046e-15
4.594865560531616,0.16,-0.04,9.78,0.0,0.0,0.0,-0.01,-0.01,-0.36,0.93,4.027974794735379e-15,-1.5326219122542851e-13,8.364040108030046e-15
4.595308065414429,0.16,-0.04,9.78,0.0,0.0,0.0,-0.01,-0.01,-0.36,0.93,4.027974794735379e-15,-1.5326219122542851e-13,8.364040108030046e-15
4.595738649368286,0.16,-0.04,9.78,0.0,0.0,0.0,-0.01,-0.01,-0.36,0.93,4.027974794735379e-15,-1.5326219122542851e-13,8.364040108030046e-15
4.59624981880188,0.16,-0.04,9.78,0.0,0.0,0.0,-0.01,-0.01,-0.36,0.93,4.027974794735379e-15,-1.5326219122542851e-13,8.364040108030046e-15
4.596781492233276,0.16,-0.04,9.78,0.0,0.0,0.0,-0.01,-0.01,-0.36,0.93,4.027974794735379e-15,-1.5326219122542851e-13,8.364040108030046e-15
4.597181558609009,0.16,-0.04,9.78,0.0,0.0,0.0,-0.01,-0.01,-0.36,0.93,4.027974794735379e-15,-1.5326219122542851e-13,8.364040108030046e-15
4.597570896148682,0.16,-0.04,9.78,0.0,0.0,0.0,-0.01,-0.01,-0.36,0.93,4.027974794735379e-15,-1.5326219122542851e-13,8.364040108030046e-15
4.6660706996917725,0.16,-0.04,9.78,0.0,0.0,0.0,-0.01,-0.01,-0.36,0.93,4.027974794735379e-15,-1.5326219122542851e-13,8.364040108030046e-15
4.66688084602356,0.24,-0.08,9.89,0.0,0.0,0.0,-0.01,-0.01,-0.36,0.93,4.027974794735379e-15,-1.5326219122542851e-13,8.364040108030046e-15
4.667386293411255,0.24,-0.08,9.89,0.0,0.0,0.0,-0.01,-0.01,-0.36,0.93,4.027974794735379e-15,-1.5326219122542851e-13,8.364040108030046e-15
4.667884826660156,0.24,-0.08,9.89,0.0,0.0,0.0,-0.01,-0.01,-0.36,0.93,4.027974794735379e-15,-1.5326219122542851e-13,8.364040108030046e-15
4.668547868728638,0.24,-0.08,9.89,0.0,0.0,0.0,-0.01,-0.01,-0.36,0.93,4.027974794735379e-15,-1.5326219122542851e-13,8.364040108030046e-15
4.6691625118255615,0.24,-0.08,9.89,0.0,0.0,0.0,-0.01,-0.01,-0.36,0.93,4.027974794735379e-15,-1.5326219122542851e-13,8.364040108030046e-15
4.669602870941162,0.24,-0.08,9.89,0.0,0.0,0.0,-0.01,-0.01,-0.36,0.93,4.027974794735379e-15,-1.5326219122542851e-13,8.364040108030046e-15
4.670042037963867,0.24,-0.08,9.89,0.0,0.0,0.0,-0.01,-0.01,-0.36,0.93,4.027974794735379e-15,-1.5326219122542851e-13,8.364040108030046e-15
4.670454025268555,0.24,-0.08,9.89,0.0,0.0,0.0,-0.01,-0.01,-0.36,0.93,4.027974794735379e-15,-1.5326219122542851e-13,8.364040108030046e-15
4.670837163925171,0.2,-0.16,9.81,0.0,0.0,0.0,-0.01,-0.01,-0.36,0.93,4.027974794735379e-15,-1.5326219122542851e-13,8.364040108030046e-15
4.671235799789429,0.2,-0.16,9.81,0.0,0.0,0.0,-0.01,-0.01,-0.36,0.93,4.027974794735379e-15,-1.5326219122542851e-13,8.364040108030046e-15
4.671612739562988,0.2,-0.16,9.81,0.0,0.0,0.0,-0.01,-0.01,-0.36,0.93,4.027974794735379e-15,-1.5326219122542851e-13,8.364040108030046e-15
4.67198634147644,0.2,-0.16,9.81,0.0,0.0,0.0,-0.01,-0.01,-0.36,0.93,4.027974794735379e-15,-1.5326219122542851e-13,8.364040108030046e-15
4.6724066734313965,0.2,-0.16,9.81,0.0,0.0,0.0,-0.01,-0.01,-0.36,0.93,4.027974794735379e-15,-1.5326219122542851e-13,8.364040108030046e-15
4.672800064086914,0.2,-0.16,9.81,0.0,0.0,0.0,-0.01,-0.01,-0.36,0.93,4.027974794735379e-15,-1.5326219122542851e-13,8.364040108030046e-15
4.737754821777344,0.2,-0.16,9.81,0.0,0.0,0.0,-0.01,-0.01,-0.36,0.93,4.027974794735379e-15,-1.5326219122542851e-13,8.364040108030046e-15
4.73847222328186,0.2,-0.16,9.81,0.0,0.0,0.0,-0.01,-0.01,-0.36,0.93,4.027974794735379e-15,-1.5326219122542851e-13,8.364040108030046e-15
4.738973140716553,0.2,-0.08,9.82,0.0,0.0,0.0,-0.01,-0.01,-0.36,0.93,4.027974794735379e-15,-1.5326219122542851e-13,8.364040108030046e-15
4.739400625228882,0.2,-0.08,9.82,0.0,0.0,0.0,-0.01,-0.01,-0.36,0.93,4.027974794735379e-15,-1.5326219122542851e-13,8.364040108030046e-15
4.739817380905151,0.2,-0.08,9.82,0.0,0.0,0.0,-0.01,-0.01,-0.36,0.93,4.027974794735379e-15,-1.5326219122542851e-13,8.364040108030046e-15
4.740336894989014,0.2,-0.08,9.82,0.0,0.0,0.0,-0.01,-0.01,-0.36,0.93,4.027974794735379e-15,-1.5326219122542851e-13,8.364040108030046e-15
4.741438627243042,0.2,-0.08,9.82,0.0,0.0,0.0,-0.01,-0.01,-0.36,0.93,4.027974794735379e-15,-1.5326219122542851e-13,8.364040108030046e-15
4.7422096729278564,0.2,-0.08,9.82,0.0,0.0,0.0,-0.01,-0.01,-0.36,0.93,4.027974794735379e-15,-1.5326219122542851e-13,8.364040108030046e-15
4.7427520751953125,0.28,-0.12,9.86,0.0,0.0,0.0,-0.01,-0.01,-0.36,0.93,4.027974794735379e-15,-1.5326219122542851e-13,8.364040108030046e-15
4.743307828903198,0.28,-0.12,9.86,0.0,0.0,0.0,-0.01,-0.01,-0.36,0.93,4.027974794735379e-15,-1.5326219122542851e-13,8.364040108030046e-15
4.743968725204468,0.28,-0.12,9.86,0.0,0.0,0.0,-0.01,-0.01,-0.36,0.93,4.027974794735379e-15,-1.5326219122542851e-13,8.364040108030046e-15
4.744502782821655,0.28,-0.12,9.86,0.0,0.0,0.0,-0.01,-0.01,-0.36,0.93,4.027974794735379e-15,-1.5326219122542851e-13,8.364040108030046e-15
4.745037078857422,0.28,-0.12,9.86,0.0,0.0,0.0,-0.01,-0.01,-0.36,0.93,4.027974794735379e-15,-1.5326219122542851e-13,8.364040108030046e-15
4.745475769042969,0.28,-0.12,9.86,0.0,0.0,0.0,-0.01,-0.01,-0.36,0.93,4.027974794735379e-15,-1.5326219122542851e-13,8.364040108030046e-15
4.745956659317017,0.28,-0.12,9.86,0.0,0.0,0.0,-0.01,-0.01,-0.36,0.93,4.027974794735379e-15,-1.5326219122542851e-13,8.364040108030046e-15
4.746514558792114,0.28,-0.12,9.86,0.0,0.0,0.0,-0.01,-0.01,-0.36,0.93,4.027974794735379e-15,-1.5326219122542851e-13,8.364040108030046e-15
4.746969699859619,0.28,-0.12,9.86,0.0,0.0,0.0,-0.01,-0.01,-0.36,0.93,4.027974794735379e-15,-1.5326219122542851e-13,8.364040108030046e-15
4.7474706172943115,0.28,-0.12,9.86,0.0,0.0,0.0,-0.01,-0.01,-0.36,0.93,4.027974794735379e-15,-1.5326219122542851e-13,8.364040108030046e-15
4.822012186050415,0.28,-0.08,9.85,0.0,0.0,0.0,-0.01,-0.01,-0.36,0.93,4.027974794735379e-15,-1.5326219122542851e-13,8.364040108030046e-15
4.822824239730835,0.28,-0.08,9.85,0.0,0.0,0.0,-0.01,-0.01,-0.36,0.93,4.027974794735379e-15,-1.5326219122542851e-13,8.364040108030046e-15
4.823327302932739,0.28,-0.08,9.85,0.0,0.0,0.0,-0.01,-0.01,-0.36,0.93,4.027974794735379e-15,-1.5326219122542851e-13,8.364040108030046e-15
4.823782920837402,0.28,-0.08,9.85,0.0,0.0,0.0,-0.01,-0.01,-0.36,0.93,4.027974794735379e-15,-1.5326219122542851e-13,8.364040108030046e-15
4.8242504596710205,0.28,-0.08,9.85,0.0,0.0,0.0,-0.01,-0.01,-0.36,0.93,4.027974794735379e-15,-1.5326219122542851e-13,8.364040108030046e-15
4.824657440185547,0.28,-0.08,9.85,0.0,0.0,0.0,-0.01,-0.01,-0.36,0.93,4.027974794735379e-15,-1.5326219122542851e-13,8.364040108030046e-15
4.825068473815918,0.24,-0.08,9.85,0.0,0.0,0.0,-0.01,-0.01,-0.36,0.93,4.027974794735379e-15,-1.5326219122542851e-13,8.364040108030046e-15
4.825526237487793,0.24,-0.08,9.85,0.0,0.0,0.0,-0.01,-0.01,-0.36,0.93,4.027974794735379e-15,-1.5326219122542851e-13,8.364040108030046e-15
4.825992584228516,0.24,-0.08,9.85,0.0,0.0,0.0,-0.01,-0.01,-0.36,0.93,4.027974794735379e-15,-1.5326219122542851e-13,8.364040108030046e-15
4.826416969299316,0.24,-0.08,9.85,0.0,0.0,0.0,-0.01,-0.01,-0.36,0.93,4.027974794735379e-15,-1.5326219122542851e-13,8.364040108030046e-15
4.826920509338379,0.24,-0.08,9.85,0.0,0.0,0.0,-0.01,-0.01,-0.36,0.93,4.027974794735379e-15,-1.5326219122542851e-13,8.364040108030046e-15
4.8273351192474365,0.24,-0.08,9.85,0.0,0.0,0.0,-0.01,-0.01,-0.36,0.93,4.027974794735379e-15,-1.5326219122542851e-13,8.364040108030046e-15
4.8277268409729,0.24,-0.08,9.85,0.0,0.0,0.0,-0.01,-0.01,-0.36,0.93,4.027974794735379e-15,-1.5326219122542851e-13,8.364040108030046e-15
4.828100919723511,0.24,-0.08,9.85,0.0,0.0,0.0,-0.01,-0.01,-0.36,0.93,4.027974794735379e-15,-1.5326219122542851e-13,8.364040108030046e-15
4.828523397445679,0.24,-0.08,9.85,0.0,0.0,0.0,-0.01,-0.01,-0.36,0.93,4.027974794735379e-15,-1.5326219122542851e-13,8.364040108030046e-15
4.828969240188599,0.24,-0.08,9.85,0.0,0.0,0.0,-0.01,-0.01,-0.36,0.93,4.027974794735379e-15,-1.5326219122542851e-13,8.364040108030046e-15
4.829406261444092,0.16,-0.04,9.81,0.0,0.0,0.0,-0.01,-0.01,-0.36,0.93,4.027974794735379e-15,-1.5326219122542851e-13,8.364040108030046e-15
4.829840183258057,0.16,-0.04,9.81,0.0,0.0,0.0,-0.01,-0.01,-0.36,0.93,4.027974794735379e-15,-1.5326219122542851e-13,8.364040108030046e-15
4.908912658691406,0.16,-0.04,9.81,0.0,0.0,0.0,-0.01,-0.01,-0.36,0.93,4.027974794735379e-15,-1.5326219122542851e-13,8.364040108030046e-15
4.909917831420898,0.16,-0.04,9.81,0.0,0.0,0.0,-0.01,-0.01,-0.36,0.93,4.027974794735379e-15,-1.5326219122542851e-13,8.364040108030046e-15
4.9108641147613525,0.16,-0.04,9.81,0.0,0.0,0.0,-0.01,-0.01,-0.36,0.93,4.027974794735379e-15,-1.5326219122542851e-13,8.364040108030046e-15
4.911823034286499,0.16,-0.04,9.81,0.0,0.0,0.0,-0.01,-0.01,-0.36,0.93,4.027974794735379e-15,-1.5326219122542851e-13,8.364040108030046e-15
4.912330627441406,0.16,-0.04,9.81,0.0,0.0,0.0,-0.01,-0.01,-0.36,0.93,4.027974794735379e-15,-1.5326219122542851e-13,8.364040108030046e-15
4.912953853607178,0.16,-0.04,9.81,0.0,0.0,0.0,-0.01,-0.01,-0.36,0.93,4.027974794735379e-15,-1.5326219122542851e-13,8.364040108030046e-15
4.913461446762085,0.16,-0.04,9.81,0.0,0.0,0.0,-0.01,-0.01,-0.36,0.93,4.027974794735379e-15,-1.5326219122542851e-13,8.364040108030046e-15
4.913894414901733,0.16,-0.04,9.81,0.0,0.0,0.0,-0.01,-0.01,-0.36,0.93,4.027974794735379e-15,-1.5326219122542851e-13,8.364040108030046e-15
4.914544582366943,0.16,-0.04,9.81,0.0,0.0,0.0,-0.01,-0.01,-0.36,0.93,4.027974794735379e-15,-1.5326219122542851e-13,8.364040108030046e-15
4.9150495529174805,0.16,-0.04,9.81,0.0,0.0,0.0,-0.01,-0.01,-0.36,0.93,4.027974794735379e-15,-1.5326219122542851e-13,8.364040108030046e-15
4.915620565414429,0.24,-0.04,9.78,0.0,0.0,0.0,-0.01,-0.01,-0.36,0.93,4.027974794735379e-15,-1.5326219122542851e-13,8.364040108030046e-15
4.916110992431641,0.24,-0.04,9.78,0.0,0.0,0.0,-0.01,-0.01,-0.36,0.93,4.027974794735379e-15,-1.5326219122542851e-13,8.364040108030046e-15
4.916790962219238,0.24,-0.04,9.78,0.0,0.0,0.0,-0.01,-0.01,-0.36,0.93,4.027974794735379e-15,-1.5326219122542851e-13,8.364040108030046e-15
4.917541265487671,0.24,-0.04,9.78,0.0,0.0,0.0,-0.01,-0.01,-0.36,0.93,4.027974794735379e-15,-1.5326219122542851e-13,8.364040108030046e-15
4.918301820755005,0.24,-0.04,9.78,0.0,0.0,0.0,-0.01,-0.01,-0.36,0.93,4.027974794735379e-15,-1.5326219122542851e-13,8.364040108030046e-15
4.919065713882446,0.24,-0.04,9.78,0.0,0.0,0.0,-0.01,-0.01,-0.36,0.93,4.027974794735379e-15,-1.5326219122542851e-13,8.364040108030046e-15
4.919795751571655,0.24,-0.04,9.78,0.0,0.0,0.0,-0.01,-0.01,-0.36,0.93,4.027974794735379e-15,-1.5326219122542851e-13,8.364040108030046e-15
4.920518398284912,0.24,-0.04,9.78,0.0,0.0,0.0,-0.01,-0.01,-0.36,0.93,4.027974794735379e-15,-1.5326219122542851e-13,8.364040108030046e-15
4.921324968338013,0.24,-0.08,9.7,0.0,0.0,0.0,-0.01,-0.01,-0.36,0.93,4.027974794735379e-15,-1.5326219122542851e-13,8.364040108030046e-15
4.922198057174683,0.24,-0.08,9.7,0.0,0.0,0.0,-0.01,-0.01,-0.36,0.93,4.027974794735379e-15,-1.5326219122542851e-13,8.364040108030046e-15
5.026544809341431,0.24,-0.08,9.7,0.0,0.0,0.0,-0.01,-0.01,-0.36,0.93,4.027974794735379e-15,-1.5326219122542851e-13,8.364040108030046e-15
5.027742862701416,0.24,-0.08,9.7,0.0,0.0,0.0,-0.01,-0.01,-0.36,0.93,4.027974794735379e-15,-1.5326219122542851e-13,8.364040108030046e-15
5.0284459590911865,0.24,-0.08,9.7,0.0,0.0,0.0,-0.01,-0.01,-0.36,0.93,4.027974794735379e-15,-1.5326219122542851e-13,8.364040108030046e-15
5.029024839401245,0.24,-0.08,9.7,0.0,0.0,0.0,-0.01,-0.01,-0.36,0.93,4.027974794735379e-15,-1.5326219122542851e-13,8.364040108030046e-15
5.02947211265564,0.24,-0.08,9.7,0.0,0.0,0.0,-0.01,-0.01,-0.36,0.93,4.027974794735379e-15,-1.5326219122542851e-13,8.364040108030046e-15
5.029892444610596,0.24,-0.08,9.7,0.0,0.0,0.0,-0.01,-0.01,-0.36,0.93,4.027974794735379e-15,-1.5326219122542851e-13,8.364040108030046e-15
5.030355215072632,0.24,-0.08,9.7,0.0,0.0,0.0,-0.01,-0.01,-0.36,0.93,4.027974794735379e-15,-1.5326219122542851e-13,8.364040108030046e-15
5.030773162841797,0.24,-0.08,9.7,0.0,0.0,0.0,-0.01,-0.01,-0.36,0.93,4.027974794735379e-15,-1.5326219122542851e-13,8.364040108030046e-15
5.031181335449219,0.24,-0.12,9.89,0.0,0.0,0.0,-0.01,-0.01,-0.36,0.93,4.027974794735379e-15,-1.5326219122542851e-13,8.364040108030046e-15
5.031765460968018,0.24,-0.12,9.89,0.0,0.0,0.0,-0.01,-0.01,-0.36,0.93,4.027974794735379e-15,-1.5326219122542851e-13,8.364040108030046e-15
5.032341241836548,0.24,-0.12,9.89,0.0,0.0,0.0,-0.01,-0.01,-0.36,0.93,4.027974794735379e-15,-1.5326219122542851e-13,8.364040108030046e-15
5.032769203186035,0.24,-0.12,9.89,0.0,0.0,0.0,-0.01,-0.01,-0.36,0.93,4.027974794735379e-15,-1.5326219122542851e-13,8.364040108030046e-15
5.033173561096191,0.24,-0.12,9.89,0.0,0.0,0.0,-0.01,-0.01,-0.36,0.93,4.027974794735379e-15,-1.5326219122542851e-13,8.364040108030046e-15
5.0336387157440186,0.24,-0.12,9.89,0.0,0.0,0.0,-0.01,-0.01,-0.36,0.93,4.027974794735379e-15,-1.5326219122542851e-13,8.364040108030046e-15
5.03407096862793,0.24,-0.12,9.89,0.0,0.0,0.0,-0.01,-0.01,-0.36,0.93,4.027974794735379e-15,-1.5326219122542851e-13,8.364040108030046e-15
5.034476041793823,0.24,-0.12,9.89,0.0,0.0,0.0,-0.01,-0.01,-0.36,0.93,4.027974794735379e-15,-1.5326219122542851e-13,8.364040108030046e-15
5.03487491607666,0.24,-0.12,9.89,0.0,0.0,0.0,-0.01,-0.01,-0.36,0.93,4.027974794735379e-15,-1.5326219122542851e-13,8.364040108030046e-15
5.035318613052368,0.24,-0.12,9.89,0.0,0.0,0.0,-0.01,-0.01,-0.36,0.93,4.027974794735379e-15,-1.5326219122542851e-13,8.364040108030046e-15
5.035822153091431,0.16,-0.0,9.81,0.0,0.0,0.0,-0.01,-0.01,-0.36,0.93,4.027974794735379e-15,-1.5326219122542851e-13,8.364040108030046e-15
5.036284446716309,0.16,-0.0,9.81,0.0,0.0,0.0,-0.01,-0.01,-0.36,0.93,4.027974794735379e-15,-1.5326219122542851e-13,8.364040108030046e-15
5.036759376525879,0.16,-0.0,9.81,0.0,0.0,0.0,-0.01,-0.01,-0.36,0.93,4.027974794735379e-15,-1.5326219122542851e-13,8.364040108030046e-15
5.037192106246948,0.16,-0.0,9.81,0.0,0.0,0.0,-0.01,-0.01,-0.36,0.93,4.027974794735379e-15,-1.5326219122542851e-13,8.364040108030046e-15
5.037599563598633,0.16,-0.0,9.81,0.0,0.0,0.0,-0.01,-0.01,-0.36,0.93,4.027974794735379e-15,-1.5326219122542851e-13,8.364040108030046e-15
5.109957456588745,0.16,-0.0,9.81,0.0,0.0,0.0,-0.01,-0.01,-0.36,0.93,4.027974794735379e-15,-1.5326219122542851e-13,8.364040108030046e-15
5.110742568969727,0.16,-0.0,9.81,0.0,0.0,0.0,-0.01,-0.01,-0.36,0.93,4.027974794735379e-15,-1.5326219122542851e-13,8.364040108030046e-15
5.111246347427368,0.16,-0.0,9.81,0.0,0.0,0.0,-0.01,-0.01,-0.36,0.93,4.027974794735379e-15,-1.5326219122542851e-13,8.364040108030046e-15
5.1116883754730225,0.16,-0.0,9.81,0.0,0.0,0.0,-0.01,-0.01,-0.36,0.93,4.027974794735379e-15,-1.5326219122542851e-13,8.364040108030046e-15
5.112169981002808,0.16,-0.0,9.81,0.0,0.0,0.0,-0.01,-0.01,-0.36,0.93,4.027974794735379e-15,-1.5326219122542851e-13,8.364040108030046e-15
5.112609386444092,0.16,-0.0,9.81,0.0,0.0,0.0,-0.01,-0.01,-0.36,0.93,4.027974794735379e-15,-1.5326219122542851e-13,8.364040108030046e-15
5.113116025924683,0.16,-0.0,9.81,0.0,0.0,0.0,-0.01,-0.01,-0.36,0.93,4.027974794735379e-15,-1.5326219122542851e-13,8.364040108030046e-15
5.1135947704315186,0.16,-0.0,9.81,0.0,0.0,0.0,-0.01,-0.01,-0.36,0.93,4.027974794735379e-15,-1.5326219122542851e-13,8.364040108030046e-15
5.114060401916504,0.16,-0.0,9.81,0.0,0.0,0.0,-0.01,-0.01,-0.36,0.93,4.027974794735379e-15,-1.5326219122542851e-13,8.364040108030046e-15
5.114522457122803,0.24,-0.08,9.85,0.0,0.0,0.0,-0.01,-0.01,-0.36,0.93,4.027974794735379e-15,-1.5326219122542851e-13,8.364040108030046e-15
5.114965915679932,0.24,-0.08,9.85,0.0,0.0,0.0,-0.01,-0.01,-0.36,0.93,4.027974794735379e-15,-1.5326219122542851e-13,8.364040108030046e-15
5.115466594696045,0.24,-0.08,9.85,0.0,0.0,0.0,-0.01,-0.01,-0.36,0.93,4.027974794735379e-15,-1.5326219122542851e-13,8.364040108030046e-15
5.1158974170684814,0.24,-0.08,9.85,0.0,0.0,0.0,-0.01,-0.01,-0.36,0.93,4.027974794735379e-15,-1.5326219122542851e-13,8.364040108030046e-15
5.116334438323975,0.24,-0.08,9.85,0.0,0.0,0.0,-0.01,-0.01,-0.36,0.93,4.027974794735379e-15,-1.5326219122542851e-13,8.364040108030046e-15
5.116748809814453,0.24,-0.08,9.85,0.0,0.0,0.0,-0.01,-0.01,-0.36,0.93,4.027974794735379e-15,-1.5326219122542851e-13,8.364040108030046e-15
5.11715030670166,0.24,-0.08,9.85,0.0,0.0,0.0,-0.01,-0.01,-0.36,0.93,4.027974794735379e-15,-1.5326219122542851e-13,8.364040108030046e-15
5.1175830364227295,0.24,-0.08,9.85,0.0,0.0,0.0,-0.01,-0.01,-0.36,0.93,4.027974794735379e-15,-1.5326219122542851e-13,8.364040108030046e-15
5.182468891143799,0.24,-0.08,9.85,0.0,0.0,0.0,-0.01,-0.01,-0.36,0.93,4.027974794735379e-15,-1.5326219122542851e-13,8.364040108030046e-15
5.183272123336792,0.24,-0.08,9.85,0.0,0.0,0.0,-0.01,-0.01,-0.36,0.93,4.027974794735379e-15,-1.5326219122542851e-13,8.364040108030046e-15
5.183820962905884,0.24,-0.08,9.85,0.0,0.0,0.0,-0.01,-0.01,-0.36,0.93,4.027974794735379e-15,-1.5326219122542851e-13,8.364040108030046e-15
5.184282302856445,0.24,-0.08,9.85,0.0,0.0,0.0,-0.01,-0.01,-0.36,0.93,4.027974794735379e-15,-1.5326219122542851e-13,8.364040108030046e-15
5.184768438339233,0.2,-0.08,9.82,0.0,0.0,0.0,-0.01,-0.01,-0.36,0.93,4.027974794735379e-15,-1.5326219122542851e-13,8.364040108030046e-15
5.1852240562438965,0.2,-0.08,9.82,0.0,0.0,0.0,-0.01,-0.01,-0.36,0.93,4.027974794735379e-15,-1.5326219122542851e-13,8.364040108030046e-15
5.185635089874268,0.2,-0.08,9.82,0.0,0.0,0.0,-0.01,-0.01,-0.36,0.93,4.027974794735379e-15,-1.5326219122542851e-13,8.364040108030046e-15
5.186074495315552,0.2,-0.08,9.82,0.0,0.0,0.0,-0.01,-0.01,-0.36,0.93,4.027974794735379e-15,-1.5326219122542851e-13,8.364040108030046e-15
5.186483383178711,0.2,-0.08,9.82,0.0,0.0,0.0,-0.01,-0.01,-0.36,0.93,4.027974794735379e-15,-1.5326219122542851e-13,8.364040108030046e-15
5.18703556060791,0.2,-0.08,9.82,0.0,0.0,0.0,-0.01,-0.01,-0.36,0.93,4.027974794735379e-15,-1.5326219122542851e-13,8.364040108030046e-15
5.187499046325684,0.2,-0.08,9.82,0.0,0.0,0.0,-0.01,-0.01,-0.36,0.93,4.027974794735379e-15,-1.5326219122542851e-13,8.364040108030046e-15
5.188137054443359,0.2,-0.08,9.82,0.0,0.0,0.0,-0.01,-0.01,-0.36,0.93,4.027974794735379e-15,-1.5326219122542851e-13,8.364040108030046e-15
5.188807487487793,0.24,-0.12,9.82,0.0,0.0,0.0,-0.01,-0.01,-0.36,0.93,4.027974794735379e-15,-1.5326219122542851e-13,8.364040108030046e-15
5.189456224441528,0.24,-0.12,9.82,0.0,0.0,0.0,-0.01,-0.01,-0.36,0.93,4.027974794735379e-15,-1.5326219122542851e-13,8.364040108030046e-15
5.190123081207275,0.24,-0.12,9.82,0.0,0.0,0.0,-0.01,-0.01,-0.36,0.93,4.027974794735379e-15,-1.5326219122542851e-13,8.364040108030046e-15
5.190716505050659,0.24,-0.12,9.82,0.0,0.0,0.0,-0.01,-0.01,-0.36,0.93,4.027974794735379e-15,-1.5326219122542851e-13,8.364040108030046e-15
5.259591579437256,0.24,-0.12,9.82,0.0,0.0,0.0,-0.01,-0.01,-0.36,0.93,4.027974794735379e-15,-1.5326219122542851e-13,8.364040108030046e-15
5.260404348373413,0.24,-0.12,9.82,0.0,0.0,0.0,-0.01,-0.01,-0.36,0.93,4.027974794735379e-15,-1.5326219122542851e-13,8.364040108030046e-15
5.260930299758911,0.24,-0.12,9.82,0.0,0.0,0.0,-0.01,-0.01,-0.36,0.93,4.027974794735379e-15,-1.5326219122542851e-13,8.364040108030046e-15
5.261396646499634,0.24,-0.12,9.82,0.0,0.0,0.0,-0.01,-0.01,-0.36,0.93,4.027974794735379e-15,-1.5326219122542851e-13,8.364040108030046e-15
5.261814832687378,0.24,-0.12,9.82,0.0,0.0,0.0,-0.01,-0.01,-0.36,0.93,4.027974794735379e-15,-1.5326219122542851e-13,8.364040108030046e-15
5.262315034866333,0.24,-0.12,9.82,0.0,0.0,0.0,-0.01,-0.01,-0.36,0.93,4.027974794735379e-15,-1.5326219122542851e-13,8.364040108030046e-15
5.262742519378662,0.24,-0.12,9.82,0.0,0.0,0.0,-0.01,-0.01,-0.36,0.93,4.027974794735379e-15,-1.5326219122542851e-13,8.364040108030046e-15
5.2631847858428955,0.24,-0.12,9.82,0.0,0.0,0.0,-0.01,-0.01,-0.36,0.93,4.027974794735379e-15,-1.5326219122542851e-13,8.364040108030046e-15
5.263607740402222,0.24,-0.12,9.82,0.0,0.0,0.0,-0.01,-0.01,-0.36,0.93,4.027974794735379e-15,-1.5326219122542851e-13,8.364040108030046e-15
5.264111757278442,0.24,-0.12,9.82,0.0,0.0,0.0,-0.01,-0.01,-0.36,0.93,4.027974794735379e-15,-1.5326219122542851e-13,8.364040108030046e-15
5.264542579650879,0.24,-0.12,9.82,0.0,0.0,0.0,-0.01,-0.01,-0.36,0.93,4.027974794735379e-15,-1.5326219122542851e-13,8.364040108030046e-15
5.264963388442993,0.24,-0.12,9.82,0.0,0.0,0.0,-0.01,-0.01,-0.36,0.93,4.027974794735379e-15,-1.5326219122542851e-13,8.364040108030046e-15
5.265359878540039,0.24,-0.08,9.89,0.0,0.0,0.0,-0.01,-0.01,-0.36,0.93,4.027974794735379e-15,-1.5326219122542851e-13,8.364040108030046e-15
5.265894412994385,0.24,-0.08,9.89,0.0,0.0,0.0,-0.01,-0.01,-0.36,0.93,4.027974794735379e-15,-1.5326219122542851e-13,8.364040108030046e-15
5.2664313316345215,0.24,-0.08,9.89,0.0,0.0,0.0,-0.01,-0.01,-0.36,0.93,4.027974794735379e-15,-1.5326219122542851e-13,8.364040108030046e-15
5.266906499862671,0.24,-0.08,9.89,0.0,0.0,0.0,-0.01,-0.01,-0.36,0.93,4.027974794735379e-15,-1.5326219122542851e-13,8.364040108030046e-15
5.267395734786987,0.24,-0.08,9.89,0.0,0.0,0.0,-0.01,-0.01,-0.36,0.93,4.027974794735379e-15,-1.5326219122542851e-13,8.364040108030046e-15
5.333259105682373,0.24,-0.08,9.89,0.0,0.0,0.0,-0.01,-0.01,-0.36,0.93,4.027974794735379e-15,-1.5326219122542851e-13,8.364040108030046e-15
5.33399224281311,0.24,-0.08,9.89,0.0,0.0,0.0,-0.01,-0.01,-0.36,0.93,4.027974794735379e-15,-1.5326219122542851e-13,8.364040108030046e-15
5.334482908248901,0.24,-0.08,9.89,0.0,0.0,0.0,-0.01,-0.01,-0.36,0.93,4.027974794735379e-15,-1.5326219122542851e-13,8.364040108030046e-15
5.33493447303772,0.2,-0.08,9.77,0.0,0.0,0.0,-0.01,-0.01,-0.36,0.93,4.027974794735379e-15,-1.5326219122542851e-13,8.364040108030046e-15
5.335384368896484,0.2,-0.08,9.77,0.0,0.0,0.0,-0.01,-0.01,-0.36,0.93,4.027974794735379e-15,-1.5326219122542851e-13,8.364040108030046e-15
5.335800647735596,0.2,-0.08,9.77,0.0,0.0,0.0,-0.01,-0.01,-0.36,0.93,4.027974794735379e-15,-1.5326219122542851e-13,8.364040108030046e-15
5.336205005645752,0.2,-0.08,9.77,0.0,0.0,0.0,-0.01,-0.01,-0.36,0.93,4.027974794735379e-15,-1.5326219122542851e-13,8.364040108030046e-15
5.336625099182129,0.2,-0.08,9.77,0.0,0.0,0.0,-0.01,-0.01,-0.36,0.93,4.027974794735379e-15,-1.5326219122542851e-13,8.364040108030046e-15
5.337047338485718,0.2,-0.08,9.77,0.0,0.0,0.0,-0.01,-0.01,-0.36,0.93,4.027974794735379e-15,-1.5326219122542851e-13,8.364040108030046e-15
5.337448835372925,0.2,-0.08,9.77,0.0,0.0,0.0,-0.01,-0.01,-0.36,0.93,4.027974794735379e-15,-1.5326219122542851e-13,8.364040108030046e-15
5.337840557098389,0.2,-0.08,9.77,0.0,0.0,0.0,-0.01,-0.01,-0.36,0.93,4.027974794735379e-15,-1.5326219122542851e-13,8.364040108030046e-15
5.338272571563721,0.24,-0.04,9.89,0.0,0.0,0.0,-0.01,-0.01,-0.36,0.93,4.027974794735379e-15,-1.5326219122542851e-13,8.364040108030046e-15
5.338696718215942,0.24,-0.04,9.89,0.0,0.0,0.0,-0.01,-0.01,-0.36,0.93,4.027974794735379e-15,-1.5326219122542851e-13,8.364040108030046e-15
5.339139699935913,0.24,-0.04,9.89,0.0,0.0,0.0,-0.01,-0.01,-0.36,0.93,4.027974794735379e-15,-1.5326219122542851e-13,8.364040108030046e-15
5.3395771980285645,0.24,-0.04,9.89,0.0,0.0,0.0,-0.01,-0.01,-0.36,0.93,4.027974794735379e-15,-1.5326219122542851e-13,8.364040108030046e-15
5.340001344680786,0.24,-0.04,9.89,0.0,0.0,0.0,-0.01,-0.01,-0.36,0.93,4.027974794735379e-15,-1.5326219122542851e-13,8.364040108030046e-15
5.340549945831299,0.24,-0.04,9.89,0.0,0.0,0.0,-0.01,-0.01,-0.36,0.93,4.027974794735379e-15,-1.5326219122542851e-13,8.364040108030046e-15
5.407542705535889,0.24,-0.04,9.89,0.0,0.0,0.0,-0.01,-0.01,-0.36,0.93,4.027974794735379e-15,-1.5326219122542851e-13,8.364040108030046e-15
5.408390283584595,0.24,-0.04,9.89,0.0,0.0,0.0,-0.01,-0.01,-0.36,0.93,4.027974794735379e-15,-1.5326219122542851e-13,8.364040108030046e-15
5.4092347621917725,0.24,-0.04,9.89,0.0,0.0,0.0,-0.01,-0.01,-0.36,0.93,4.027974794735379e-15,-1.5326219122542851e-13,8.364040108030046e-15
5.409765005111694,0.24,-0.04,9.89,0.0,0.0,0.0,-0.01,-0.01,-0.36,0.93,4.027974794735379e-15,-1.5326219122542851e-13,8.364040108030046e-15
5.4103758335113525,0.16,-0.04,9.7,0.0,0.0,0.0,-0.01,-0.01,-0.36,0.93,4.027974794735379e-15,-1.5326219122542851e-13,8.364040108030046e-15
5.411030530929565,0.16,-0.04,9.7,0.0,0.0,0.0,-0.01,-0.01,-0.36,0.93,4.027974794735379e-15,-1.5326219122542851e-13,8.364040108030046e-15
5.411527872085571,0.16,-0.04,9.7,0.0,0.0,0.0,-0.01,-0.01,-0.36,0.93,4.027974794735379e-15,-1.5326219122542851e-13,8.364040108030046e-15
5.412142753601074,0.16,-0.04,9.7,0.0,0.0,0.0,-0.01,-0.01,-0.36,0.93,4.027974794735379e-15,-1.5326219122542851e-13,8.364040108030046e-15
5.41285252571106,0.16,-0.04,9.7,0.0,0.0,0.0,-0.01,-0.01,-0.36,0.93,4.027974794735379e-15,-1.5326219122542851e-13,8.364040108030046e-15
5.413465976715088,0.16,-0.04,9.7,0.0,0.0,0.0,-0.01,-0.01,-0.36,0.93,4.027974794735379e-15,-1.5326219122542851e-13,8.364040108030046e-15
5.414107799530029,0.16,-0.04,9.7,0.0,0.0,0.0,-0.01,-0.01,-0.36,0.93,4.027974794735379e-15,-1.5326219122542851e-13,8.364040108030046e-15
5.414874792098999,0.16,-0.04,9.7,0.0,0.0,0.0,-0.01,-0.01,-0.36,0.93,4.027974794735379e-15,-1.5326219122542851e-13,8.364040108030046e-15
5.415557146072388,0.16,-0.04,9.7,0.0,0.0,0.0,-0.01,-0.01,-0.36,0.93,4.027974794735379e-15,-1.5326219122542851e-13,8.364040108030046e-15
5.479020595550537,0.16,-0.04,9.7,0.0,0.0,0.0,-0.01,-0.01,-0.36,0.93,4.027974794735379e-15,-1.5326219122542851e-13,8.364040108030046e-15
5.479801654815674,0.2,-0.08,9.86,0.0,0.0,0.0,-0.01,-0.01,-0.36,0.93,4.027974794735379e-15,-1.5326219122542851e-13,8.364040108030046e-15
5.480290412902832,0.2,-0.08,9.86,0.0,0.0,0.0,-0.01,-0.01,-0.36,0.93,4.027974794735379e-15,-1.5326219122542851e-13,8.364040108030046e-15
5.4806907176971436,0.2,-0.08,9.86,0.0,0.0,0.0,-0.01,-0.01,-0.36,0.93,4.027974794735379e-15,-1.5326219122542851e-13,8.364040108030046e-15
5.481074333190918,0.2,-0.08,9.86,0.0,0.0,0.0,-0.01,-0.01,-0.36,0.93,4.027974794735379e-15,-1.5326219122542851e-13,8.364040108030046e-15
5.481492519378662,0.2,-0.08,9.86,0.0,0.0,0.0,-0.01,-0.01,-0.36,0.93,4.027974794735379e-15,-1.5326219122542851e-13,8.364040108030046e-15
5.482005834579468,0.2,-0.08,9.86,0.0,0.0,0.0,-0.01,-0.01,-0.36,0.93,4.027974794735379e-15,-1.5326219122542851e-13,8.364040108030046e-15
5.482440948486328,0.2,-0.12,9.89,0.0,0.0,0.0,-0.01,-0.01,-0.36,0.93,4.027974794735379e-15,-1.5326219122542851e-13,8.364040108030046e-15
5.482832908630371,0.2,-0.12,9.89,0.0,0.0,0.0,-0.01,-0.01,-0.36,0.93,4.027974794735379e-15,-1.5326219122542851e-13,8.364040108030046e-15
5.483244895935059,0.2,-0.12,9.89,0.0,0.0,0.0,-0.01,-0.01,-0.36,0.93,4.027974794735379e-15,-1.5326219122542851e-13,8.364040108030046e-15
5.483628988265991,0.2,-0.12,9.89,0.0,0.0,0.0,-0.01,-0.01,-0.36,0.93,4.027974794735379e-15,-1.5326219122542851e-13,8.364040108030046e-15
5.484027147293091,0.2,-0.12,9.89,0.0,0.0,0.0,-0.01,-0.01,-0.36,0.93,4.027974794735379e-15,-1.5326219122542851e-13,8.364040108030046e-15
5.484487056732178,0.2,-0.12,9.89,0.0,0.0,0.0,-0.01,-0.01,-0.36,0.93,4.027974794735379e-15,-1.5326219122542851e-13,8.364040108030046e-15
5.484868288040161,0.2,-0.12,9.89,0.0,0.0,0.0,-0.01,-0.01,-0.36,0.93,4.027974794735379e-15,-1.5326219122542851e-13,8.364040108030046e-15
5.485243082046509,0.2,-0.12,9.89,0.0,0.0,0.0,-0.01,-0.01,-0.36,0.93,4.027974794735379e-15,-1.5326219122542851e-13,8.364040108030046e-15
5.485695123672485,0.2,-0.12,9.89,0.0,0.0,0.0,-0.01,-0.01,-0.36,0.93,4.027974794735379e-15,-1.5326219122542851e-13,8.364040108030046e-15
5.486085891723633,0.2,-0.12,9.89,0.0,0.0,0.0,-0.01,-0.01,-0.36,0.93,4.027974794735379e-15,-1.5326219122542851e-13,8.364040108030046e-15
5.486461400985718,0.2,-0.12,9.89,0.0,0.0,0.0,-0.01,-0.01,-0.36,0.93,4.027974794735379e-15,-1.5326219122542851e-13,8.364040108030046e-15
5.555124282836914,0.2,-0.12,9.89,0.0,0.0,0.0,-0.01,-0.01,-0.36,0.93,4.027974794735379e-15,-1.5326219122542851e-13,8.364040108030046e-15
5.5558762550354,0.2,-0.04,9.86,0.0,0.0,0.0,-0.01,-0.01,-0.36,0.93,4.027974794735379e-15,-1.5326219122542851e-13,8.364040108030046e-15
5.556354522705078,0.2,-0.04,9.86,0.0,0.0,0.0,-0.01,-0.01,-0.36,0.93,4.027974794735379e-15,-1.5326219122542851e-13,8.364040108030046e-15
5.556798219680786,0.2,-0.04,9.86,0.0,0.0,0.0,-0.01,-0.01,-0.36,0.93,4.027974794735379e-15,-1.5326219122542851e-13,8.364040108030046e-15
5.557211399078369,0.2,-0.04,9.86,0.0,0.0,0.0,-0.01,-0.01,-0.36,0.93,4.027974794735379e-15,-1.5326219122542851e-13,8.364040108030046e-15
5.5576512813568115,0.2,-0.04,9.86,0.0,0.0,0.0,-0.01,-0.01,-0.36,0.93,4.027974794735379e-15,-1.5326219122542851e-13,8.364040108030046e-15
5.558084487915039,0.2,-0.04,9.86,0.0,0.0,0.0,-0.01,-0.01,-0.36,0.93,4.027974794735379e-15,-1.5326219122542851e-13,8.364040108030046e-15
5.624747037887573,0.2,-0.04,9.86,0.0,0.0,0.0,-0.01,-0.01,-0.36,0.93,4.027974794735379e-15,-1.5326219122542851e-13,8.364040108030046e-15
5.625613212585449,0.2,-0.04,9.86,0.0,0.0,0.0,-0.01,-0.01,-0.36,0.93,4.027974794735379e-15,-1.5326219122542851e-13,8.364040108030046e-15
5.6263062953948975,0.2,-0.04,9.86,0.0,0.0,0.0,-0.01,-0.01,-0.36,0.93,4.027974794735379e-15,-1.5326219122542851e-13,8.364040108030046e-15
5.626828908920288,0.2,-0.04,9.86,0.0,0.0,0.0,-0.01,-0.01,-0.36,0.93,4.027974794735379e-15,-1.5326219122542851e-13,8.364040108030046e-15
5.627601861953735,0.24,-0.08,9.78,0.0,0.0,0.0,-0.01,-0.01,-0.36,0.93,4.027974794735379e-15,-1.5326219122542851e-13,8.364040108030046e-15
5.628084421157837,0.24,-0.08,9.78,0.0,0.0,0.0,-0.01,-0.01,-0.36,0.93,4.027974794735379e-15,-1.5326219122542851e-13,8.364040108030046e-15
5.62855863571167,0.24,-0.08,9.78,0.0,0.0,0.0,-0.01,-0.01,-0.36,0.93,4.027974794735379e-15,-1.5326219122542851e-13,8.364040108030046e-15
5.628980398178101,0.24,-0.08,9.78,0.0,0.0,0.0,-0.01,-0.01,-0.36,0.93,4.027974794735379e-15,-1.5326219122542851e-13,8.364040108030046e-15
5.629456996917725,0.24,-0.08,9.78,0.0,0.0,0.0,-0.01,-0.01,-0.36,0.93,4.027974794735379e-15,-1.5326219122542851e-13,8.364040108030046e-15
5.6299848556518555,0.24,-0.08,9.78,0.0,0.0,0.0,-0.01,-0.01,-0.36,0.93,4.027974794735379e-15,-1.5326219122542851e-13,8.364040108030046e-15
5.63043212890625,0.24,-0.08,9.78,0.0,0.0,0.0,-0.01,-0.01,-0.36,0.93,4.027974794735379e-15,-1.5326219122542851e-13,8.364040108030046e-15
5.630888223648071,0.24,-0.08,9.78,0.0,0.0,0.0,-0.01,-0.01,-0.36,0.93,4.027974794735379e-15,-1.5326219122542851e-13,8.364040108030046e-15
5.63129734992981,0.24,-0.08,9.78,0.0,0.0,0.0,-0.01,-0.01,-0.36,0.93,4.027974794735379e-15,-1.5326219122542851e-13,8.364040108030046e-15
5.631705284118652,0.24,-0.08,9.78,0.0,0.0,0.0,-0.01,-0.01,-0.36,0.93,4.027974794735379e-15,-1.5326219122542851e-13,8.364040108030046e-15
5.632161378860474,0.24,-0.08,9.78,0.0,0.0,0.0,-0.01,-0.01,-0.36,0.93,4.027974794735379e-15,-1.5326219122542851e-13,8.364040108030046e-15
5.632573127746582,0.24,-0.08,9.78,0.0,0.0,0.0,-0.01,-0.01,-0.36,0.93,4.027974794735379e-15,-1.5326219122542851e-13,8.364040108030046e-15
5.633025407791138,0.24,-0.04,9.78,0.0,0.0,0.0,-0.01,-0.01,-0.36,0.93,4.027974794735379e-15,-1.5326219122542851e-13,8.364040108030046e-15
5.633439302444458,0.24,-0.04,9.78,0.0,0.0,0.0,-0.01,-0.01,-0.36,0.93,4.027974794735379e-15,-1.5326219122542851e-13,8.364040108030046e-15
5.633968114852905,0.24,-0.04,9.78,0.0,0.0,0.0,-0.01,-0.01,-0.36,0.93,4.027974794735379e-15,-1.5326219122542851e-13,8.364040108030046e-15
5.6344873905181885,0.24,-0.04,9.78,0.0,0.0,0.0,-0.01,-0.01,-0.36,0.93,4.027974794735379e-15,-1.5326219122542851e-13,8.364040108030046e-15
5.635236501693726,0.24,-0.04,9.78,0.0,0.0,0.0,-0.01,-0.01,-0.36,0.93,4.027974794735379e-15,-1.5326219122542851e-13,8.364040108030046e-15
5.636623859405518,0.24,-0.04,9.78,0.0,0.0,0.0,-0.01,-0.01,-0.36,0.93,4.027974794735379e-15,-1.5326219122542851e-13,8.364040108030046e-15
5.637444734573364,0.24,-0.04,9.78,0.0,0.0,0.0,-0.01,-0.01,-0.36,0.93,4.027974794735379e-15,-1.5326219122542851e-13,8.364040108030046e-15
5.637929677963257,0.24,-0.04,9.78,0.0,0.0,0.0,-0.01,-0.01,-0.36,0.93,4.027974794735379e-15,-1.5326219122542851e-13,8.364040108030046e-15
5.6384289264678955,0.24,-0.04,9.78,0.0,0.0,0.0,-0.01,-0.01,-0.36,0.93,4.027974794735379e-15,-1.5326219122542851e-13,8.364040108030046e-15
5.638970136642456,0.24,-0.04,9.78,0.0,0.0,0.0,-0.01,-0.01,-0.36,0.93,4.027974794735379e-15,-1.5326219122542851e-13,8.364040108030046e-15
5.70983624458313,0.24,-0.08,9.81,0.0,0.0,0.0,-0.01,-0.01,-0.36,0.93,4.027974794735379e-15,-1.5326219122542851e-13,8.364040108030046e-15
5.710508108139038,0.24,-0.08,9.81,0.0,0.0,0.0,-0.01,-0.01,-0.36,0.93,4.027974794735379e-15,-1.5326219122542851e-13,8.364040108030046e-15
5.711002826690674,0.24,-0.08,9.81,0.0,0.0,0.0,-0.01,-0.01,-0.36,0.93,4.027974794735379e-15,-1.5326219122542851e-13,8.364040108030046e-15
5.711440324783325,0.24,-0.08,9.81,0.0,0.0,0.0,-0.01,-0.01,-0.36,0.93,4.027974794735379e-15,-1.5326219122542851e-13,8.364040108030046e-15
5.711958169937134,0.24,-0.08,9.81,0.0,0.0,0.0,-0.01,-0.01,-0.36,0.93,4.027974794735379e-15,-1.5326219122542851e-13,8.364040108030046e-15
5.712400674819946,0.24,-0.08,9.81,0.0,0.0,0.0,-0.01,-0.01,-0.36,0.93,4.027974794735379e-15,-1.5326219122542851e-13,8.364040108030046e-15
5.712929725646973,0.24,-0.08,9.81,0.0,0.0,0.0,-0.01,-0.01,-0.36,0.93,4.027974794735379e-15,-1.5326219122542851e-13,8.364040108030046e-15
5.713432312011719,0.24,-0.08,9.81,0.0,0.0,0.0,-0.01,-0.01,-0.36,0.93,4.027974794735379e-15,-1.5326219122542851e-13,8.364040108030046e-15
5.714086294174194,0.2,-0.04,9.82,0.0,0.0,0.0,-0.01,-0.01,-0.36,0.93,4.027974794735379e-15,-1.5326219122542851e-13,8.364040108030046e-15
5.714643239974976,0.2,-0.04,9.82,0.0,0.0,0.0,-0.01,-0.01,-0.36,0.93,4.027974794735379e-15,-1.5326219122542851e-13,8.364040108030046e-15
5.71532678604126,0.2,-0.04,9.82,0.0,0.0,0.0,-0.01,-0.01,-0.36,0.93,4.027974794735379e-15,-1.5326219122542851e-13,8.364040108030046e-15
5.716093301773071,0.2,-0.04,9.82,0.0,0.0,0.0,-0.01,-0.01,-0.36,0.93,4.027974794735379e-15,-1.5326219122542851e-13,8.364040108030046e-15
5.7167134284973145,0.24,-0.08,9.89,0.0,0.0,0.0,-0.01,-0.01,-0.36,0.93,4.027974794735379e-15,-1.5326219122542851e-13,8.364040108030046e-15
5.717182874679565,0.24,-0.08,9.89,0.0,0.0,0.0,-0.01,-0.01,-0.36,0.93,4.027974794735379e-15,-1.5326219122542851e-13,8.364040108030046e-15
5.717611789703369,0.24,-0.08,9.89,0.0,0.0,0.0,-0.01,-0.01,-0.36,0.93,4.027974794735379e-15,-1.5326219122542851e-13,8.364040108030046e-15
5.718197822570801,0.24,-0.08,9.89,0.0,0.0,0.0,-0.01,-0.01,-0.36,0.93,4.027974794735379e-15,-1.5326219122542851e-13,8.364040108030046e-15
5.798125505447388,0.24,-0.08,9.89,0.0,0.0,0.0,-0.01,-0.01,-0.36,0.93,4.027974794735379e-15,-1.5326219122542851e-13,8.364040108030046e-15
5.799835920333862,0.24,-0.08,9.89,0.0,0.0,0.0,-0.01,-0.01,-0.36,0.93,4.027974794735379e-15,-1.5326219122542851e-13,8.364040108030046e-15
5.8009257316589355,0.24,-0.08,9.89,0.0,0.0,0.0,-0.01,-0.01,-0.36,0.93,4.027974794735379e-15,-1.5326219122542851e-13,8.364040108030046e-15
5.801939964294434,0.24,-0.08,9.89,0.0,0.0,0.0,-0.01,-0.01,-0.36,0.93,4.027974794735379e-15,-1.5326219122542851e-13,8.364040108030046e-15
5.802682876586914,0.2,-0.08,9.77,0.0,0.0,0.0,-0.01,-0.01,-0.36,0.93,4.027974794735379e-15,-1.5326219122542851e-13,8.364040108030046e-15
5.803406476974487,0.2,-0.08,9.77,0.0,0.0,0.0,-0.01,-0.01,-0.36,0.93,4.027974794735379e-15,-1.5326219122542851e-13,8.364040108030046e-15
5.8040854930877686,0.2,-0.08,9.77,0.0,0.0,0.0,-0.01,-0.01,-0.36,0.93,4.027974794735379e-15,-1.5326219122542851e-13,8.364040108030046e-15
5.805071115493774,0.2,-0.08,9.77,0.0,0.0,0.0,-0.01,-0.01,-0.36,0.93,4.027974794735379e-15,-1.5326219122542851e-13,8.364040108030046e-15
5.805739879608154,0.2,-0.08,9.77,0.0,0.0,0.0,-0.01,-0.01,-0.36,0.93,4.027974794735379e-15,-1.5326219122542851e-13,8.364040108030046e-15
5.8064165115356445,0.2,-0.08,9.77,0.0,0.0,0.0,-0.01,-0.01,-0.36,0.93,4.027974794735379e-15,-1.5326219122542851e-13,8.364040108030046e-15
5.807080030441284,0.2,-0.08,9.77,0.0,0.0,0.0,-0.01,-0.01,-0.36,0.93,4.027974794735379e-15,-1.5326219122542851e-13,8.364040108030046e-15
5.8082661628723145,0.2,-0.08,9.77,0.0,0.0,0.0,-0.01,-0.01,-0.36,0.93,4.027974794735379e-15,-1.5326219122542851e-13,8.364040108030046e-15
5.808964252471924,0.2,-0.04,9.77,0.0,0.0,0.0,-0.01,-0.01,-0.36,0.93,4.027974794735379e-15,-1.5326219122542851e-13,8.364040108030046e-15
5.809912919998169,0.2,-0.04,9.77,0.0,0.0,0.0,-0.01,-0.01,-0.36,0.93,4.027974794735379e-15,-1.5326219122542851e-13,8.364040108030046e-15
5.810652256011963,0.2,-0.04,9.77,0.0,0.0,0.0,-0.01,-0.01,-0.36,0.93,4.027974794735379e-15,-1.5326219122542851e-13,8.364040108030046e-15
5.8116209506988525,0.2,-0.04,9.77,0.0,0.0,0.0,-0.01,-0.01,-0.36,0.93,4.027974794735379e-15,-1.5326219122542851e-13,8.364040108030046e-15
5.812363147735596,0.2,-0.04,9.77,0.0,0.0,0.0,-0.01,-0.01,-0.36,0.93,4.027974794735379e-15,-1.5326219122542851e-13,8.364040108030046e-15
5.8133649826049805,0.2,-0.04,9.77,0.0,0.0,0.0,-0.01,-0.01,-0.36,0.93,4.027974794735379e-15,-1.5326219122542851e-13,8.364040108030046e-15
5.8140764236450195,0.2,-0.04,9.77,0.0,0.0,0.0,-0.01,-0.01,-0.36,0.93,4.027974794735379e-15,-1.5326219122542851e-13,8.364040108030046e-15
5.815016269683838,0.2,-0.04,9.77,0.0,0.0,0.0,-0.01,-0.01,-0.36,0.93,4.027974794735379e-15,-1.5326219122542851e-13,8.364040108030046e-15
5.815573215484619,0.2,-0.12,9.78,0.0,0.0,0.0,-0.01,-0.01,-0.36,0.93,4.027974794735379e-15,-1.5326219122542851e-13,8.364040108030046e-15
5.816075563430786,0.2,-0.12,9.78,0.0,0.0,0.0,-0.01,-0.01,-0.36,0.93,4.027974794735379e-15,-1.5326219122542851e-13,8.364040108030046e-15
5.912925958633423,0.2,-0.12,9.78,0.0,0.0,0.0,-0.01,-0.01,-0.36,0.93,4.027974794735379e-15,-1.5326219122542851e-13,8.364040108030046e-15
5.9137749671936035,0.2,-0.12,9.78,0.0,0.0,0.0,-0.01,-0.01,-0.36,0.93,4.027974794735379e-15,-1.5326219122542851e-13,8.364040108030046e-15
5.914819955825806,0.2,-0.12,9.78,0.0,0.0,0.0,-0.01,-0.01,-0.36,0.93,4.027974794735379e-15,-1.5326219122542851e-13,8.364040108030046e-15
5.9156577587127686,0.2,-0.12,9.78,0.0,0.0,0.0,-0.01,-0.01,-0.36,0.93,4.027974794735379e-15,-1.5326219122542851e-13,8.364040108030046e-15
5.916428804397583,0.2,-0.12,9.78,0.0,0.0,0.0,-0.01,-0.01,-0.36,0.93,4.027974794735379e-15,-1.5326219122542851e-13,8.364040108030046e-15
5.9174964427948,0.2,-0.12,9.78,0.0,0.0,0.0,-0.01,-0.01,-0.36,0.93,4.027974794735379e-15,-1.5326219122542851e-13,8.364040108030046e-15
5.918105363845825,0.2,-0.12,9.78,0.0,0.0,0.0,-0.01,-0.01,-0.36,0.93,4.027974794735379e-15,-1.5326219122542851e-13,8.364040108030046e-15
5.918652534484863,0.2,-0.12,9.78,0.0,0.0,0.0,-0.01,-0.01,-0.36,0.93,4.027974794735379e-15,-1.5326219122542851e-13,8.364040108030046e-15
5.919312477111816,0.2,-0.08,9.77,0.0,0.0,0.0,-0.01,-0.01,-0.36,0.93,4.027974794735379e-15,-1.5326219122542851e-13,8.364040108030046e-15
5.920002222061157,0.2,-0.08,9.77,0.0,0.0,0.0,-0.01,-0.01,-0.36,0.93,4.027974794735379e-15,-1.5326219122542851e-13,8.364040108030046e-15
5.920515775680542,0.2,-0.08,9.77,0.0,0.0,0.0,-0.01,-0.01,-0.36,0.93,4.027974794735379e-15,-1.5326219122542851e-13,8.364040108030046e-15
5.920982122421265,0.2,-0.08,9.77,0.0,0.0,0.0,-0.01,-0.01,-0.36,0.93,4.027974794735379e-15,-1.5326219122542851e-13,8.364040108030046e-15
5.921455383300781,0.2,-0.08,9.77,0.0,0.0,0.0,-0.01,-0.01,-0.36,0.93,4.027974794735379e-15,-1.5326219122542851e-13,8.364040108030046e-15
5.9220099449157715,0.2,-0.08,9.77,0.0,0.0,0.0,-0.01,-0.01,-0.36,0.93,4.027974794735379e-15,-1.5326219122542851e-13,8.364040108030046e-15
5.922497987747192,0.2,-0.04,9.86,0.0,0.0,0.0,-0.01,-0.01,-0.36,0.93,4.027974794735379e-15,-1.5326219122542851e-13,8.364040108030046e-15
5.92304539680481,0.2,-0.04,9.86,0.0,0.0,0.0,-0.01,-0.01,-0.36,0.93,4.027974794735379e-15,-1.5326219122542851e-13,8.364040108030046e-15
5.9235358238220215,0.2,-0.04,9.86,0.0,0.0,0.0,-0.01,-0.01,-0.36,0.93,4.027974794735379e-15,-1.5326219122542851e-13,8.364040108030046e-15
5.924151420593262,0.2,-0.04,9.86,0.0,0.0,0.0,-0.01,-0.01,-0.36,0.93,4.027974794735379e-15,-1.5326219122542851e-13,8.364040108030046e-15
5.924886226654053,0.2,-0.04,9.86,0.0,0.0,0.0,-0.01,-0.01,-0.36,0.93,4.027974794735379e-15,-1.5326219122542851e-13,8.364040108030046e-15
5.925589084625244,0.2,-0.04,9.86,0.0,0.0,0.0,-0.01,-0.01,-0.36,0.93,4.027974794735379e-15,-1.5326219122542851e-13,8.364040108030046e-15
5.926405668258667,0.2,-0.04,9.86,0.0,0.0,0.0,-0.01,-0.01,-0.36,0.93,4.027974794735379e-15,-1.5326219122542851e-13,8.364040108030046e-15
6.001427412033081,0.2,-0.04,9.86,0.0,0.0,0.0,-0.01,-0.01,-0.36,0.93,4.027974794735379e-15,-1.5326219122542851e-13,8.364040108030046e-15
6.00228214263916,0.2,-0.04,9.86,0.0,0.0,0.0,-0.01,-0.01,-0.36,0.93,4.027974794735379e-15,-1.5326219122542851e-13,8.364040108030046e-15
6.002885818481445,0.2,-0.04,9.86,0.0,0.0,0.0,-0.01,-0.01,-0.36,0.93,4.027974794735379e-15,-1.5326219122542851e-13,8.364040108030046e-15
6.003424167633057,0.2,-0.04,9.77,0.0,0.0,0.0,-0.01,-0.01,-0.36,0.93,4.027974794735379e-15,-1.5326219122542851e-13,8.364040108030046e-15
6.003865480422974,0.2,-0.04,9.77,0.0,0.0,0.0,-0.01,-0.01,-0.36,0.93,4.027974794735379e-15,-1.5326219122542851e-13,8.364040108030046e-15
6.004401445388794,0.2,-0.04,9.77,0.0,0.0,0.0,-0.01,-0.01,-0.36,0.93,4.027974794735379e-15,-1.5326219122542851e-13,8.364040108030046e-15
6.005118370056152,0.2,-0.04,9.77,0.0,0.0,0.0,-0.01,-0.01,-0.36,0.93,4.027974794735379e-15,-1.5326219122542851e-13,8.364040108030046e-15
6.005760908126831,0.2,-0.04,9.77,0.0,0.0,0.0,-0.01,-0.01,-0.36,0.93,4.027974794735379e-15,-1.5326219122542851e-13,8.364040108030046e-15
6.006373167037964,0.2,-0.04,9.77,0.0,0.0,0.0,-0.01,-0.01,-0.36,0.93,4.027974794735379e-15,-1.5326219122542851e-13,8.364040108030046e-15
6.007027864456177,0.2,-0.04,9.82,0.0,0.0,0.0,-0.01,-0.01,-0.36,0.93,4.027974794735379e-15,-1.5326219122542851e-13,8.364040108030046e-15
6.007584095001221,0.2,-0.04,9.82,0.0,0.0,0.0,-0.01,-0.01,-0.36,0.93,4.027974794735379e-15,-1.5326219122542851e-13,8.364040108030046e-15
6.0081093311309814,0.2,-0.04,9.82,0.0,0.0,0.0,-0.01,-0.01,-0.36,0.93,4.027974794735379e-15,-1.5326219122542851e-13,8.364040108030046e-15
6.0085062980651855,0.2,-0.04,9.82,0.0,0.0,0.0,-0.01,-0.01,-0.36,0.93,4.027974794735379e-15,-1.5326219122542851e-13,8.364040108030046e-15
6.008956432342529,0.2,-0.04,9.82,0.0,0.0,0.0,-0.01,-0.01,-0.36,0.93,4.027974794735379e-15,-1.5326219122542851e-13,8.364040108030046e-15
6.009355068206787,0.2,-0.04,9.82,0.0,0.0,0.0,-0.01,-0.01,-0.36,0.93,4.027974794735379e-15,-1.5326219122542851e-13,8.364040108030046e-15
6.009765625,0.2,-0.04,9.82,0.0,0.0,0.0,-0.01,-0.01,-0.36,0.93,4.027974794735379e-15,-1.5326219122542851e-13,8.364040108030046e-15
6.010268211364746,0.2,-0.04,9.82,0.0,0.0,0.0,-0.01,-0.01,-0.36,0.93,4.027974794735379e-15,-1.5326219122542851e-13,8.364040108030046e-15
6.010824918746948,0.2,-0.04,9.82,0.0,0.0,0.0,-0.01,-0.01,-0.36,0.93,4.027974794735379e-15,-1.5326219122542851e-13,8.364040108030046e-15
6.011260747909546,0.2,-0.04,9.82,0.0,0.0,0.0,-0.01,-0.01,-0.36,0.93,4.027974794735379e-15,-1.5326219122542851e-13,8.364040108030046e-15
6.0116963386535645,0.2,-0.04,9.82,0.0,0.0,0.0,-0.01,-0.01,-0.36,0.93,4.027974794735379e-15,-1.5326219122542851e-13,8.364040108030046e-15
6.075290679931641,0.2,-0.04,9.82,0.0,0.0,0.0,-0.01,-0.01,-0.36,0.93,4.027974794735379e-15,-1.5326219122542851e-13,8.364040108030046e-15
6.076033353805542,0.24,-0.08,9.81,0.0,0.0,0.0,-0.01,-0.01,-0.36,0.93,4.027974794735379e-15,-1.5326219122542851e-13,8.364040108030046e-15
6.076547384262085,0.24,-0.08,9.81,0.0,0.0,0.0,-0.01,-0.01,-0.36,0.93,4.027974794735379e-15,-1.5326219122542851e-13,8.364040108030046e-15
6.077052593231201,0.24,-0.08,9.81,0.0,0.0,0.0,-0.01,-0.01,-0.36,0.93,4.027974794735379e-15,-1.5326219122542851e-13,8.364040108030046e-15
6.077484369277954,0.24,-0.08,9.81,0.0,0.0,0.0,-0.01,-0.01,-0.36,0.93,4.027974794735379e-15,-1.5326219122542851e-13,8.364040108030046e-15
6.077916860580444,0.24,-0.08,9.81,0.0,0.0,0.0,-0.01,-0.01,-0.36,0.93,4.027974794735379e-15,-1.5326219122542851e-13,8.364040108030046e-15
6.078384637832642,0.24,-0.08,9.81,0.0,0.0,0.0,-0.01,-0.01,-0.36,0.93,4.027974794735379e-15,-1.5326219122542851e-13,8.364040108030046e-15
6.078837156295776,0.24,-0.08,9.81,0.0,0.0,0.0,-0.01,-0.01,-0.36,0.93,4.027974794735379e-15,-1.5326219122542851e-13,8.364040108030046e-15
6.079241752624512,0.24,-0.08,9.81,0.0,0.0,0.0,-0.01,-0.01,-0.36,0.93,4.027974794735379e-15,-1.5326219122542851e-13,8.364040108030046e-15
6.079632759094238,0.24,-0.08,9.81,0.0,0.0,0.0,-0.01,-0.01,-0.36,0.93,4.027974794735379e-15,-1.5326219122542851e-13,8.364040108030046e-15
6.08005952835083,0.24,-0.08,9.81,0.0,0.0,0.0,-0.01,-0.01,-0.36,0.93,4.027974794735379e-15,-1.5326219122542851e-13,8.364040108030046e-15
6.080456256866455,0.2,-0.12,9.81,0.0,0.0,0.0,-0.01,-0.01,-0.36,0.93,4.027974794735379e-15,-1.5326219122542851e-13,8.364040108030046e-15
6.0809166431427,0.2,-0.12,9.81,0.0,0.0,0.0,-0.01,-0.01,-0.36,0.93,4.027974794735379e-15,-1.5326219122542851e-13,8.364040108030046e-15
6.081325054168701,0.2,-0.12,9.81,0.0,0.0,0.0,-0.01,-0.01,-0.36,0.93,4.027974794735379e-15,-1.5326219122542851e-13,8.364040108030046e-15
6.081768989562988,0.2,-0.12,9.81,0.0,0.0,0.0,-0.01,-0.01,-0.36,0.93,4.027974794735379e-15,-1.5326219122542851e-13,8.364040108030046e-15
6.082193374633789,0.2,-0.12,9.81,0.0,0.0,0.0,-0.01,-0.01,-0.36,0.93,4.027974794735379e-15,-1.5326219122542851e-13,8.364040108030046e-15
6.150309324264526,0.2,-0.12,9.81,0.0,0.0,0.0,-0.01,-0.01,-0.36,0.93,4.027974794735379e-15,-1.5326219122542851e-13,8.364040108030046e-15
6.151012897491455,0.2,-0.0,9.82,0.0,0.0,0.0,-0.01,-0.01,-0.36,0.93,4.027974794735379e-15,-1.5326219122542851e-13,8.364040108030046e-15
6.151526927947998,0.2,-0.0,9.82,0.0,0.0,0.0,-0.01,-0.01,-0.36,0.93,4.027974794735379e-15,-1.5326219122542851e-13,8.364040108030046e-15
6.152017116546631,0.2,-0.0,9.82,0.0,0.0,0.0,-0.01,-0.01,-0.36,0.93,4.027974794735379e-15,-1.5326219122542851e-13,8.364040108030046e-15
6.1524341106414795,0.2,-0.0,9.82,0.0,0.0,0.0,-0.01,-0.01,-0.36,0.93,4.027974794735379e-15,-1.5326219122542851e-13,8.364040108030046e-15
6.152853727340698,0.2,-0.0,9.82,0.0,0.0,0.0,-0.01,-0.01,-0.36,0.93,4.027974794735379e-15,-1.5326219122542851e-13,8.364040108030046e-15
6.153331756591797,0.2,-0.0,9.82,0.0,0.0,0.0,-0.01,-0.01,-0.36,0.93,4.027974794735379e-15,-1.5326219122542851e-13,8.364040108030046e-15
6.153968572616577,0.2,-0.0,9.82,0.0,0.0,0.0,-0.01,-0.01,-0.36,0.93,4.027974794735379e-15,-1.5326219122542851e-13,8.364040108030046e-15
6.154587507247925,0.2,-0.0,9.82,0.0,0.0,0.0,-0.01,-0.01,-0.36,0.93,4.027974794735379e-15,-1.5326219122542851e-13,8.364040108030046e-15
6.155235767364502,0.2,-0.0,9.82,0.0,0.0,0.0,-0.01,-0.01,-0.36,0.93,4.027974794735379e-15,-1.5326219122542851e-13,8.364040108030046e-15
6.1558685302734375,0.2,-0.0,9.82,0.0,0.0,0.0,-0.01,-0.01,-0.36,0.93,4.027974794735379e-15,-1.5326219122542851e-13,8.364040108030046e-15
6.156458616256714,0.24,-0.04,9.81,0.0,0.0,0.0,-0.01,-0.01,-0.36,0.93,4.027974794735379e-15,-1.5326219122542851e-13,8.364040108030046e-15
6.157000541687012,0.24,-0.04,9.81,0.0,0.0,0.0,-0.01,-0.01,-0.36,0.93,4.027974794735379e-15,-1.5326219122542851e-13,8.364040108030046e-15
6.157447814941406,0.24,-0.04,9.81,0.0,0.0,0.0,-0.01,-0.01,-0.36,0.93,4.027974794735379e-15,-1.5326219122542851e-13,8.364040108030046e-15
6.220212697982788,0.24,-0.04,9.81,0.0,0.0,0.0,-0.01,-0.01,-0.36,0.93,4.027974794735379e-15,-1.5326219122542851e-13,8.364040108030046e-15
6.221235275268555,0.24,-0.04,9.81,0.0,0.0,0.0,-0.01,-0.01,-0.36,0.93,4.027974794735379e-15,-1.5326219122542851e-13,8.364040108030046e-15
6.222385406494141,0.24,-0.04,9.81,0.0,0.0,0.0,-0.01,-0.01,-0.36,0.93,4.027974794735379e-15,-1.5326219122542851e-13,8.364040108030046e-15
