Timestamp,AccelX,AccelY,AccelZ,GyroX,GyroY,GyroZ,QuatW,QuatX,QuatY,QuatZ,Tilt,Obliquity,Rotation
2.145585536956787,0.5,0.19,9.83,0.0,0.0,0.0,0.02,-0.01,0.81,0.58,-2.4712645262585135e-14,1.1411319398297777e-13,4.2007745289971036e-14
2.1459639072418213,0.5,0.19,9.83,0.0,0.0,0.0,0.02,-0.01,0.81,0.58,-2.4712645262585135e-14,1.1411319398297777e-13,4.2007745289971036e-14
2.146239757537842,0.5,0.19,9.83,0.01,-0.0,0.0,0.02,-0.01,0.81,0.58,-2.4712645262585135e-14,1.1411319398297777e-13,4.2007745289971036e-14
2.1465048789978027,0.5,0.19,9.83,0.01,-0.0,0.0,0.02,-0.01,0.81,0.58,-2.4712645262585135e-14,1.1411319398297777e-13,4.2007745289971036e-14
2.1467196941375732,0.5,0.19,9.83,-0.01,0.0,-0.0,0.02,-0.01,0.81,0.58,-2.4712645262585135e-14,1.1411319398297777e-13,4.2007745289971036e-14
2.1473052501678467,0.5,0.19,9.83,-0.01,0.0,-0.0,0.02,-0.01,0.81,0.58,-2.4712645262585135e-14,1.1411319398297777e-13,4.2007745289971036e-14
2.147533416748047,0.38,0.19,9.71,-0.01,0.0,-0.0,0.02,-0.01,0.81,0.58,-2.4712645262585135e-14,1.1411319398297777e-13,4.2007745289971036e-14
2.1477887630462646,0.38,0.19,9.71,-0.01,0.0,-0.0,0.02,-0.01,0.81,0.58,-2.4712645262585135e-14,1.1411319398297777e-13,4.2007745289971036e-14
2.1480026245117188,0.38,0.19,9.71,0.0,0.0,0.0,0.02,-0.01,0.81,0.58,-2.4712645262585135e-14,1.1411319398297777e-13,4.2007745289971036e-14
2.148244619369507,0.38,0.19,9.71,0.0,0.0,0.0,0.02,-0.01,0.81,0.58,-2.4712645262585135e-14,1.1411319398297777e-13,4.2007745289971036e-14
2.148474931716919,0.38,0.19,9.71,-0.01,0.0,0.0,0.02,-0.01,0.81,0.58,-2.4712645262585135e-14,1.1411319398297777e-13,4.2007745289971036e-14
2.2151389122009277,0.38,0.19,9.71,-0.01,0.0,0.0,0.02,-0.01,0.81,0.58,-2.4712645262585135e-14,1.1411319398297777e-13,4.2007745289971036e-14
2.215449094772339,0.5,0.11,9.87,-0.01,0.0,0.0,0.02,-0.01,0.81,0.58,-2.4712645262585135e-14,1.1411319398297777e-13,4.2007745289971036e-14
2.215667963027954,0.5,0.11,9.87,-0.0,-0.0,0.01,0.02,-0.01,0.81,0.58,-2.4712645262585135e-14,1.1411319398297777e-13,4.2007745289971036e-14
2.2158517837524414,0.5,0.11,9.87,-0.0,-0.0,0.01,0.02,-0.01,0.81,0.58,-2.4712645262585135e-14,1.1411319398297777e-13,4.2007745289971036e-14
2.2160143852233887,0.5,0.11,9.87,-0.0,-0.0,0.01,0.02,-0.01,0.81,0.58,-2.4712645262585135e-14,1.1411319398297777e-13,4.2007745289971036e-14
2.216176748275757,0.5,0.11,9.87,-0.01,0.0,-0.0,0.02,-0.01,0.81,0.58,-2.4712645262585135e-14,1.1411319398297777e-13,4.2007745289971036e-14
2.2163541316986084,0.5,0.11,9.87,-0.01,0.0,-0.0,0.02,-0.01,0.81,0.58,-2.4712645262585135e-14,1.1411319398297777e-13,4.2007745289971036e-14
2.216507911682129,0.46,0.11,9.83,-0.01,0.0,-0.0,0.02,-0.01,0.81,0.58,-2.4712645262585135e-14,1.1411319398297777e-13,4.2007745289971036e-14
2.2166635990142822,0.46,0.11,9.83,-0.01,0.0,-0.0,0.02,-0.01,0.81,0.58,-2.4712645262585135e-14,1.1411319398297777e-13,4.2007745289971036e-14
2.2168593406677246,0.46,0.11,9.83,0.0,-0.01,-0.0,0.02,-0.01,0.81,0.58,-2.4712645262585135e-14,1.1411319398297777e-13,4.2007745289971036e-14
2.217085838317871,0.46,0.11,9.83,0.0,-0.01,-0.0,0.02,-0.01,0.81,0.58,-2.4712645262585135e-14,1.1411319398297777e-13,4.2007745289971036e-14
2.217329502105713,0.46,0.11,9.83,0.0,-0.01,-0.0,0.02,-0.01,0.81,0.58,-2.4712645262585135e-14,1.1411319398297777e-13,4.2007745289971036e-14
2.2175540924072266,0.46,0.11,9.83,0.0,-0.01,-0.0,0.02,-0.01,0.81,0.58,-2.4712645262585135e-14,1.1411319398297777e-13,4.2007745289971036e-14
2.2864413261413574,0.46,0.11,9.83,0.0,0.0,0.0,0.02,-0.01,0.81,0.58,-2.4712645262585135e-14,1.1411319398297777e-13,4.2007745289971036e-14
2.286742925643921,0.46,0.11,9.83,0.0,0.0,0.0,0.02,-0.01,0.81,0.58,-2.4712645262585135e-14,1.1411319398297777e-13,4.2007745289971036e-14
2.2869346141815186,0.54,0.19,9.95,0.0,0.0,0.0,0.02,-0.01,0.81,0.58,-2.4712645262585135e-14,1.1411319398297777e-13,4.2007745289971036e-14
2.2871410846710205,0.54,0.19,9.95,0.0,0.0,0.0,0.02,-0.01,0.81,0.58,-2.4712645262585135e-14,1.1411319398297777e-13,4.2007745289971036e-14
2.2873363494873047,0.54,0.19,9.95,0.0,0.0,0.0,0.02,-0.01,0.81,0.58,-2.4712645262585135e-14,1.1411319398297777e-13,4.2007745289971036e-14
2.287562847137451,0.54,0.19,9.95,0.0,0.0,0.0,0.02,-0.01,0.81,0.58,-2.4712645262585135e-14,1.1411319398297777e-13,4.2007745289971036e-14
2.2877063751220703,0.54,0.19,9.95,0.0,0.0,0.0,0.02,-0.01,0.81,0.58,-2.4712645262585135e-14,1.1411319398297777e-13,4.2007745289971036e-14
2.2878758907318115,0.54,0.19,9.95,0.0,0.0,0.0,0.02,-0.01,0.81,0.58,-2.4712645262585135e-14,1.1411319398297777e-13,4.2007745289971036e-14
2.288034439086914,0.42,0.11,9.71,0.0,0.0,0.0,0.02,-0.01,0.81,0.58,-2.4712645262585135e-14,1.1411319398297777e-13,4.2007745289971036e-14
2.2881555557250977,0.42,0.11,9.71,0.0,0.0,0.0,0.02,-0.01,0.81,0.58,-2.4712645262585135e-14,1.1411319398297777e-13,4.2007745289971036e-14
2.2883071899414062,0.42,0.11,9.71,0.0,0.0,0.0,0.02,-0.01,0.81,0.58,-2.4712645262585135e-14,1.1411319398297777e-13,4.2007745289971036e-14
2.288473129272461,0.42,0.11,9.71,0.0,0.0,0.0,0.02,-0.01,0.81,0.58,-2.4712645262585135e-14,1.1411319398297777e-13,4.2007745289971036e-14
2.288597345352173,0.42,0.11,9.71,0.0,0.0,0.0,0.02,-0.01,0.81,0.58,-2.4712645262585135e-14,1.1411319398297777e-13,4.2007745289971036e-14
2.2887182235717773,0.42,0.11,9.71,0.0,0.0,0.0,0.02,-0.01,0.81,0.58,-2.4712645262585135e-14,1.1411319398297777e-13,4.2007745289971036e-14
2.3485982418060303,0.38,0.19,9.64,0.0,0.0,0.0,0.02,-0.01,0.81,0.58,-2.4712645262585135e-14,1.1411319398297777e-13,4.2007745289971036e-14
2.3489015102386475,0.38,0.19,9.64,0.0,0.0,0.0,0.02,-0.01,0.81,0.58,-2.4712645262585135e-14,1.1411319398297777e-13,4.2007745289971036e-14
2.349212884902954,0.38,0.19,9.64,0.0,0.0,0.0,0.02,-0.01,0.81,0.58,-2.4712645262585135e-14,1.1411319398297777e-13,4.2007745289971036e-14
2.34952974319458,0.38,0.19,9.64,0.0,0.0,0.0,0.02,-0.01,0.81,0.58,-2.4712645262585135e-14,1.1411319398297777e-13,4.2007745289971036e-14
2.3497445583343506,0.38,0.19,9.64,0.0,0.0,0.0,0.02,-0.01,0.81,0.58,-2.4712645262585135e-14,1.1411319398297777e-13,4.2007745289971036e-14
2.3499724864959717,0.38,0.19,9.64,0.0,0.0,0.0,0.02,-0.01,0.81,0.58,-2.4712645262585135e-14,1.1411319398297777e-13,4.2007745289971036e-14
2.350275993347168,0.38,0.19,9.64,0.0,0.0,0.0,0.02,-0.01,0.81,0.58,-2.4712645262585135e-14,1.1411319398297777e-13,4.2007745289971036e-14
2.350492477416992,0.38,0.19,9.64,0.0,0.0,0.0,0.02,-0.01,0.81,0.58,-2.4712645262585135e-14,1.1411319398297777e-13,4.2007745289971036e-14
2.350752353668213,0.57,0.11,9.79,0.0,0.0,0.0,0.02,-0.01,0.81,0.58,-2.4712645262585135e-14,1.1411319398297777e-13,4.2007745289971036e-14
2.350935935974121,0.57,0.11,9.79,0.0,0.0,0.0,0.02,-0.01,0.81,0.58,-2.4712645262585135e-14,1.1411319398297777e-13,4.2007745289971036e-14
2.3512725830078125,0.57,0.11,9.79,0.0,0.0,0.0,0.02,-0.01,0.81,0.58,-2.4712645262585135e-14,1.1411319398297777e-13,4.2007745289971036e-14
2.3514516353607178,0.57,0.11,9.79,0.0,0.0,0.0,0.02,-0.01,0.81,0.58,-2.4712645262585135e-14,1.1411319398297777e-13,4.2007745289971036e-14
2.351656198501587,0.57,0.11,9.79,0.0,0.0,0.0,0.02,-0.01,0.81,0.58,-2.4712645262585135e-14,1.1411319398297777e-13,4.2007745289971036e-14
2.3518319129943848,0.57,0.11,9.79,0.0,0.0,0.0,0.02,-0.01,0.81,0.58,-2.4712645262585135e-14,1.1411319398297777e-13,4.2007745289971036e-14
2.352043390274048,0.54,0.11,9.91,0.0,0.0,0.0,0.02,-0.01,0.81,0.58,-2.4712645262585135e-14,1.1411319398297777e-13,4.2007745289971036e-14
2.3522281646728516,0.54,0.11,9.91,0.0,0.0,0.0,0.02,-0.01,0.81,0.58,-2.4712645262585135e-14,1.1411319398297777e-13,4.2007745289971036e-14
2.352405071258545,0.54,0.11,9.91,0.0,0.0,0.0,0.02,-0.01,0.81,0.58,-2.4712645262585135e-14,1.1411319398297777e-13,4.2007745289971036e-14
2.3525710105895996,0.54,0.11,9.91,0.0,0.0,0.0,0.02,-0.01,0.81,0.58,-2.4712645262585135e-14,1.1411319398297777e-13,4.2007745289971036e-14
2.4144749641418457,0.54,0.11,9.91,0.0,0.0,0.0,0.02,-0.01,0.81,0.58,-2.4712645262585135e-14,1.1411319398297777e-13,4.2007745289971036e-14
2.414780616760254,0.54,0.11,9.91,0.0,0.0,0.0,0.02,-0.01,0.81,0.58,-2.4712645262585135e-14,1.1411319398297777e-13,4.2007745289971036e-14
2.4151294231414795,0.54,0.15,9.87,0.0,0.0,0.0,0.02,-0.01,0.81,0.58,-2.4712645262585135e-14,1.1411319398297777e-13,4.2007745289971036e-14
2.415386438369751,0.54,0.15,9.87,0.0,0.0,0.0,0.02,-0.01,0.81,0.58,-2.4712645262585135e-14,1.1411319398297777e-13,4.2007745289971036e-14
2.415677309036255,0.54,0.15,9.87,0.0,0.0,0.0,0.02,-0.01,0.81,0.58,-2.4712645262585135e-14,1.1411319398297777e-13,4.2007745289971036e-14
2.4159011840820312,0.54,0.15,9.87,0.0,0.0,0.0,0.02,-0.01,0.81,0.58,-2.4712645262585135e-14,1.1411319398297777e-13,4.2007745289971036e-14
2.4161291122436523,0.54,0.15,9.87,0.0,0.0,0.0,0.02,-0.01,0.81,0.58,-2.4712645262585135e-14,1.1411319398297777e-13,4.2007745289971036e-14
2.416350841522217,0.54,0.15,9.87,0.0,0.0,0.0,0.02,-0.01,0.81,0.58,-2.4712645262585135e-14,1.1411319398297777e-13,4.2007745289971036e-14
2.5297579765319824,0.38,0.15,9.79,0.0,0.0,0.0,0.02,-0.01,0.81,0.58,-2.4712645262585135e-14,1.1411319398297777e-13,4.2007745289971036e-14
2.5300607681274414,0.38,0.15,9.79,0.0,0.0,0.0,0.02,-0.01,0.81,0.58,-2.4712645262585135e-14,1.1411319398297777e-13,4.2007745289971036e-14
2.5303561687469482,0.38,0.15,9.79,0.0,0.0,0.0,0.02,-0.01,0.81,0.58,-2.4712645262585135e-14,1.1411319398297777e-13,4.2007745289971036e-14
2.530604600906372,0.38,0.15,9.79,0.0,0.0,0.0,0.02,-0.01,0.81,0.58,-2.4712645262585135e-14,1.1411319398297777e-13,4.2007745289971036e-14
2.5308220386505127,0.42,0.19,9.67,0.0,0.0,0.0,0.02,-0.01,0.81,0.58,-2.4712645262585135e-14,1.1411319398297777e-13,4.2007745289971036e-14
2.5310189723968506,0.42,0.19,9.67,0.0,0.0,0.0,0.02,-0.01,0.81,0.58,-2.4712645262585135e-14,1.1411319398297777e-13,4.2007745289971036e-14
2.53124737739563,0.42,0.19,9.67,0.0,0.0,0.0,0.02,-0.01,0.81,0.58,-2.4712645262585135e-14,1.1411319398297777e-13,4.2007745289971036e-14
2.5314557552337646,0.42,0.19,9.67,0.0,0.0,0.0,0.02,-0.01,0.81,0.58,-2.4712645262585135e-14,1.1411319398297777e-13,4.2007745289971036e-14
2.5316848754882812,0.42,0.19,9.67,0.0,0.0,0.0,0.02,-0.01,0.81,0.58,-2.4712645262585135e-14,1.1411319398297777e-13,4.2007745289971036e-14
2.5318686962127686,0.42,0.19,9.67,0.0,0.0,0.0,0.02,-0.01,0.81,0.58,-2.4712645262585135e-14,1.1411319398297777e-13,4.2007745289971036e-14
2.5320606231689453,0.42,0.19,9.67,0.0,0.0,0.0,0.02,-0.01,0.81,0.58,-2.4712645262585135e-14,1.1411319398297777e-13,4.2007745289971036e-14
2.5322349071502686,0.42,0.19,9.67,0.0,0.0,0.0,0.02,-0.01,0.81,0.58,-2.4712645262585135e-14,1.1411319398297777e-13,4.2007745289971036e-14
2.5325050354003906,0.5,0.11,9.79,0.0,0.0,0.0,0.02,-0.01,0.81,0.58,-2.4712645262585135e-14,1.1411319398297777e-13,4.2007745289971036e-14
2.532752275466919,0.5,0.11,9.79,0.0,0.0,0.0,0.02,-0.01,0.81,0.58,-2.4712645262585135e-14,1.1411319398297777e-13,4.2007745289971036e-14
2.5329501628875732,0.5,0.11,9.79,0.0,0.0,0.0,0.02,-0.01,0.81,0.58,-2.4712645262585135e-14,1.1411319398297777e-13,4.2007745289971036e-14
2.5331454277038574,0.5,0.11,9.79,0.0,0.0,0.0,0.02,-0.01,0.81,0.58,-2.4712645262585135e-14,1.1411319398297777e-13,4.2007745289971036e-14
2.5333924293518066,0.5,0.11,9.79,0.0,0.0,0.0,0.02,-0.01,0.81,0.58,-2.4712645262585135e-14,1.1411319398297777e-13,4.2007745289971036e-14
2.533614158630371,0.5,0.11,9.79,0.0,0.0,0.0,0.02,-0.01,0.81,0.58,-2.4712645262585135e-14,1.1411319398297777e-13,4.2007745289971036e-14
2.5338399410247803,0.46,0.15,9.79,0.0,0.0,0.0,0.02,-0.01,0.81,0.58,-2.4712645262585135e-14,1.1411319398297777e-13,4.2007745289971036e-14
2.534014940261841,0.46,0.15,9.79,0.0,0.0,0.0,0.02,-0.01,0.81,0.58,-2.4712645262585135e-14,1.1411319398297777e-13,4.2007745289971036e-14
2.5341856479644775,0.46,0.15,9.79,0.0,0.0,0.0,0.02,-0.01,0.81,0.58,-2.4712645262585135e-14,1.1411319398297777e-13,4.2007745289971036e-14
2.534353733062744,0.46,0.15,9.79,0.0,0.0,0.0,0.02,-0.01,0.81,0.58,-2.4712645262585135e-14,1.1411319398297777e-13,4.2007745289971036e-14
2.5345804691314697,0.46,0.15,9.79,0.0,0.0,0.0,0.02,-0.01,0.81,0.58,-2.4712645262585135e-14,1.1411319398297777e-13,4.2007745289971036e-14
2.534752607345581,0.46,0.15,9.79,0.0,0.0,0.0,0.02,-0.01,0.81,0.58,-2.4712645262585135e-14,1.1411319398297777e-13,4.2007745289971036e-14
2.534947633743286,0.46,0.23,9.71,0.0,0.0,0.0,0.02,-0.01,0.81,0.58,-2.4712645262585135e-14,1.1411319398297777e-13,4.2007745289971036e-14
2.535146474838257,0.46,0.23,9.71,0.0,0.0,0.0,0.02,-0.01,0.81,0.58,-2.4712645262585135e-14,1.1411319398297777e-13,4.2007745289971036e-14
2.535339117050171,0.46,0.23,9.71,0.0,0.0,0.0,0.02,-0.01,0.81,0.58,-2.4712645262585135e-14,1.1411319398297777e-13,4.2007745289971036e-14
2.5355072021484375,0.46,0.23,9.71,0.0,0.0,0.0,0.02,-0.01,0.81,0.58,-2.4712645262585135e-14,1.1411319398297777e-13,4.2007745289971036e-14
2.6047134399414062,0.54,0.15,9.91,0.0,0.0,0.0,0.02,-0.01,0.81,0.58,-2.4712645262585135e-14,1.1411319398297777e-13,4.2007745289971036e-14
2.605069875717163,0.54,0.15,9.91,0.0,0.0,0.0,0.02,-0.01,0.81,0.58,-2.4712645262585135e-14,1.1411319398297777e-13,4.2007745289971036e-14
2.605306625366211,0.54,0.15,9.91,0.0,0.0,0.0,0.02,-0.01,0.81,0.58,-2.4712645262585135e-14,1.1411319398297777e-13,4.2007745289971036e-14
2.6055140495300293,0.54,0.15,9.91,0.0,0.0,0.0,0.02,-0.01,0.81,0.58,-2.4712645262585135e-14,1.1411319398297777e-13,4.2007745289971036e-14
2.6057164669036865,0.54,0.07,9.87,0.0,0.0,0.0,0.02,-0.01,0.81,0.58,-2.4712645262585135e-14,1.1411319398297777e-13,4.2007745289971036e-14
2.605903387069702,0.54,0.07,9.87,0.0,0.0,0.0,0.02,-0.01,0.81,0.58,-2.4712645262585135e-14,1.1411319398297777e-13,4.2007745289971036e-14
2.606146812438965,0.54,0.07,9.87,0.0,0.0,0.0,0.02,-0.01,0.81,0.58,-2.4712645262585135e-14,1.1411319398297777e-13,4.2007745289971036e-14
2.6064326763153076,0.54,0.07,9.87,0.0,0.0,0.0,0.02,-0.01,0.81,0.58,-2.4712645262585125e-14,1.1411319398297772e-13,4.200774528997102e-14
2.607146739959717,0.54,0.07,9.87,0.0,0.0,0.0,0.02,-0.01,0.81,0.58,-2.4712645262585125e-14,1.1411319398297772e-13,4.200774528997102e-14
2.6077730655670166,0.54,0.07,9.87,0.0,0.0,0.0,0.02,-0.01,0.81,0.58,-2.4712645262585125e-14,1.1411319398297772e-13,4.200774528997102e-14
2.608218193054199,0.54,0.07,9.87,0.0,0.0,0.0,0.02,-0.01,0.81,0.58,-2.4712645262585125e-14,1.1411319398297772e-13,4.200774528997102e-14
2.6086480617523193,0.54,0.07,9.87,0.0,0.0,0.0,0.02,-0.01,0.81,0.58,-2.4712645262585125e-14,1.1411319398297772e-13,4.200774528997102e-14
2.609086036682129,0.5,0.19,9.83,0.0,0.0,0.0,0.02,-0.01,0.81,0.58,-2.4712645262585125e-14,1.1411319398297772e-13,4.200774528997102e-14
2.6095685958862305,0.5,0.19,9.83,0.0,0.0,0.0,0.02,-0.01,0.81,0.58,-2.4712645262585125e-14,1.1411319398297772e-13,4.200774528997102e-14
2.610037326812744,0.5,0.19,9.83,0.0,0.0,0.0,0.02,-0.01,0.81,0.58,-2.4712645262585125e-14,1.1411319398297772e-13,4.200774528997102e-14
2.6105027198791504,0.5,0.19,9.83,0.0,0.0,0.0,0.02,-0.01,0.81,0.58,-2.4712645262585125e-14,1.1411319398297772e-13,4.200774528997102e-14
2.610975980758667,0.5,0.19,9.83,0.0,0.0,0.0,0.02,-0.01,0.81,0.58,-2.4712645262585125e-14,1.1411319398297772e-13,4.200774528997102e-14
2.611405372619629,0.5,0.19,9.83,0.0,0.0,0.0,0.02,-0.01,0.81,0.58,-2.4712645262585125e-14,1.1411319398297772e-13,4.200774528997102e-14
2.611845016479492,0.54,0.15,9.95,0.0,0.0,0.0,0.02,-0.01,0.81,0.58,-2.4712645262585125e-14,1.1411319398297772e-13,4.200774528997102e-14
2.6123101711273193,0.54,0.15,9.95,0.0,0.0,0.0,0.02,-0.01,0.81,0.58,-2.4712645262585125e-14,1.1411319398297772e-13,4.200774528997102e-14
2.669564723968506,0.54,0.15,9.95,0.0,0.0,0.0,0.02,-0.01,0.81,0.58,-2.4712645262585125e-14,1.1411319398297772e-13,4.200774528997102e-14
2.67024564743042,0.54,0.15,9.95,0.0,0.0,0.0,0.02,-0.01,0.81,0.58,-2.4712645262585125e-14,1.1411319398297772e-13,4.200774528997102e-14
2.670771360397339,0.54,0.15,9.95,0.0,0.0,0.0,0.02,-0.01,0.81,0.58,-2.4712645262585125e-14,1.1411319398297772e-13,4.200774528997102e-14
2.671318531036377,0.54,0.15,9.95,0.0,0.0,0.0,0.02,-0.01,0.81,0.58,-2.4712645262585125e-14,1.1411319398297772e-13,4.200774528997102e-14
2.671844482421875,0.54,0.15,9.95,0.0,0.0,0.0,0.02,-0.01,0.81,0.58,-2.4712645262585125e-14,1.1411319398297772e-13,4.200774528997102e-14
2.672427177429199,0.54,0.15,9.95,0.0,0.0,0.0,0.02,-0.01,0.81,0.58,-2.4712645262585125e-14,1.1411319398297772e-13,4.200774528997102e-14
2.6728837490081787,0.54,0.15,9.95,0.0,0.0,0.0,0.02,-0.01,0.81,0.58,-2.4712645262585125e-14,1.1411319398297772e-13,4.200774528997102e-14
2.673429489135742,0.54,0.15,9.95,0.0,0.0,0.0,0.02,-0.01,0.81,0.58,-2.4712645262585125e-14,1.1411319398297772e-13,4.200774528997102e-14
2.674065589904785,0.54,0.11,9.98,0.0,0.0,0.0,0.02,-0.01,0.81,0.58,-2.4712645262585125e-14,1.1411319398297772e-13,4.200774528997102e-14
2.674628734588623,0.54,0.11,9.98,0.0,0.0,0.0,0.02,-0.01,0.81,0.58,-2.4712645262585125e-14,1.1411319398297772e-13,4.200774528997102e-14
2.6750917434692383,0.54,0.11,9.98,0.0,0.0,0.0,0.02,-0.01,0.81,0.58,-2.4712645262585125e-14,1.1411319398297772e-13,4.200774528997102e-14
2.675581216812134,0.54,0.11,9.98,0.0,0.0,0.0,0.02,-0.01,0.81,0.58,-2.4712645262585125e-14,1.1411319398297772e-13,4.200774528997102e-14
2.735490322113037,0.54,0.11,9.98,0.0,0.0,0.0,0.02,-0.01,0.81,0.58,-2.4712645262585125e-14,1.1411319398297772e-13,4.200774528997102e-14
2.7361888885498047,0.54,0.11,9.98,0.0,0.0,0.0,0.02,-0.01,0.81,0.58,-2.4712645262585125e-14,1.1411319398297772e-13,4.200774528997102e-14
2.7366952896118164,0.54,0.11,9.98,0.0,0.0,0.0,0.02,-0.01,0.81,0.58,-2.4712645262585125e-14,1.1411319398297772e-13,4.200774528997102e-14
2.737161636352539,0.54,0.11,9.98,0.0,0.0,0.0,0.02,-0.01,0.81,0.58,-2.4712645262585125e-14,1.1411319398297772e-13,4.200774528997102e-14
2.73759388923645,0.54,0.11,9.98,0.0,0.0,0.0,0.02,-0.01,0.81,0.58,-2.4712645262585125e-14,1.1411319398297772e-13,4.200774528997102e-14
2.7380833625793457,0.54,0.11,9.98,0.0,0.0,0.0,0.02,-0.01,0.81,0.58,-2.4712645262585125e-14,1.1411319398297772e-13,4.200774528997102e-14
2.738539934158325,0.54,0.11,9.98,0.0,0.0,0.0,0.02,-0.01,0.81,0.58,-2.4712645262585125e-14,1.1411319398297772e-13,4.200774528997102e-14
2.7389683723449707,0.54,0.11,9.98,0.0,0.0,0.0,0.02,-0.01,0.81,0.58,-2.4712645262585125e-14,1.1411319398297772e-13,4.200774528997102e-14
2.739488363265991,0.54,0.11,9.95,0.0,0.0,0.0,0.02,-0.01,0.81,0.58,-2.4712645262585125e-14,1.1411319398297772e-13,4.200774528997102e-14
2.7401342391967773,0.54,0.11,9.95,0.0,0.0,0.0,0.02,-0.01,0.81,0.58,-2.4712645262585125e-14,1.1411319398297772e-13,4.200774528997102e-14
2.7406044006347656,0.54,0.11,9.95,0.0,0.0,0.0,0.02,-0.01,0.81,0.58,-2.4712645262585125e-14,1.1411319398297772e-13,4.200774528997102e-14
2.741112470626831,0.54,0.11,9.95,0.0,0.0,0.0,0.02,-0.01,0.81,0.58,-2.4712645262585125e-14,1.1411319398297772e-13,4.200774528997102e-14
2.741594076156616,0.5,0.15,9.71,0.0,0.0,0.0,0.02,-0.01,0.81,0.58,-2.4712645262585125e-14,1.1411319398297772e-13,4.200774528997102e-14
2.7964277267456055,0.5,0.15,9.71,0.0,0.0,0.0,0.02,-0.01,0.81,0.58,-2.4712645262585125e-14,1.1411319398297772e-13,4.200774528997102e-14
2.797128200531006,0.5,0.15,9.71,0.0,0.0,0.0,0.02,-0.01,0.81,0.58,-2.4712645262585125e-14,1.1411319398297772e-13,4.200774528997102e-14
2.7977049350738525,0.5,0.15,9.71,0.0,0.0,0.0,0.02,-0.01,0.81,0.58,-2.4712645262585125e-14,1.1411319398297772e-13,4.200774528997102e-14
2.7983081340789795,0.5,0.15,9.71,0.0,0.0,0.0,0.02,-0.01,0.81,0.58,-2.4712645262585125e-14,1.1411319398297772e-13,4.200774528997102e-14
2.7989120483398438,0.5,0.15,9.71,0.0,0.0,0.0,0.02,-0.01,0.81,0.58,-2.4712645262585125e-14,1.1411319398297772e-13,4.200774528997102e-14
2.799513101577759,0.54,0.11,9.98,0.0,0.0,0.0,0.02,-0.01,0.81,0.58,-2.4712645262585125e-14,1.1411319398297772e-13,4.200774528997102e-14
2.8000285625457764,0.54,0.11,9.98,0.0,0.0,0.0,0.02,-0.01,0.81,0.58,-2.4712645262585125e-14,1.1411319398297772e-13,4.200774528997102e-14
2.800548553466797,0.54,0.11,9.98,0.0,0.0,0.0,0.02,-0.01,0.81,0.58,-2.4712645262585125e-14,1.1411319398297772e-13,4.200774528997102e-14
2.8010575771331787,0.54,0.11,9.98,0.0,0.0,0.0,0.02,-0.01,0.81,0.58,-2.4712645262585125e-14,1.1411319398297772e-13,4.200774528997102e-14
2.801525831222534,0.54,0.11,9.98,0.0,0.0,0.0,0.02,-0.01,0.81,0.58,-2.4712645262585125e-14,1.1411319398297772e-13,4.200774528997102e-14
2.8020811080932617,0.54,0.11,9.98,0.0,0.0,0.0,0.02,-0.01,0.81,0.58,-2.4712645262585125e-14,1.1411319398297772e-13,4.200774528997102e-14
2.8027164936065674,0.54,0.11,9.98,0.0,0.0,0.0,0.02,-0.01,0.81,0.58,-2.4712645262585125e-14,1.1411319398297772e-13,4.200774528997102e-14
2.8032710552215576,0.54,0.11,9.98,0.0,0.0,0.0,0.02,-0.01,0.81,0.58,-2.4712645262585125e-14,1.1411319398297772e-13,4.200774528997102e-14
2.8037660121917725,0.38,0.19,9.64,0.0,0.0,0.0,0.02,-0.01,0.81,0.58,-2.4712645262585125e-14,1.1411319398297772e-13,4.200774528997102e-14
2.8626770973205566,0.38,0.19,9.64,0.0,0.0,0.0,0.02,-0.01,0.81,0.58,-2.4712645262585125e-14,1.1411319398297772e-13,4.200774528997102e-14
2.863368034362793,0.38,0.19,9.64,0.0,0.0,0.0,0.02,-0.01,0.81,0.58,-2.4712645262585125e-14,1.1411319398297772e-13,4.200774528997102e-14
2.8639423847198486,0.38,0.19,9.64,0.0,0.0,0.0,0.02,-0.01,0.81,0.58,-2.4712645262585125e-14,1.1411319398297772e-13,4.200774528997102e-14
2.8644731044769287,0.38,0.19,9.64,0.0,0.0,0.0,0.02,-0.01,0.81,0.58,-2.4712645262585125e-14,1.1411319398297772e-13,4.200774528997102e-14
2.8650131225585938,0.38,0.19,9.64,0.0,0.0,0.0,0.02,-0.01,0.81,0.58,-2.4712645262585125e-14,1.1411319398297772e-13,4.200774528997102e-14
2.8654866218566895,0.46,0.15,9.79,0.0,0.0,0.0,0.02,-0.01,0.81,0.58,-2.4712645262585125e-14,1.1411319398297772e-13,4.200774528997102e-14
2.865954875946045,0.46,0.15,9.79,0.0,0.0,0.0,0.02,-0.01,0.81,0.58,-2.4712645262585125e-14,1.1411319398297772e-13,4.200774528997102e-14
2.8663828372955322,0.46,0.15,9.79,0.0,0.0,0.0,0.02,-0.01,0.81,0.58,-2.4712645262585125e-14,1.1411319398297772e-13,4.200774528997102e-14
2.866807460784912,0.46,0.15,9.79,0.0,0.0,0.0,0.02,-0.01,0.81,0.58,-2.4712645262585125e-14,1.1411319398297772e-13,4.200774528997102e-14
2.8673083782196045,0.46,0.15,9.79,0.0,0.0,0.0,0.02,-0.01,0.81,0.58,-2.4712645262585125e-14,1.1411319398297772e-13,4.200774528997102e-14
2.867846727371216,0.46,0.15,9.79,0.0,0.0,0.0,0.02,-0.01,0.81,0.58,-2.4712645262585125e-14,1.1411319398297772e-13,4.200774528997102e-14
2.868277072906494,0.46,0.19,9.75,0.0,0.0,0.0,0.02,-0.01,0.81,0.58,-2.4712645262585125e-14,1.1411319398297772e-13,4.200774528997102e-14
2.868727207183838,0.46,0.19,9.75,0.0,0.0,0.0,0.02,-0.01,0.81,0.58,-2.4712645262585125e-14,1.1411319398297772e-13,4.200774528997102e-14
2.8691561222076416,0.46,0.19,9.75,0.0,0.0,0.0,0.02,-0.01,0.81,0.58,-2.4712645262585125e-14,1.1411319398297772e-13,4.200774528997102e-14
2.869603157043457,0.46,0.19,9.75,0.0,0.0,0.0,0.02,-0.01,0.81,0.58,-2.4712645262585125e-14,1.1411319398297772e-13,4.200774528997102e-14
2.9282190799713135,0.5,0.15,9.87,0.0,0.0,0.0,0.02,-0.01,0.81,0.58,-2.4712645262585125e-14,1.1411319398297772e-13,4.200774528997102e-14
2.929044246673584,0.5,0.15,9.87,0.0,0.0,0.0,0.02,-0.01,0.81,0.58,-2.4712645262585125e-14,1.1411319398297772e-13,4.200774528997102e-14
2.929593086242676,0.5,0.15,9.87,0.0,0.0,0.0,0.02,-0.01,0.81,0.58,-2.4712645262585125e-14,1.1411319398297772e-13,4.200774528997102e-14
2.930039405822754,0.5,0.15,9.87,0.0,0.0,0.0,0.02,-0.01,0.81,0.58,-2.4712645262585125e-14,1.1411319398297772e-13,4.200774528997102e-14
2.930633306503296,0.5,0.15,9.87,0.0,0.0,0.0,0.02,-0.01,0.81,0.58,-2.4712645262585125e-14,1.1411319398297772e-13,4.200774528997102e-14
2.9310343265533447,0.5,0.15,9.87,0.0,0.0,0.0,0.02,-0.01,0.81,0.58,-2.4712645262585125e-14,1.1411319398297772e-13,4.200774528997102e-14
2.9314358234405518,0.5,0.15,9.87,0.0,0.0,0.0,0.02,-0.01,0.81,0.58,-2.4712645262585125e-14,1.1411319398297772e-13,4.200774528997102e-14
2.9318044185638428,0.5,0.15,9.87,0.0,0.0,0.0,0.02,-0.01,0.81,0.58,-2.4712645262585125e-14,1.1411319398297772e-13,4.200774528997102e-14
2.9322304725646973,0.5,0.15,9.75,0.0,0.0,0.0,0.02,-0.01,0.81,0.58,-2.4712645262585125e-14,1.1411319398297772e-13,4.200774528997102e-14
2.9326863288879395,0.5,0.15,9.75,0.0,0.0,0.0,0.02,-0.01,0.81,0.58,-2.4712645262585125e-14,1.1411319398297772e-13,4.200774528997102e-14
2.9330945014953613,0.5,0.15,9.75,0.0,0.0,0.0,0.02,-0.01,0.81,0.58,-2.4712645262585125e-14,1.1411319398297772e-13,4.200774528997102e-14
2.9334683418273926,0.5,0.15,9.75,0.0,0.0,0.0,0.02,-0.01,0.81,0.58,-2.4712645262585125e-14,1.1411319398297772e-13,4.200774528997102e-14
2.933835029602051,0.5,0.15,9.75,0.0,0.0,0.0,0.02,-0.01,0.81,0.58,-2.4712645262585125e-14,1.1411319398297772e-13,4.200774528997102e-14
2.93426775932312,0.5,0.15,9.75,0.0,0.0,0.0,0.02,-0.01,0.81,0.58,-2.4712645262585125e-14,1.1411319398297772e-13,4.200774528997102e-14
2.9922380447387695,0.5,0.15,9.98,0.0,0.0,0.0,0.02,-0.01,0.81,0.58,-2.4712645262585125e-14,1.1411319398297772e-13,4.200774528997102e-14
2.992877960205078,0.5,0.15,9.98,0.0,0.0,0.0,0.02,-0.01,0.81,0.58,-2.4712645262585125e-14,1.1411319398297772e-13,4.200774528997102e-14
2.9933884143829346,0.5,0.15,9.98,0.0,0.0,0.0,0.02,-0.01,0.81,0.58,-2.4712645262585125e-14,1.1411319398297772e-13,4.200774528997102e-14
2.9938738346099854,0.5,0.15,9.98,0.0,0.0,0.0,0.02,-0.01,0.81,0.58,-2.4712645262585125e-14,1.1411319398297772e-13,4.200774528997102e-14
2.9943017959594727,0.5,0.15,9.98,0.0,0.0,0.0,0.02,-0.01,0.81,0.58,-2.4712645262585125e-14,1.1411319398297772e-13,4.200774528997102e-14
2.9948391914367676,0.5,0.15,9.98,0.0,0.0,0.0,0.02,-0.01,0.81,0.58,-2.4712645262585125e-14,1.1411319398297772e-13,4.200774528997102e-14
2.995316743850708,0.42,0.15,9.75,0.0,0.0,0.0,0.02,-0.01,0.81,0.58,-2.4712645262585125e-14,1.1411319398297772e-13,4.200774528997102e-14
2.995767593383789,0.42,0.15,9.75,0.0,0.0,0.0,0.02,-0.01,0.81,0.58,-2.4712645262585125e-14,1.1411319398297772e-13,4.200774528997102e-14
2.996227502822876,0.42,0.15,9.75,0.0,0.0,0.0,0.02,-0.01,0.81,0.58,-2.4712645262585125e-14,1.1411319398297772e-13,4.200774528997102e-14
2.997159242630005,0.42,0.15,9.75,0.0,0.0,0.0,0.02,-0.01,0.81,0.58,-2.4712645262585125e-14,1.1411319398297772e-13,4.200774528997102e-14
2.9976634979248047,0.42,0.15,9.75,0.0,0.0,0.0,0.02,-0.01,0.81,0.58,-2.4712645262585125e-14,1.1411319398297772e-13,4.200774528997102e-14
2.9980859756469727,0.42,0.15,9.75,0.0,0.0,0.0,0.02,-0.01,0.81,0.58,-2.4712645262585125e-14,1.1411319398297772e-13,4.200774528997102e-14
3.0550248622894287,0.42,0.15,9.75,0.0,0.0,0.0,0.02,-0.01,0.81,0.58,-2.4712645262585125e-14,1.1411319398297772e-13,4.200774528997102e-14
3.055626153945923,0.42,0.15,9.75,0.0,0.0,0.0,0.02,-0.01,0.81,0.58,-2.4712645262585125e-14,1.1411319398297772e-13,4.200774528997102e-14
3.056173324584961,0.3,0.19,9.29,0.0,0.0,0.0,0.02,-0.01,0.81,0.58,-2.4712645262585125e-14,1.1411319398297772e-13,4.200774528997102e-14
3.056605339050293,0.3,0.19,9.29,0.0,0.0,0.0,0.02,-0.01,0.81,0.58,-2.4712645262585125e-14,1.1411319398297772e-13,4.200774528997102e-14
3.057053804397583,0.3,0.19,9.29,0.0,0.0,0.0,0.02,-0.01,0.81,0.58,-2.4712645262585125e-14,1.1411319398297772e-13,4.200774528997102e-14
3.0574722290039062,0.3,0.19,9.29,0.0,0.0,0.0,0.02,-0.01,0.81,0.58,-2.4712645262585125e-14,1.1411319398297772e-13,4.200774528997102e-14
3.0579004287719727,0.3,0.19,9.29,0.0,0.0,0.0,0.02,-0.01,0.81,0.58,-2.4712645262585125e-14,1.1411319398297772e-13,4.200774528997102e-14
3.0583388805389404,0.3,0.19,9.29,0.0,0.0,0.0,0.02,-0.01,0.81,0.58,-2.4712645262585125e-14,1.1411319398297772e-13,4.200774528997102e-14
3.0588150024414062,0.3,0.19,9.29,0.0,0.0,0.0,0.02,-0.01,0.81,0.58,-2.4712645262585125e-14,1.1411319398297772e-13,4.200774528997102e-14
3.059324026107788,0.3,0.19,9.29,0.0,0.0,0.0,0.02,-0.01,0.81,0.58,-2.4712645262585125e-14,1.1411319398297772e-13,4.200774528997102e-14
3.0598626136779785,0.5,0.19,9.79,0.0,0.0,0.0,0.02,-0.01,0.81,0.58,-2.4712645262585125e-14,1.1411319398297772e-13,4.200774528997102e-14
3.0603127479553223,0.5,0.19,9.79,0.0,0.0,0.0,0.02,-0.01,0.81,0.58,-2.4712645262585125e-14,1.1411319398297772e-13,4.200774528997102e-14
3.0607385635375977,0.5,0.19,9.79,0.0,0.0,0.0,0.02,-0.01,0.81,0.58,-2.4712645262585125e-14,1.1411319398297772e-13,4.200774528997102e-14
3.061202049255371,0.5,0.19,9.79,0.0,0.0,0.0,0.02,-0.01,0.81,0.58,-2.4712645262585125e-14,1.1411319398297772e-13,4.200774528997102e-14
3.0616278648376465,0.5,0.19,9.79,0.0,0.0,0.0,0.02,-0.01,0.81,0.58,-2.4712645262585125e-14,1.1411319398297772e-13,4.200774528997102e-14
3.1232171058654785,0.5,0.19,9.79,0.0,0.0,0.0,0.02,-0.01,0.81,0.58,-2.4712645262585125e-14,1.1411319398297772e-13,4.200774528997102e-14
3.1238207817077637,0.54,0.07,9.91,0.0,0.0,0.0,0.02,-0.01,0.81,0.58,-2.4712645262585125e-14,1.1411319398297772e-13,4.200774528997102e-14
3.1243271827697754,0.54,0.07,9.91,0.0,0.0,0.0,0.02,-0.01,0.81,0.58,-2.4712645262585125e-14,1.1411319398297772e-13,4.200774528997102e-14
3.124835252761841,0.54,0.07,9.91,0.0,0.0,0.0,0.02,-0.01,0.81,0.58,-2.4712645262585125e-14,1.1411319398297772e-13,4.200774528997102e-14
3.125298023223877,0.54,0.07,9.91,0.0,0.0,0.0,0.02,-0.01,0.81,0.58,-2.4712645262585125e-14,1.1411319398297772e-13,4.200774528997102e-14
3.1257152557373047,0.54,0.07,9.91,0.0,0.0,0.0,0.02,-0.01,0.81,0.58,-2.4712645262585125e-14,1.1411319398297772e-13,4.200774528997102e-14
3.1261632442474365,0.54,0.07,9.91,0.0,0.0,0.0,0.02,-0.01,0.81,0.58,-2.4712645262585125e-14,1.1411319398297772e-13,4.200774528997102e-14
3.126587390899658,0.54,0.07,9.91,0.0,0.0,0.0,0.02,-0.01,0.81,0.58,-2.4712645262585125e-14,1.1411319398297772e-13,4.200774528997102e-14
3.127119779586792,0.54,0.07,9.91,0.0,0.0,0.0,0.02,-0.01,0.81,0.58,-2.4712645262585125e-14,1.1411319398297772e-13,4.200774528997102e-14
3.1275510787963867,0.54,0.07,9.91,0.0,0.0,0.0,0.02,-0.01,0.81,0.58,-2.4712645262585125e-14,1.1411319398297772e-13,4.200774528997102e-14
3.128018856048584,0.54,0.07,9.91,0.0,0.0,0.0,0.02,-0.01,0.81,0.58,-2.4712645262585125e-14,1.1411319398297772e-13,4.200774528997102e-14
3.1284708976745605,0.54,0.07,9.91,0.0,0.0,0.0,0.02,-0.01,0.81,0.58,-2.4712645262585125e-14,1.1411319398297772e-13,4.200774528997102e-14
3.1289048194885254,0.54,0.07,9.91,0.0,0.0,0.0,0.02,-0.01,0.81,0.58,-2.4712645262585125e-14,1.1411319398297772e-13,4.200774528997102e-14
3.129380702972412,0.5,0.15,9.95,0.0,0.0,0.0,0.02,-0.01,0.81,0.58,-2.4712645262585125e-14,1.1411319398297772e-13,4.200774528997102e-14
3.1300997734069824,0.5,0.15,9.95,0.0,0.0,0.0,0.02,-0.01,0.81,0.58,-2.4712645262585125e-14,1.1411319398297772e-13,4.200774528997102e-14
3.1923563480377197,0.5,0.15,9.95,0.0,0.0,0.0,0.02,-0.01,0.81,0.58,-2.4712645262585125e-14,1.1411319398297772e-13,4.200774528997102e-14
3.1930906772613525,0.5,0.15,9.95,0.0,0.0,0.0,0.02,-0.01,0.81,0.58,-2.4712645262585125e-14,1.1411319398297772e-13,4.200774528997102e-14
3.1935949325561523,0.5,0.15,9.95,0.0,0.0,0.0,0.02,-0.01,0.81,0.58,-2.4712645262585125e-14,1.1411319398297772e-13,4.200774528997102e-14
3.194031238555908,0.5,0.15,9.95,0.0,0.0,0.0,0.02,-0.01,0.81,0.58,-2.4712645262585125e-14,1.1411319398297772e-13,4.200774528997102e-14
3.1944315433502197,0.42,0.19,9.75,0.0,0.0,0.0,0.02,-0.01,0.81,0.58,-2.4712645262585125e-14,1.1411319398297772e-13,4.200774528997102e-14
3.194807767868042,0.42,0.19,9.75,0.0,0.0,0.0,0.02,-0.01,0.81,0.58,-2.4712645262585125e-14,1.1411319398297772e-13,4.200774528997102e-14
3.1952335834503174,0.42,0.19,9.75,0.0,0.0,0.0,0.02,-0.01,0.81,0.58,-2.4712645262585125e-14,1.1411319398297772e-13,4.200774528997102e-14
3.1956472396850586,0.42,0.19,9.75,0.0,0.0,0.0,0.02,-0.01,0.81,0.58,-2.4712645262585125e-14,1.1411319398297772e-13,4.200774528997102e-14
3.196028232574463,0.42,0.19,9.75,0.0,0.0,0.0,0.02,-0.01,0.81,0.58,-2.4712645262585125e-14,1.1411319398297772e-13,4.200774528997102e-14
3.1964621543884277,0.42,0.19,9.75,0.0,0.0,0.0,0.02,-0.01,0.81,0.58,-2.4712645262585125e-14,1.1411319398297772e-13,4.200774528997102e-14
3.196892499923706,0.42,0.19,9.75,0.0,0.0,0.0,0.02,-0.01,0.81,0.58,-2.4712645262585125e-14,1.1411319398297772e-13,4.200774528997102e-14
3.197364568710327,0.42,0.19,9.75,0.0,0.0,0.0,0.02,-0.01,0.81,0.58,-2.4712645262585125e-14,1.1411319398297772e-13,4.200774528997102e-14
3.1977734565734863,0.46,0.15,9.79,0.0,0.0,0.0,0.02,-0.01,0.81,0.58,-2.4712645262585125e-14,1.1411319398297772e-13,4.200774528997102e-14
3.258991241455078,0.46,0.15,9.79,0.0,0.0,0.0,0.02,-0.01,0.81,0.58,-2.4712645262585125e-14,1.1411319398297772e-13,4.200774528997102e-14
3.2596275806427,0.46,0.15,9.79,0.0,0.0,0.0,0.02,-0.01,0.81,0.58,-2.4712645262585125e-14,1.1411319398297772e-13,4.200774528997102e-14
3.2602365016937256,0.46,0.15,9.79,0.0,0.0,0.0,0.02,-0.01,0.81,0.58,-2.4712645262585125e-14,1.1411319398297772e-13,4.200774528997102e-14
3.260831594467163,0.46,0.15,9.79,0.0,0.0,0.0,0.02,-0.01,0.81,0.58,-2.4712645262585125e-14,1.1411319398297772e-13,4.200774528997102e-14
3.26137113571167,0.46,0.15,9.79,0.0,0.0,0.0,0.02,-0.01,0.81,0.58,-2.4712645262585125e-14,1.1411319398297772e-13,4.200774528997102e-14
3.26203989982605,0.46,0.11,9.87,0.0,0.0,0.0,0.02,-0.01,0.81,0.58,-2.4712645262585125e-14,1.1411319398297772e-13,4.200774528997102e-14
3.2625961303710938,0.46,0.11,9.87,0.0,0.0,0.0,0.02,-0.01,0.81,0.58,-2.4712645262585125e-14,1.1411319398297772e-13,4.200774528997102e-14
3.263190746307373,0.46,0.11,9.87,0.0,0.0,0.0,0.02,-0.01,0.81,0.58,-2.4712645262585125e-14,1.1411319398297772e-13,4.200774528997102e-14
3.263680934906006,0.46,0.11,9.87,0.0,0.0,0.0,0.02,-0.01,0.81,0.58,-2.4712645262585125e-14,1.1411319398297772e-13,4.200774528997102e-14
3.2641587257385254,0.46,0.11,9.87,0.0,0.0,0.0,0.02,-0.01,0.81,0.58,-2.4712645262585125e-14,1.1411319398297772e-13,4.200774528997102e-14
3.264630079269409,0.46,0.11,9.87,0.0,0.0,0.0,0.02,-0.01,0.81,0.58,-2.4712645262585125e-14,1.1411319398297772e-13,4.200774528997102e-14
3.2652535438537598,0.5,0.15,9.79,0.0,0.0,0.0,0.02,-0.01,0.81,0.58,-2.4712645262585125e-14,1.1411319398297772e-13,4.200774528997102e-14
3.2657244205474854,0.5,0.15,9.79,0.0,0.0,0.0,0.02,-0.01,0.81,0.58,-2.4712645262585125e-14,1.1411319398297772e-13,4.200774528997102e-14
3.266352891921997,0.5,0.15,9.79,0.0,0.0,0.0,0.02,-0.01,0.81,0.58,-2.4712645262585125e-14,1.1411319398297772e-13,4.200774528997102e-14
3.2668838500976562,0.5,0.15,9.79,0.0,0.0,0.0,0.02,-0.01,0.81,0.58,-2.4712645262585125e-14,1.1411319398297772e-13,4.200774528997102e-14
3.267359495162964,0.5,0.15,9.79,0.0,0.0,0.0,0.02,-0.01,0.81,0.58,-2.4712645262585125e-14,1.1411319398297772e-13,4.200774528997102e-14
3.2679452896118164,0.5,0.15,9.79,0.0,0.0,0.0,0.02,-0.01,0.81,0.58,-2.4712645262585125e-14,1.1411319398297772e-13,4.200774528997102e-14
3.330207109451294,0.5,0.15,9.79,0.0,0.0,0.0,0.02,-0.01,0.81,0.58,-2.4712645262585125e-14,1.1411319398297772e-13,4.200774528997102e-14
3.330850124359131,0.5,0.15,9.79,0.0,0.0,0.0,0.02,-0.01,0.81,0.58,-2.4712645262585125e-14,1.1411319398297772e-13,4.200774528997102e-14
3.33135724067688,0.54,0.19,9.87,0.0,0.0,0.0,0.02,-0.01,0.81,0.58,-2.4712645262585125e-14,1.1411319398297772e-13,4.200774528997102e-14
3.331841230392456,0.54,0.19,9.87,0.0,0.0,0.0,0.02,-0.01,0.81,0.58,-2.4712645262585125e-14,1.1411319398297772e-13,4.200774528997102e-14
3.3322529792785645,0.54,0.19,9.87,0.0,0.0,0.0,0.02,-0.01,0.81,0.58,-2.4712645262585125e-14,1.1411319398297772e-13,4.200774528997102e-14
3.3326733112335205,0.54,0.19,9.87,0.0,0.0,0.0,0.02,-0.01,0.81,0.58,-2.4712645262585125e-14,1.1411319398297772e-13,4.200774528997102e-14
3.3331387042999268,0.54,0.11,9.95,0.0,0.0,0.0,0.02,-0.01,0.81,0.58,-2.4712645262585125e-14,1.1411319398297772e-13,4.200774528997102e-14
3.3335940837860107,0.54,0.11,9.95,0.0,0.0,0.0,0.02,-0.01,0.81,0.58,-2.4712645262585125e-14,1.1411319398297772e-13,4.200774528997102e-14
3.335301399230957,0.54,0.11,9.95,0.0,0.0,0.0,0.02,-0.01,0.81,0.58,-2.4712645262585125e-14,1.1411319398297772e-13,4.200774528997102e-14
3.3358254432678223,0.54,0.11,9.95,0.0,0.0,0.0,0.02,-0.01,0.81,0.58,-2.4712645262585125e-14,1.1411319398297772e-13,4.200774528997102e-14
3.3362908363342285,0.54,0.11,9.95,0.0,0.0,0.0,0.02,-0.01,0.81,0.58,-2.4712645262585125e-14,1.1411319398297772e-13,4.200774528997102e-14
3.3367481231689453,0.54,0.11,9.95,0.0,0.0,0.0,0.02,-0.01,0.81,0.58,-2.4712645262585125e-14,1.1411319398297772e-13,4.200774528997102e-14
3.337209701538086,0.46,0.19,9.75,0.0,0.0,0.0,0.02,-0.01,0.81,0.58,-2.4712645262585125e-14,1.1411319398297772e-13,4.200774528997102e-14
3.3377139568328857,0.46,0.19,9.75,0.0,0.0,0.0,0.02,-0.01,0.81,0.58,-2.4712645262585125e-14,1.1411319398297772e-13,4.200774528997102e-14
3.338329553604126,0.46,0.19,9.75,0.0,0.0,0.0,0.02,-0.01,0.81,0.58,-2.4712645262585125e-14,1.1411319398297772e-13,4.200774528997102e-14
3.39913010597229,0.46,0.19,9.75,0.0,0.0,0.0,0.02,-0.01,0.81,0.58,-2.4712645262585125e-14,1.1411319398297772e-13,4.200774528997102e-14
3.3997344970703125,0.46,0.19,9.75,0.0,0.0,0.0,0.02,-0.01,0.81,0.58,-2.4712645262585125e-14,1.1411319398297772e-13,4.200774528997102e-14
3.4002685546875,0.46,0.19,9.75,0.0,0.0,0.0,0.02,-0.01,0.81,0.58,-2.4712645262585125e-14,1.1411319398297772e-13,4.200774528997102e-14
3.40067195892334,0.38,0.15,9.71,0.0,0.0,0.0,0.02,-0.01,0.81,0.58,-2.4712645262585125e-14,1.1411319398297772e-13,4.200774528997102e-14
3.401102304458618,0.38,0.15,9.71,0.0,0.0,0.0,0.02,-0.01,0.81,0.58,-2.4712645262585125e-14,1.1411319398297772e-13,4.200774528997102e-14
3.4014699459075928,0.38,0.15,9.71,0.0,0.0,0.0,0.02,-0.01,0.81,0.58,-2.4712645262585125e-14,1.1411319398297772e-13,4.200774528997102e-14
3.401843786239624,0.38,0.15,9.71,0.0,0.0,0.0,0.02,-0.01,0.81,0.58,-2.4712645262585125e-14,1.1411319398297772e-13,4.200774528997102e-14
3.4022440910339355,0.38,0.15,9.71,0.0,0.0,0.0,0.02,-0.01,0.81,0.58,-2.4712645262585125e-14,1.1411319398297772e-13,4.200774528997102e-14
3.4026026725769043,0.38,0.15,9.71,0.0,0.0,0.0,0.02,-0.01,0.81,0.58,-2.4712645262585125e-14,1.1411319398297772e-13,4.200774528997102e-14
3.4029762744903564,0.38,0.15,9.71,0.0,0.0,0.0,0.02,-0.01,0.81,0.58,-2.4712645262585125e-14,1.1411319398297772e-13,4.200774528997102e-14
3.4033498764038086,0.38,0.15,9.71,0.0,0.0,0.0,0.02,-0.01,0.81,0.58,-2.4712645262585125e-14,1.1411319398297772e-13,4.200774528997102e-14
3.403700590133667,0.46,0.15,9.75,0.0,0.0,0.0,0.02,-0.01,0.81,0.58,-2.4712645262585125e-14,1.1411319398297772e-13,4.200774528997102e-14
3.4041240215301514,0.46,0.15,9.75,0.0,0.0,0.0,0.02,-0.01,0.81,0.58,-2.4712645262585125e-14,1.1411319398297772e-13,4.200774528997102e-14
3.464900255203247,0.46,0.15,9.75,0.0,0.0,0.0,0.02,-0.01,0.81,0.58,-2.4712645262585125e-14,1.1411319398297772e-13,4.200774528997102e-14
3.4655086994171143,0.46,0.15,9.75,0.0,0.0,0.0,0.02,-0.01,0.81,0.58,-2.4712645262585125e-14,1.1411319398297772e-13,4.200774528997102e-14
3.4660398960113525,0.46,0.15,9.75,0.0,0.0,0.0,0.02,-0.01,0.81,0.58,-2.4712645262585125e-14,1.1411319398297772e-13,4.200774528997102e-14
3.4664878845214844,0.46,0.15,9.75,0.0,0.0,0.0,0.02,-0.01,0.81,0.58,-2.4712645262585125e-14,1.1411319398297772e-13,4.200774528997102e-14
3.466959238052368,0.54,0.15,9.75,0.0,0.0,0.0,0.02,-0.01,0.81,0.58,-2.4712645262585125e-14,1.1411319398297772e-13,4.200774528997102e-14
3.467388391494751,0.54,0.15,9.75,0.0,0.0,0.0,0.02,-0.01,0.81,0.58,-2.4712645262585125e-14,1.1411319398297772e-13,4.200774528997102e-14
3.467806339263916,0.54,0.15,9.75,0.0,0.0,0.0,0.02,-0.01,0.81,0.58,-2.4712645262585125e-14,1.1411319398297772e-13,4.200774528997102e-14
3.468223810195923,0.54,0.15,9.75,0.0,0.0,0.0,0.02,-0.01,0.81,0.58,-2.4712645262585125e-14,1.1411319398297772e-13,4.200774528997102e-14
3.4686439037323,0.54,0.15,9.75,0.0,0.0,0.0,0.02,-0.01,0.81,0.58,-2.4712645262585125e-14,1.1411319398297772e-13,4.200774528997102e-14
3.469069480895996,0.54,0.15,9.75,0.0,0.0,0.0,0.02,-0.01,0.81,0.58,-2.4712645262585125e-14,1.1411319398297772e-13,4.200774528997102e-14
3.4694724082946777,0.46,0.15,9.71,0.0,0.0,0.0,0.02,-0.01,0.81,0.58,-2.4712645262585125e-14,1.1411319398297772e-13,4.200774528997102e-14
3.469965696334839,0.46,0.15,9.71,0.0,0.0,0.0,0.02,-0.01,0.81,0.58,-2.4712645262585125e-14,1.1411319398297772e-13,4.200774528997102e-14
3.470421075820923,0.46,0.15,9.71,0.0,0.0,0.0,0.02,-0.01,0.81,0.58,-2.4712645262585125e-14,1.1411319398297772e-13,4.200774528997102e-14
3.4708573818206787,0.46,0.15,9.71,0.0,0.0,0.0,0.02,-0.01,0.81,0.58,-2.4712645262585125e-14,1.1411319398297772e-13,4.200774528997102e-14
3.471325159072876,0.46,0.15,9.71,0.0,0.0,0.0,0.02,-0.01,0.81,0.58,-2.4712645262585125e-14,1.1411319398297772e-13,4.200774528997102e-14
3.4717893600463867,0.46,0.15,9.71,0.0,0.0,0.0,0.02,-0.01,0.81,0.58,-2.4712645262585125e-14,1.1411319398297772e-13,4.200774528997102e-14
3.5320732593536377,0.46,0.15,9.71,0.0,0.0,0.0,0.02,-0.01,0.81,0.58,-2.4712645262585125e-14,1.1411319398297772e-13,4.200774528997102e-14
3.5326976776123047,0.46,0.15,9.71,0.0,0.0,0.0,0.02,-0.01,0.81,0.58,-2.4712645262585125e-14,1.1411319398297772e-13,4.200774528997102e-14
3.5331711769104004,0.54,0.11,9.87,0.0,0.0,0.0,0.02,-0.01,0.81,0.58,-2.4712645262585125e-14,1.1411319398297772e-13,4.200774528997102e-14
3.5336050987243652,0.54,0.11,9.87,0.0,0.0,0.0,0.02,-0.01,0.81,0.58,-2.4712645262585125e-14,1.1411319398297772e-13,4.200774528997102e-14
3.534193515777588,0.54,0.11,9.87,0.0,0.0,0.0,0.02,-0.01,0.81,0.58,-2.4712645262585125e-14,1.1411319398297772e-13,4.200774528997102e-14
3.53483247756958,0.54,0.11,9.87,0.0,0.0,0.0,0.02,-0.01,0.81,0.58,-2.4712645262585125e-14,1.1411319398297772e-13,4.200774528997102e-14
3.5354557037353516,0.54,0.11,9.87,0.0,0.0,0.0,0.02,-0.01,0.81,0.58,-2.4712645262585125e-14,1.1411319398297772e-13,4.200774528997102e-14
3.53594708442688,0.54,0.11,9.87,0.0,0.0,0.0,0.02,-0.01,0.81,0.58,-2.4712645262585125e-14,1.1411319398297772e-13,4.200774528997102e-14
3.5364506244659424,0.57,0.15,9.95,0.0,0.0,0.0,0.02,-0.01,0.81,0.58,-2.4712645262585125e-14,1.1411319398297772e-13,4.200774528997102e-14
3.536928176879883,0.57,0.15,9.95,0.0,0.0,0.0,0.02,-0.01,0.81,0.58,-2.4712645262585125e-14,1.1411319398297772e-13,4.200774528997102e-14
3.5374300479888916,0.57,0.15,9.95,0.0,0.0,0.0,0.02,-0.01,0.81,0.58,-2.4712645262585125e-14,1.1411319398297772e-13,4.200774528997102e-14
3.5379719734191895,0.57,0.15,9.95,0.0,0.0,0.0,0.02,-0.01,0.81,0.58,-2.4712645262585125e-14,1.1411319398297772e-13,4.200774528997102e-14
3.538527011871338,0.57,0.15,9.95,0.0,0.0,0.0,0.02,-0.01,0.81,0.58,-2.4712645262585125e-14,1.1411319398297772e-13,4.200774528997102e-14
3.5389838218688965,0.57,0.15,9.95,0.0,0.0,0.0,0.02,-0.01,0.81,0.58,-2.4712645262585125e-14,1.1411319398297772e-13,4.200774528997102e-14
3.5978915691375732,0.46,0.15,9.79,0.0,0.0,0.0,0.02,-0.01,0.81,0.58,-2.4712645262585125e-14,1.1411319398297772e-13,4.200774528997102e-14
3.598494052886963,0.46,0.15,9.79,0.0,0.0,0.0,0.02,-0.01,0.81,0.58,-2.4712645262585125e-14,1.1411319398297772e-13,4.200774528997102e-14
3.598989486694336,0.46,0.15,9.79,0.0,0.0,0.0,0.02,-0.01,0.81,0.58,-2.4712645262585125e-14,1.1411319398297772e-13,4.200774528997102e-14
3.599409818649292,0.46,0.15,9.79,0.0,0.0,0.0,0.02,-0.01,0.81,0.58,-2.4712645262585125e-14,1.1411319398297772e-13,4.200774528997102e-14
3.599893093109131,0.46,0.15,9.79,0.0,0.0,0.0,0.02,-0.01,0.81,0.58,-2.4712645262585125e-14,1.1411319398297772e-13,4.200774528997102e-14
3.600358009338379,0.46,0.15,9.79,0.0,0.0,0.0,0.02,-0.01,0.81,0.58,-2.4712645262585125e-14,1.1411319398297772e-13,4.200774528997102e-14
3.600802421569824,0.46,0.15,9.79,0.0,0.0,0.0,0.02,-0.01,0.81,0.58,-2.4712645262585125e-14,1.1411319398297772e-13,4.200774528997102e-14
3.601221799850464,0.46,0.15,9.79,0.0,0.0,0.0,0.02,-0.01,0.81,0.58,-2.4712645262585125e-14,1.1411319398297772e-13,4.200774528997102e-14
3.601623058319092,0.46,0.15,9.79,0.0,0.0,0.0,0.02,-0.01,0.81,0.58,-2.4712645262585125e-14,1.1411319398297772e-13,4.200774528997102e-14
3.602100372314453,0.46,0.15,9.79,0.0,0.0,0.0,0.02,-0.01,0.81,0.58,-2.4712645262585125e-14,1.1411319398297772e-13,4.200774528997102e-14
3.6606810092926025,0.42,0.11,9.75,0.0,0.0,0.0,0.02,-0.01,0.81,0.58,-2.4712645262585125e-14,1.1411319398297772e-13,4.200774528997102e-14
3.661278486251831,0.42,0.11,9.75,0.0,0.0,0.0,0.02,-0.01,0.81,0.58,-2.4712645262585125e-14,1.1411319398297772e-13,4.200774528997102e-14
3.6617987155914307,0.42,0.11,9.75,0.0,0.0,0.0,0.02,-0.01,0.81,0.58,-2.4712645262585125e-14,1.1411319398297772e-13,4.200774528997102e-14
3.662247657775879,0.42,0.11,9.75,0.0,0.0,0.0,0.02,-0.01,0.81,0.58,-2.4712645262585125e-14,1.1411319398297772e-13,4.200774528997102e-14
3.6627650260925293,0.42,0.11,9.75,0.0,0.0,0.0,0.02,-0.01,0.81,0.58,-2.4712645262585125e-14,1.1411319398297772e-13,4.200774528997102e-14
3.6632041931152344,0.42,0.11,9.75,0.0,0.0,0.0,0.02,-0.01,0.81,0.58,-2.4712645262585125e-14,1.1411319398297772e-13,4.200774528997102e-14
3.663630962371826,0.54,0.11,9.87,0.0,0.0,0.0,0.02,-0.01,0.81,0.58,-2.4712645262585125e-14,1.1411319398297772e-13,4.200774528997102e-14
3.6641173362731934,0.54,0.11,9.87,0.0,0.0,0.0,0.02,-0.01,0.81,0.58,-2.4712645262585125e-14,1.1411319398297772e-13,4.200774528997102e-14
3.664513111114502,0.54,0.11,9.87,0.0,0.0,0.0,0.02,-0.01,0.81,0.58,-2.4712645262585125e-14,1.1411319398297772e-13,4.200774528997102e-14
3.664900064468384,0.54,0.11,9.87,0.0,0.0,0.0,0.02,-0.01,0.81,0.58,-2.4712645262585125e-14,1.1411319398297772e-13,4.200774528997102e-14
3.665351152420044,0.54,0.11,9.87,0.0,0.0,0.0,0.02,-0.01,0.81,0.58,-2.4712645262585125e-14,1.1411319398297772e-13,4.200774528997102e-14
3.665738344192505,0.54,0.11,9.87,0.0,0.0,0.0,0.02,-0.01,0.81,0.58,-2.4712645262585125e-14,1.1411319398297772e-13,4.200774528997102e-14
3.6661481857299805,0.5,0.15,9.91,0.0,0.0,0.0,0.02,-0.01,0.81,0.58,-2.4712645262585125e-14,1.1411319398297772e-13,4.200774528997102e-14
3.666518449783325,0.5,0.15,9.91,0.0,0.0,0.0,0.02,-0.01,0.81,0.58,-2.4712645262585125e-14,1.1411319398297772e-13,4.200774528997102e-14
3.666898727416992,0.5,0.15,9.91,0.0,0.0,0.0,0.02,-0.01,0.81,0.58,-2.4712645262585125e-14,1.1411319398297772e-13,4.200774528997102e-14
3.667306900024414,0.5,0.15,9.91,0.0,0.0,0.0,0.02,-0.01,0.81,0.58,-2.4712645262585125e-14,1.1411319398297772e-13,4.200774528997102e-14
3.667687177658081,0.5,0.15,9.91,0.0,0.0,0.0,0.02,-0.01,0.81,0.58,-2.4712645262585125e-14,1.1411319398297772e-13,4.200774528997102e-14
3.6681482791900635,0.5,0.15,9.91,0.0,0.0,0.0,0.02,-0.01,0.81,0.58,-2.4712645262585125e-14,1.1411319398297772e-13,4.200774528997102e-14
3.728097438812256,0.57,0.19,9.83,0.0,0.0,0.0,0.02,-0.01,0.81,0.58,-2.4712645262585125e-14,1.1411319398297772e-13,4.200774528997102e-14
3.7289693355560303,0.57,0.19,9.83,0.0,0.0,0.0,0.02,-0.01,0.81,0.58,-2.4712645262585125e-14,1.1411319398297772e-13,4.200774528997102e-14
3.7297074794769287,0.57,0.19,9.83,0.0,0.0,0.0,0.02,-0.01,0.81,0.58,-2.4712645262585125e-14,1.1411319398297772e-13,4.200774528997102e-14
3.7302117347717285,0.57,0.19,9.83,0.0,0.0,0.0,0.02,-0.01,0.81,0.58,-2.4712645262585125e-14,1.1411319398297772e-13,4.200774528997102e-14
3.7306160926818848,0.54,0.19,9.87,0.0,0.0,0.0,0.02,-0.01,0.81,0.58,-2.4712645262585125e-14,1.1411319398297772e-13,4.200774528997102e-14
3.731001377105713,0.54,0.19,9.87,0.0,0.0,0.0,0.02,-0.01,0.81,0.58,-2.4712645262585125e-14,1.1411319398297772e-13,4.200774528997102e-14
3.7313759326934814,0.54,0.19,9.87,0.0,0.0,0.0,0.02,-0.01,0.81,0.58,-2.4712645262585125e-14,1.1411319398297772e-13,4.200774528997102e-14
3.73181414604187,0.54,0.19,9.87,0.0,0.0,0.0,0.02,-0.01,0.81,0.58,-2.4712645262585125e-14,1.1411319398297772e-13,4.200774528997102e-14
3.732193946838379,0.54,0.19,9.87,0.0,0.0,0.0,0.02,-0.01,0.81,0.58,-2.4712645262585125e-14,1.1411319398297772e-13,4.200774528997102e-14
3.732583999633789,0.54,0.19,9.87,0.0,0.0,0.0,0.02,-0.01,0.81,0.58,-2.4712645262585125e-14,1.1411319398297772e-13,4.200774528997102e-14
3.7329630851745605,0.46,0.15,9.87,0.0,0.0,0.0,0.02,-0.01,0.81,0.58,-2.4712645262585125e-14,1.1411319398297772e-13,4.200774528997102e-14
3.7333431243896484,0.46,0.15,9.87,0.0,0.0,0.0,0.02,-0.01,0.81,0.58,-2.4712645262585125e-14,1.1411319398297772e-13,4.200774528997102e-14
3.733774185180664,0.46,0.15,9.87,0.0,0.0,0.0,0.02,-0.01,0.81,0.58,-2.4712645262585125e-14,1.1411319398297772e-13,4.200774528997102e-14
3.734151840209961,0.46,0.15,9.87,0.0,0.0,0.0,0.02,-0.01,0.81,0.58,-2.4712645262585125e-14,1.1411319398297772e-13,4.200774528997102e-14
3.7941513061523438,0.46,0.15,9.87,0.0,0.0,0.0,0.02,-0.01,0.81,0.58,-2.4712645262585125e-14,1.1411319398297772e-13,4.200774528997102e-14
3.794835329055786,0.46,0.15,9.87,0.0,0.0,0.0,0.02,-0.01,0.81,0.58,-2.4712645262585125e-14,1.1411319398297772e-13,4.200774528997102e-14
3.7954306602478027,0.46,0.15,9.87,0.0,0.0,0.0,0.02,-0.01,0.81,0.58,-2.4712645262585125e-14,1.1411319398297772e-13,4.200774528997102e-14
3.7959511280059814,0.46,0.15,9.87,0.0,0.0,0.0,0.02,-0.01,0.81,0.58,-2.4712645262585125e-14,1.1411319398297772e-13,4.200774528997102e-14
3.7964255809783936,0.42,0.15,9.75,0.0,0.0,0.0,0.02,-0.01,0.81,0.58,-2.4712645262585125e-14,1.1411319398297772e-13,4.200774528997102e-14
3.7969884872436523,0.42,0.15,9.75,0.0,0.0,0.0,0.02,-0.01,0.81,0.58,-2.4712645262585125e-14,1.1411319398297772e-13,4.200774528997102e-14
3.797466278076172,0.42,0.15,9.75,0.0,0.0,0.0,0.02,-0.01,0.81,0.58,-2.4712645262585125e-14,1.1411319398297772e-13,4.200774528997102e-14
3.798020839691162,0.42,0.15,9.75,0.0,0.0,0.0,0.02,-0.01,0.81,0.58,-2.4712645262585125e-14,1.1411319398297772e-13,4.200774528997102e-14
3.7986698150634766,0.42,0.15,9.75,0.0,0.0,0.0,0.02,-0.01,0.81,0.58,-2.4712645262585125e-14,1.1411319398297772e-13,4.200774528997102e-14
3.7991795539855957,0.42,0.15,9.75,0.0,0.0,0.0,0.02,-0.01,0.81,0.58,-2.4712645262585125e-14,1.1411319398297772e-13,4.200774528997102e-14
3.799574375152588,0.57,0.11,9.99,0.0,0.0,0.0,0.02,-0.01,0.81,0.58,-2.4712645262585125e-14,1.1411319398297772e-13,4.200774528997102e-14
3.79992938041687,0.57,0.11,9.99,0.0,0.0,0.0,0.02,-0.01,0.81,0.58,-2.4712645262585125e-14,1.1411319398297772e-13,4.200774528997102e-14
3.8002774715423584,0.57,0.11,9.99,0.0,0.0,0.0,0.02,-0.01,0.81,0.58,-2.4712645262585125e-14,1.1411319398297772e-13,4.200774528997102e-14
3.800654649734497,0.57,0.11,9.99,0.0,0.0,0.0,0.02,-0.01,0.81,0.58,-2.4712645262585125e-14,1.1411319398297772e-13,4.200774528997102e-14
3.801003932952881,0.5,0.15,9.83,0.0,0.0,0.0,0.02,-0.01,0.81,0.58,-2.4712645262585125e-14,1.1411319398297772e-13,4.200774528997102e-14
3.8607337474823,0.5,0.15,9.83,0.0,0.0,0.0,0.02,-0.01,0.81,0.58,-2.4712645262585125e-14,1.1411319398297772e-13,4.200774528997102e-14
3.8614253997802734,0.5,0.15,9.83,0.0,0.0,0.0,0.02,-0.01,0.81,0.58,-2.4712645262585125e-14,1.1411319398297772e-13,4.200774528997102e-14
3.8619487285614014,0.5,0.15,9.83,0.0,0.0,0.0,0.02,-0.01,0.81,0.58,-2.4712645262585125e-14,1.1411319398297772e-13,4.200774528997102e-14
3.8624043464660645,0.5,0.15,9.83,0.0,0.0,0.0,0.02,-0.01,0.81,0.58,-2.4712645262585125e-14,1.1411319398297772e-13,4.200774528997102e-14
3.8628299236297607,0.5,0.15,9.83,0.0,0.0,0.0,0.02,-0.01,0.81,0.58,-2.4712645262585125e-14,1.1411319398297772e-13,4.200774528997102e-14
3.8632583618164062,0.5,0.15,9.83,0.0,0.0,0.0,0.02,-0.01,0.81,0.58,-2.4712645262585125e-14,1.1411319398297772e-13,4.200774528997102e-14
3.863673210144043,0.5,0.15,9.83,0.0,0.0,0.0,0.02,-0.01,0.81,0.58,-2.4712645262585125e-14,1.1411319398297772e-13,4.200774528997102e-14
3.864165782928467,0.42,0.19,9.75,0.0,0.0,0.0,0.02,-0.01,0.81,0.58,-2.4712645262585125e-14,1.1411319398297772e-13,4.200774528997102e-14
3.8645946979522705,0.42,0.19,9.75,0.0,0.0,0.0,0.02,-0.01,0.81,0.58,-2.4712645262585125e-14,1.1411319398297772e-13,4.200774528997102e-14
3.865046739578247,0.42,0.19,9.75,0.0,0.0,0.0,0.02,-0.01,0.81,0.58,-2.4712645262585125e-14,1.1411319398297772e-13,4.200774528997102e-14
3.86545991897583,0.42,0.19,9.75,0.0,0.0,0.0,0.02,-0.01,0.81,0.58,-2.4712645262585125e-14,1.1411319398297772e-13,4.200774528997102e-14
3.865870714187622,0.54,0.15,9.91,0.0,0.0,0.0,0.02,-0.01,0.81,0.58,-2.4712645262585125e-14,1.1411319398297772e-13,4.200774528997102e-14
3.8663320541381836,0.54,0.15,9.91,0.0,0.0,0.0,0.02,-0.01,0.81,0.58,-2.4712645262585125e-14,1.1411319398297772e-13,4.200774528997102e-14
3.8668100833892822,0.54,0.15,9.91,0.0,0.0,0.0,0.02,-0.01,0.81,0.58,-2.4712645262585125e-14,1.1411319398297772e-13,4.200774528997102e-14
3.9280598163604736,0.54,0.15,9.91,0.0,0.0,0.0,0.02,-0.01,0.81,0.58,-2.4712645262585125e-14,1.1411319398297772e-13,4.200774528997102e-14
3.92873215675354,0.54,0.15,9.91,0.0,0.0,0.0,0.02,-0.01,0.81,0.58,-2.4712645262585125e-14,1.1411319398297772e-13,4.200774528997102e-14
3.9292795658111572,0.54,0.15,9.91,0.0,0.0,0.0,0.02,-0.01,0.81,0.58,-2.4712645262585125e-14,1.1411319398297772e-13,4.200774528997102e-14
3.9297564029693604,0.54,0.15,9.91,0.0,0.0,0.0,0.02,-0.01,0.81,0.58,-2.4712645262585125e-14,1.1411319398297772e-13,4.200774528997102e-14
3.9301929473876953,0.54,0.15,9.91,0.0,0.0,0.0,0.02,-0.01,0.81,0.58,-2.4712645262585125e-14,1.1411319398297772e-13,4.200774528997102e-14
3.930659055709839,0.54,0.19,9.95,0.0,0.0,0.0,0.02,-0.01,0.81,0.58,-2.4712645262585125e-14,1.1411319398297772e-13,4.200774528997102e-14
3.9313251972198486,0.54,0.19,9.95,0.0,0.0,0.0,0.02,-0.01,0.81,0.58,-2.4712645262585125e-14,1.1411319398297772e-13,4.200774528997102e-14
3.9319300651550293,0.54,0.19,9.95,0.0,0.0,0.0,0.02,-0.01,0.81,0.58,-2.4712645262585125e-14,1.1411319398297772e-13,4.200774528997102e-14
3.9326086044311523,0.54,0.19,9.95,0.0,0.0,0.0,0.02,-0.01,0.81,0.58,-2.4712645262585125e-14,1.1411319398297772e-13,4.200774528997102e-14
3.933098077774048,0.54,0.19,9.95,0.0,0.0,0.0,0.02,-0.01,0.81,0.58,-2.4712645262585125e-14,1.1411319398297772e-13,4.200774528997102e-14
3.9335403442382812,0.54,0.19,9.95,0.0,0.0,0.0,0.02,-0.01,0.81,0.58,-2.4712645262585125e-14,1.1411319398297772e-13,4.200774528997102e-14
3.9339919090270996,0.54,0.19,9.95,0.0,0.0,0.0,0.02,-0.01,0.81,0.58,-2.4712645262585125e-14,1.1411319398297772e-13,4.200774528997102e-14
3.9344232082366943,0.54,0.19,9.95,0.0,0.0,0.0,0.02,-0.01,0.81,0.58,-2.4712645262585125e-14,1.1411319398297772e-13,4.200774528997102e-14
3.935136079788208,0.54,0.19,9.95,0.0,0.0,0.0,0.02,-0.01,0.81,0.58,-2.4712645262585125e-14,1.1411319398297772e-13,4.200774528997102e-14
3.935694694519043,0.54,0.19,9.95,0.0,0.0,0.0,0.02,-0.01,0.81,0.58,-2.4712645262585125e-14,1.1411319398297772e-13,4.200774528997102e-14
3.9362497329711914,0.54,0.19,9.95,0.0,0.0,0.0,0.02,-0.01,0.81,0.58,-2.4712645262585125e-14,1.1411319398297772e-13,4.200774528997102e-14
3.9367542266845703,0.54,0.19,9.95,0.0,0.0,0.0,0.02,-0.01,0.81,0.58,-2.4712645262585125e-14,1.1411319398297772e-13,4.200774528997102e-14
3.994673728942871,0.54,0.19,9.91,0.0,0.0,0.0,0.02,-0.01,0.81,0.58,-2.4712645262585125e-14,1.1411319398297772e-13,4.200774528997102e-14
3.9953548908233643,0.54,0.19,9.91,0.0,0.0,0.0,0.02,-0.01,0.81,0.58,-2.4712645262585125e-14,1.1411319398297772e-13,4.200774528997102e-14
3.9960289001464844,0.54,0.19,9.91,0.0,0.0,0.0,0.02,-0.01,0.81,0.58,-2.4712645262585125e-14,1.1411319398297772e-13,4.200774528997102e-14
3.996504783630371,0.54,0.19,9.91,0.0,0.0,0.0,0.02,-0.01,0.81,0.58,-2.4712645262585125e-14,1.1411319398297772e-13,4.200774528997102e-14
3.9969027042388916,0.42,0.15,9.75,0.0,0.0,0.0,0.02,-0.01,0.81,0.58,-2.4712645262585125e-14,1.1411319398297772e-13,4.200774528997102e-14
3.9973204135894775,0.42,0.15,9.75,0.0,0.0,0.0,0.02,-0.01,0.81,0.58,-2.4712645262585125e-14,1.1411319398297772e-13,4.200774528997102e-14
3.9980459213256836,0.42,0.15,9.75,0.0,0.0,0.0,0.02,-0.01,0.81,0.58,-2.4712645262585125e-14,1.1411319398297772e-13,4.200774528997102e-14
3.99861741065979,0.42,0.15,9.75,0.0,0.0,0.0,0.02,-0.01,0.81,0.58,-2.4712645262585125e-14,1.1411319398297772e-13,4.200774528997102e-14
3.999075174331665,0.42,0.15,9.75,0.0,0.0,0.0,0.02,-0.01,0.81,0.58,-2.4712645262585125e-14,1.1411319398297772e-13,4.200774528997102e-14
3.999601364135742,0.42,0.15,9.75,0.0,0.0,0.0,0.02,-0.01,0.81,0.58,-2.4712645262585125e-14,1.1411319398297772e-13,4.200774528997102e-14
4.000057935714722,0.54,0.15,9.83,0.0,0.0,0.0,0.02,-0.01,0.81,0.58,-2.4712645262585125e-14,1.1411319398297772e-13,4.200774528997102e-14
4.000523805618286,0.54,0.15,9.83,0.0,0.0,0.0,0.02,-0.01,0.81,0.58,-2.4712645262585125e-14,1.1411319398297772e-13,4.200774528997102e-14
4.054679870605469,0.54,0.15,9.83,0.0,0.0,0.0,0.02,-0.01,0.81,0.58,-2.4712645262585125e-14,1.1411319398297772e-13,4.200774528997102e-14
4.055347442626953,0.54,0.15,9.83,0.0,0.0,0.0,0.02,-0.01,0.81,0.58,-2.4712645262585125e-14,1.1411319398297772e-13,4.200774528997102e-14
4.055863380432129,0.54,0.15,9.83,0.0,0.0,0.0,0.02,-0.01,0.81,0.58,-2.4712645262585125e-14,1.1411319398297772e-13,4.200774528997102e-14
4.056315183639526,0.54,0.15,9.83,0.0,0.0,0.0,0.02,-0.01,0.81,0.58,-2.4712645262585125e-14,1.1411319398297772e-13,4.200774528997102e-14
4.0567309856414795,0.54,0.15,9.83,0.0,0.0,0.0,0.02,-0.01,0.81,0.58,-2.4712645262585125e-14,1.1411319398297772e-13,4.200774528997102e-14
4.057286500930786,0.54,0.15,9.83,0.0,0.0,0.0,0.02,-0.01,0.81,0.58,-2.4712645262585125e-14,1.1411319398297772e-13,4.200774528997102e-14
4.057729244232178,0.42,0.15,9.68,0.0,0.0,0.0,0.02,-0.01,0.81,0.58,-2.4712645262585125e-14,1.1411319398297772e-13,4.200774528997102e-14
4.058112859725952,0.42,0.15,9.68,0.0,0.0,0.0,0.02,-0.01,0.81,0.58,-2.4712645262585125e-14,1.1411319398297772e-13,4.200774528997102e-14
4.058501243591309,0.42,0.15,9.68,0.0,0.0,0.0,0.02,-0.01,0.81,0.58,-2.4712645262585125e-14,1.1411319398297772e-13,4.200774528997102e-14
4.058906078338623,0.42,0.15,9.68,0.0,0.0,0.0,0.02,-0.01,0.81,0.58,-2.4712645262585125e-14,1.1411319398297772e-13,4.200774528997102e-14
4.0593719482421875,0.42,0.15,9.68,0.0,0.0,0.0,0.02,-0.01,0.81,0.58,-2.4712645262585125e-14,1.1411319398297772e-13,4.200774528997102e-14
4.111754655838013,0.42,0.15,9.68,0.0,0.0,0.0,0.02,-0.01,0.81,0.58,-2.4712645262585125e-14,1.1411319398297772e-13,4.200774528997102e-14
4.112402439117432,0.42,0.15,9.68,0.0,0.0,0.0,0.02,-0.01,0.81,0.58,-2.4712645262585125e-14,1.1411319398297772e-13,4.200774528997102e-14
4.112891674041748,0.42,0.15,9.68,0.0,0.0,0.0,0.02,-0.01,0.81,0.58,-2.4712645262585125e-14,1.1411319398297772e-13,4.200774528997102e-14
4.113356351852417,0.5,0.11,9.87,0.0,0.0,0.0,0.02,-0.01,0.81,0.58,-2.4712645262585125e-14,1.1411319398297772e-13,4.200774528997102e-14
4.113790512084961,0.5,0.11,9.87,0.0,0.0,0.0,0.02,-0.01,0.81,0.58,-2.4712645262585125e-14,1.1411319398297772e-13,4.200774528997102e-14
4.11421537399292,0.5,0.11,9.87,0.0,0.0,0.0,0.02,-0.01,0.81,0.58,-2.4712645262585125e-14,1.1411319398297772e-13,4.200774528997102e-14
4.1147074699401855,0.5,0.11,9.87,0.0,0.0,0.0,0.02,-0.01,0.81,0.58,-2.4712645262585125e-14,1.1411319398297772e-13,4.200774528997102e-14
4.115130662918091,0.5,0.11,9.87,0.0,0.0,0.0,0.02,-0.01,0.81,0.58,-2.4712645262585125e-14,1.1411319398297772e-13,4.200774528997102e-14
4.11555027961731,0.5,0.11,9.87,0.0,0.0,0.0,0.02,-0.01,0.81,0.58,-2.4712645262585125e-14,1.1411319398297772e-13,4.200774528997102e-14
4.1159656047821045,0.42,0.15,9.68,0.0,0.0,0.0,0.02,-0.01,0.81,0.58,-2.4712645262585125e-14,1.1411319398297772e-13,4.200774528997102e-14
4.116424322128296,0.42,0.15,9.68,0.0,0.0,0.0,0.02,-0.01,0.81,0.58,-2.4712645262585125e-14,1.1411319398297772e-13,4.200774528997102e-14
4.116828203201294,0.42,0.15,9.68,0.0,0.0,0.0,0.02,-0.01,0.81,0.58,-2.4712645262585125e-14,1.1411319398297772e-13,4.200774528997102e-14
4.1683454513549805,0.42,0.15,9.68,0.0,0.0,0.0,0.02,-0.01,0.81,0.58,-2.4712645262585125e-14,1.1411319398297772e-13,4.200774528997102e-14
4.169041156768799,0.42,0.15,9.68,0.0,0.0,0.0,0.02,-0.01,0.81,0.58,-2.4712645262585125e-14,1.1411319398297772e-13,4.200774528997102e-14
4.169543743133545,0.42,0.15,9.68,0.0,0.0,0.0,0.02,-0.01,0.81,0.58,-2.4712645262585125e-14,1.1411319398297772e-13,4.200774528997102e-14
4.1700599193573,0.42,0.15,9.68,0.0,0.0,0.0,0.02,-0.01,0.81,0.58,-2.4712645262585125e-14,1.1411319398297772e-13,4.200774528997102e-14
4.170520544052124,0.42,0.15,9.68,0.0,0.0,0.0,0.02,-0.01,0.81,0.58,-2.4712645262585125e-14,1.1411319398297772e-13,4.200774528997102e-14
4.171036243438721,0.5,0.19,9.83,0.0,0.0,0.0,0.02,-0.01,0.81,0.58,-2.4712645262585125e-14,1.1411319398297772e-13,4.200774528997102e-14
4.171516418457031,0.5,0.19,9.83,0.0,0.0,0.0,0.02,-0.01,0.81,0.58,-2.4712645262585125e-14,1.1411319398297772e-13,4.200774528997102e-14
4.17200779914856,0.5,0.19,9.83,0.0,0.0,0.0,0.02,-0.01,0.81,0.58,-2.4712645262585125e-14,1.1411319398297772e-13,4.200774528997102e-14
4.172540664672852,0.5,0.19,9.83,0.0,0.0,0.0,0.02,-0.01,0.81,0.58,-2.4712645262585125e-14,1.1411319398297772e-13,4.200774528997102e-14
4.172956705093384,0.5,0.19,9.83,0.0,0.0,0.0,0.02,-0.01,0.81,0.58,-2.4712645262585125e-14,1.1411319398297772e-13,4.200774528997102e-14
4.173421382904053,0.5,0.19,9.83,0.0,0.0,0.0,0.02,-0.01,0.81,0.58,-2.4712645262585125e-14,1.1411319398297772e-13,4.200774528997102e-14
4.1738526821136475,0.5,0.19,9.83,0.0,0.0,0.0,0.02,-0.01,0.81,0.58,-2.4712645262585125e-14,1.1411319398297772e-13,4.200774528997102e-14
4.174317359924316,0.5,0.19,9.83,0.0,0.0,0.0,0.02,-0.01,0.81,0.58,-2.4712645262585125e-14,1.1411319398297772e-13,4.200774528997102e-14
4.22692084312439,0.42,0.11,9.68,0.0,0.0,0.0,0.02,-0.01,0.81,0.58,-2.4712645262585125e-14,1.1411319398297772e-13,4.200774528997102e-14
4.2275989055633545,0.42,0.11,9.68,0.0,0.0,0.0,0.02,-0.01,0.81,0.58,-2.4712645262585125e-14,1.1411319398297772e-13,4.200774528997102e-14
4.228154182434082,0.42,0.11,9.68,0.0,0.0,0.0,0.02,-0.01,0.81,0.58,-2.4712645262585125e-14,1.1411319398297772e-13,4.200774528997102e-14
4.228602409362793,0.42,0.11,9.68,0.0,0.0,0.0,0.02,-0.01,0.81,0.58,-2.4712645262585125e-14,1.1411319398297772e-13,4.200774528997102e-14
4.229069471359253,0.42,0.11,9.68,0.0,0.0,0.0,0.02,-0.01,0.81,0.58,-2.4712645262585125e-14,1.1411319398297772e-13,4.200774528997102e-14
4.229495286941528,0.42,0.11,9.68,0.0,0.0,0.0,0.02,-0.01,0.81,0.58,-2.4712645262585125e-14,1.1411319398297772e-13,4.200774528997102e-14
4.229975700378418,0.57,0.15,9.91,0.0,0.0,0.0,0.02,-0.01,0.81,0.58,-2.4712645262585125e-14,1.1411319398297772e-13,4.200774528997102e-14
4.230407953262329,0.57,0.15,9.91,0.0,0.0,0.0,0.02,-0.01,0.81,0.58,-2.4712645262585125e-14,1.1411319398297772e-13,4.200774528997102e-14
4.230870962142944,0.57,0.15,9.91,0.0,0.0,0.0,0.02,-0.01,0.81,0.58,-2.4712645262585125e-14,1.1411319398297772e-13,4.200774528997102e-14
4.231396913528442,0.57,0.15,9.91,0.0,0.0,0.0,0.02,-0.01,0.81,0.58,-2.4712645262585125e-14,1.1411319398297772e-13,4.200774528997102e-14
4.231894254684448,0.57,0.15,9.91,0.0,0.0,0.0,0.02,-0.01,0.81,0.58,-2.4712645262585125e-14,1.1411319398297772e-13,4.200774528997102e-14
4.232456922531128,0.57,0.15,9.91,0.0,0.0,0.0,0.02,-0.01,0.81,0.58,-2.4712645262585125e-14,1.1411319398297772e-13,4.200774528997102e-14
4.2329325675964355,0.5,0.15,9.95,0.0,0.0,0.0,0.02,-0.01,0.81,0.58,-2.4712645262585125e-14,1.1411319398297772e-13,4.200774528997102e-14
4.285022497177124,0.5,0.15,9.95,0.0,0.0,0.0,0.02,-0.01,0.81,0.58,-2.4712645262585125e-14,1.1411319398297772e-13,4.200774528997102e-14
4.28577184677124,0.5,0.15,9.95,0.0,0.0,0.0,0.02,-0.01,0.81,0.58,-2.4712645262585125e-14,1.1411319398297772e-13,4.200774528997102e-14
4.286492586135864,0.5,0.15,9.95,0.0,0.0,0.0,0.02,-0.01,0.81,0.58,-2.4712645262585125e-14,1.1411319398297772e-13,4.200774528997102e-14
4.286967039108276,0.5,0.15,9.95,0.0,0.0,0.0,0.02,-0.01,0.81,0.58,-2.4712645262585125e-14,1.1411319398297772e-13,4.200774528997102e-14
4.287400007247925,0.5,0.15,9.95,0.0,0.0,0.0,0.02,-0.01,0.81,0.58,-2.4712645262585125e-14,1.1411319398297772e-13,4.200774528997102e-14
4.287854909896851,0.5,0.15,9.95,0.0,0.0,0.0,0.02,-0.01,0.81,0.58,-2.4712645262585125e-14,1.1411319398297772e-13,4.200774528997102e-14
4.288265705108643,0.5,0.15,9.95,0.0,0.0,0.0,0.02,-0.01,0.81,0.58,-2.4712645262585125e-14,1.1411319398297772e-13,4.200774528997102e-14
4.288719892501831,0.57,0.11,9.99,0.0,0.0,0.0,0.02,-0.01,0.81,0.58,-2.4712645262585125e-14,1.1411319398297772e-13,4.200774528997102e-14
4.289158821105957,0.57,0.11,9.99,0.0,0.0,0.0,0.02,-0.01,0.81,0.58,-2.4712645262585125e-14,1.1411319398297772e-13,4.200774528997102e-14
4.289610147476196,0.57,0.11,9.99,0.0,0.0,0.0,0.02,-0.01,0.81,0.58,-2.4712645262585125e-14,1.1411319398297772e-13,4.200774528997102e-14
4.290064334869385,0.57,0.11,9.99,0.0,0.0,0.0,0.02,-0.01,0.81,0.58,-2.4712645262585125e-14,1.1411319398297772e-13,4.200774528997102e-14
4.34335732460022,0.57,0.11,9.99,0.0,0.0,0.0,0.02,-0.01,0.81,0.58,-2.4712645262585125e-14,1.1411319398297772e-13,4.200774528997102e-14
4.344029426574707,0.57,0.11,9.99,0.0,0.0,0.0,0.02,-0.01,0.81,0.58,-2.4712645262585125e-14,1.1411319398297772e-13,4.200774528997102e-14
4.344521999359131,0.57,0.11,9.99,0.0,0.0,0.0,0.02,-0.01,0.81,0.58,-2.4712645262585125e-14,1.1411319398297772e-13,4.200774528997102e-14
4.345019102096558,0.57,0.11,9.99,0.0,0.0,0.0,0.02,-0.01,0.81,0.58,-2.4712645262585125e-14,1.1411319398297772e-13,4.200774528997102e-14
4.34543514251709,0.57,0.11,9.99,0.0,0.0,0.0,0.02,-0.01,0.81,0.58,-2.4712645262585125e-14,1.1411319398297772e-13,4.200774528997102e-14
4.345935106277466,0.57,0.11,9.99,0.0,0.0,0.0,0.02,-0.01,0.81,0.58,-2.4712645262585125e-14,1.1411319398297772e-13,4.200774528997102e-14
4.346401691436768,0.42,0.15,9.68,0.0,0.0,0.0,0.02,-0.01,0.81,0.58,-2.4712645262585125e-14,1.1411319398297772e-13,4.200774528997102e-14
4.346824884414673,0.42,0.15,9.68,0.0,0.0,0.0,0.02,-0.01,0.81,0.58,-2.4712645262585125e-14,1.1411319398297772e-13,4.200774528997102e-14
4.347278594970703,0.42,0.15,9.68,0.0,0.0,0.0,0.02,-0.01,0.81,0.58,-2.4712645262585125e-14,1.1411319398297772e-13,4.200774528997102e-14
4.347710609436035,0.42,0.15,9.68,0.0,0.0,0.0,0.02,-0.01,0.81,0.58,-2.4712645262585125e-14,1.1411319398297772e-13,4.200774528997102e-14
4.348235845565796,0.42,0.15,9.68,0.0,0.0,0.0,0.02,-0.01,0.81,0.58,-2.4712645262585125e-14,1.1411319398297772e-13,4.200774528997102e-14
4.348719120025635,0.42,0.15,9.68,0.0,0.0,0.0,0.02,-0.01,0.81,0.58,-2.4712645262585125e-14,1.1411319398297772e-13,4.200774528997102e-14
4.400981903076172,0.42,0.15,9.68,0.0,0.0,0.0,0.02,-0.01,0.81,0.58,-2.4712645262585125e-14,1.1411319398297772e-13,4.200774528997102e-14
4.401639938354492,0.42,0.15,9.68,0.0,0.0,0.0,0.02,-0.01,0.81,0.58,-2.4712645262585125e-14,1.1411319398297772e-13,4.200774528997102e-14
4.4021570682525635,0.42,0.15,9.68,0.0,0.0,0.0,0.02,-0.01,0.81,0.58,-2.4712645262585125e-14,1.1411319398297772e-13,4.200774528997102e-14
4.40261173248291,0.42,0.15,9.68,0.0,0.0,0.0,0.02,-0.01,0.81,0.58,-2.4712645262585125e-14,1.1411319398297772e-13,4.200774528997102e-14
4.403019905090332,0.42,0.15,9.68,0.0,0.0,0.0,0.02,-0.01,0.81,0.58,-2.4712645262585125e-14,1.1411319398297772e-13,4.200774528997102e-14
4.403472423553467,0.42,0.15,9.68,0.0,0.0,0.0,0.02,-0.01,0.81,0.58,-2.4712645262585125e-14,1.1411319398297772e-13,4.200774528997102e-14
4.403951168060303,0.5,0.11,9.95,0.0,0.0,0.0,0.02,-0.01,0.81,0.58,-2.4712645262585125e-14,1.1411319398297772e-13,4.200774528997102e-14
4.404402256011963,0.5,0.11,9.95,0.0,0.0,0.0,0.02,-0.01,0.81,0.58,-2.4712645262585125e-14,1.1411319398297772e-13,4.200774528997102e-14
4.404836654663086,0.5,0.11,9.95,0.0,0.0,0.0,0.02,-0.01,0.81,0.58,-2.4712645262585125e-14,1.1411319398297772e-13,4.200774528997102e-14
4.405273675918579,0.5,0.11,9.95,0.0,0.0,0.0,0.02,-0.01,0.81,0.58,-2.4712645262585125e-14,1.1411319398297772e-13,4.200774528997102e-14
4.405697822570801,0.5,0.11,9.83,0.0,0.0,0.0,0.02,-0.01,0.81,0.58,-2.4712645262585125e-14,1.1411319398297772e-13,4.200774528997102e-14
4.4061119556427,0.5,0.11,9.83,0.0,0.0,0.0,0.02,-0.01,0.81,0.58,-2.4712645262585125e-14,1.1411319398297772e-13,4.200774528997102e-14
4.406580209732056,0.5,0.11,9.83,0.0,0.0,0.0,0.02,-0.01,0.81,0.58,-2.4712645262585125e-14,1.1411319398297772e-13,4.200774528997102e-14
4.458798170089722,0.5,0.11,9.83,0.0,0.0,0.0,0.02,-0.01,0.81,0.58,-2.4712645262585125e-14,1.1411319398297772e-13,4.200774528997102e-14
4.459539413452148,0.5,0.11,9.83,0.0,0.0,0.0,0.02,-0.01,0.81,0.58,-2.4712645262585125e-14,1.1411319398297772e-13,4.200774528997102e-14
4.46004843711853,0.5,0.11,9.83,0.0,0.0,0.0,0.02,-0.01,0.81,0.58,-2.4712645262585125e-14,1.1411319398297772e-13,4.200774528997102e-14
4.460495948791504,0.57,0.15,9.87,0.0,0.0,0.0,0.02,-0.01,0.81,0.58,-2.4712645262585125e-14,1.1411319398297772e-13,4.200774528997102e-14
4.460978031158447,0.57,0.15,9.87,0.0,0.0,0.0,0.02,-0.01,0.81,0.58,-2.4712645262585125e-14,1.1411319398297772e-13,4.200774528997102e-14
4.461451292037964,0.57,0.15,9.87,0.0,0.0,0.0,0.02,-0.01,0.81,0.58,-2.4712645262585125e-14,1.1411319398297772e-13,4.200774528997102e-14
4.4619574546813965,0.57,0.15,9.87,0.0,0.0,0.0,0.02,-0.01,0.81,0.58,-2.4712645262585125e-14,1.1411319398297772e-13,4.200774528997102e-14
4.462376594543457,0.46,0.23,9.87,0.0,0.0,0.0,0.02,-0.01,0.81,0.58,-2.4712645262585125e-14,1.1411319398297772e-13,4.200774528997102e-14
4.462846279144287,0.46,0.23,9.87,0.0,0.0,0.0,0.02,-0.01,0.81,0.58,-2.4712645262585125e-14,1.1411319398297772e-13,4.200774528997102e-14
4.4632744789123535,0.46,0.23,9.87,0.0,0.0,0.0,0.02,-0.01,0.81,0.58,-2.4712645262585125e-14,1.1411319398297772e-13,4.200774528997102e-14
4.463713884353638,0.46,0.23,9.87,0.0,0.0,0.0,0.02,-0.01,0.81,0.58,-2.4712645262585125e-14,1.1411319398297772e-13,4.200774528997102e-14
4.464127779006958,0.46,0.23,9.87,0.0,0.0,0.0,0.02,-0.01,0.81,0.58,-2.4712645262585125e-14,1.1411319398297772e-13,4.200774528997102e-14
4.5165417194366455,0.46,0.23,9.87,0.0,0.0,0.0,0.02,-0.01,0.81,0.58,-2.4712645262585125e-14,1.1411319398297772e-13,4.200774528997102e-14
4.51723051071167,0.54,0.19,9.95,0.0,0.0,0.0,0.02,-0.01,0.81,0.58,-2.4712645262585125e-14,1.1411319398297772e-13,4.200774528997102e-14
4.51774787902832,0.54,0.19,9.95,0.0,0.0,0.0,0.02,-0.01,0.81,0.58,-2.4712645262585125e-14,1.1411319398297772e-13,4.200774528997102e-14
4.518245220184326,0.54,0.19,9.95,0.0,0.0,0.0,0.02,-0.01,0.81,0.58,-2.4712645262585125e-14,1.1411319398297772e-13,4.200774528997102e-14
4.518678903579712,0.54,0.19,9.95,0.0,0.0,0.0,0.02,-0.01,0.81,0.58,-2.4712645262585125e-14,1.1411319398297772e-13,4.200774528997102e-14
4.519137859344482,0.54,0.19,9.95,0.0,0.0,0.0,0.02,-0.01,0.81,0.58,-2.4712645262585125e-14,1.1411319398297772e-13,4.200774528997102e-14
4.519557476043701,0.54,0.19,9.95,0.0,0.0,0.0,0.02,-0.01,0.81,0.58,-2.4712645262585125e-14,1.1411319398297772e-13,4.200774528997102e-14
4.519980430603027,0.54,0.19,9.95,0.0,0.0,0.0,0.02,-0.01,0.81,0.58,-2.4712645262585125e-14,1.1411319398297772e-13,4.200774528997102e-14
4.520483016967773,0.54,0.19,9.95,0.0,0.0,0.0,0.02,-0.01,0.81,0.58,-2.4712645262585125e-14,1.1411319398297772e-13,4.200774528997102e-14
4.5209596157073975,0.54,0.19,9.95,0.0,0.0,0.0,0.02,-0.01,0.81,0.58,-2.4712645262585125e-14,1.1411319398297772e-13,4.200774528997102e-14
4.521434545516968,0.54,0.19,9.95,0.0,0.0,0.0,0.02,-0.01,0.81,0.58,-2.4712645262585125e-14,1.1411319398297772e-13,4.200774528997102e-14
4.521849870681763,0.5,0.11,9.91,0.0,0.0,0.0,0.02,-0.01,0.81,0.58,-2.4712645262585125e-14,1.1411319398297772e-13,4.200774528997102e-14
4.57485556602478,0.5,0.11,9.91,0.0,0.0,0.0,0.02,-0.01,0.81,0.58,-2.4712645262585125e-14,1.1411319398297772e-13,4.200774528997102e-14
4.575645446777344,0.5,0.11,9.91,0.0,0.0,0.0,0.02,-0.01,0.81,0.58,-2.4712645262585125e-14,1.1411319398297772e-13,4.200774528997102e-14
4.576197862625122,0.5,0.11,9.91,0.0,0.0,0.0,0.02,-0.01,0.81,0.58,-2.4712645262585125e-14,1.1411319398297772e-13,4.200774528997102e-14
4.576647520065308,0.5,0.11,9.91,0.0,0.0,0.0,0.02,-0.01,0.81,0.58,-2.4712645262585125e-14,1.1411319398297772e-13,4.200774528997102e-14
4.577100515365601,0.5,0.11,9.91,0.0,0.0,0.0,0.02,-0.01,0.81,0.58,-2.4712645262585125e-14,1.1411319398297772e-13,4.200774528997102e-14
4.577615976333618,0.46,0.19,9.67,0.0,0.0,0.0,0.02,-0.01,0.81,0.58,-2.4712645262585125e-14,1.1411319398297772e-13,4.200774528997102e-14
4.5780603885650635,0.46,0.19,9.67,0.0,0.0,0.0,0.02,-0.01,0.81,0.58,-2.4712645262585125e-14,1.1411319398297772e-13,4.200774528997102e-14
4.578481674194336,0.46,0.19,9.67,0.0,0.0,0.0,0.02,-0.01,0.81,0.58,-2.4712645262585125e-14,1.1411319398297772e-13,4.200774528997102e-14
4.578925371170044,0.46,0.19,9.67,0.0,0.0,0.0,0.02,-0.01,0.81,0.58,-2.4712645262585125e-14,1.1411319398297772e-13,4.200774528997102e-14
4.579353094100952,0.46,0.19,9.67,0.0,0.0,0.0,0.02,-0.01,0.81,0.58,-2.4712645262585125e-14,1.1411319398297772e-13,4.200774528997102e-14
4.579791069030762,0.46,0.19,9.67,0.0,0.0,0.0,0.02,-0.01,0.81,0.58,-2.4712645262585125e-14,1.1411319398297772e-13,4.200774528997102e-14
4.63458776473999,0.46,0.19,9.67,0.0,0.0,0.0,0.02,-0.01,0.81,0.58,-2.4712645262585125e-14,1.1411319398297772e-13,4.200774528997102e-14
4.635258674621582,0.46,0.19,9.67,0.0,0.0,0.0,0.02,-0.01,0.81,0.58,-2.4712645262585125e-14,1.1411319398297772e-13,4.200774528997102e-14
4.635826349258423,0.46,0.19,9.67,0.0,0.0,0.0,0.02,-0.01,0.81,0.58,-2.4712645262585125e-14,1.1411319398297772e-13,4.200774528997102e-14
4.636276960372925,0.46,0.19,9.67,0.0,0.0,0.0,0.02,-0.01,0.81,0.58,-2.4712645262585125e-14,1.1411319398297772e-13,4.200774528997102e-14
4.636723756790161,0.57,0.11,9.91,0.0,0.0,0.0,0.02,-0.01,0.81,0.58,-2.4712645262585125e-14,1.1411319398297772e-13,4.200774528997102e-14
4.6371612548828125,0.57,0.11,9.91,0.0,0.0,0.0,0.02,-0.01,0.81,0.58,-2.4712645262585125e-14,1.1411319398297772e-13,4.200774528997102e-14
4.637578964233398,0.57,0.11,9.91,0.0,0.0,0.0,0.02,-0.01,0.81,0.58,-2.4712645262585125e-14,1.1411319398297772e-13,4.200774528997102e-14
4.638052701950073,0.57,0.11,9.91,0.0,0.0,0.0,0.02,-0.01,0.81,0.58,-2.4712645262585125e-14,1.1411319398297772e-13,4.200774528997102e-14
4.63848090171814,0.57,0.11,9.91,0.0,0.0,0.0,0.02,-0.01,0.81,0.58,-2.4712645262585125e-14,1.1411319398297772e-13,4.200774528997102e-14
4.638999700546265,0.57,0.11,9.91,0.0,0.0,0.0,0.02,-0.01,0.81,0.58,-2.4712645262585125e-14,1.1411319398297772e-13,4.200774528997102e-14
4.639521837234497,0.54,0.15,9.91,0.0,0.0,0.0,0.02,-0.01,0.81,0.58,-2.4712645262585125e-14,1.1411319398297772e-13,4.200774528997102e-14
4.640045404434204,0.54,0.15,9.91,0.0,0.0,0.0,0.02,-0.01,0.81,0.58,-2.4712645262585125e-14,1.1411319398297772e-13,4.200774528997102e-14
4.640471458435059,0.54,0.15,9.91,0.0,0.0,0.0,0.02,-0.01,0.81,0.58,-2.4712645262585125e-14,1.1411319398297772e-13,4.200774528997102e-14
4.641014814376831,0.54,0.15,9.91,0.0,0.0,0.0,0.02,-0.01,0.81,0.58,-2.4712645262585125e-14,1.1411319398297772e-13,4.200774528997102e-14
4.693926095962524,0.54,0.15,9.95,0.0,0.0,0.0,0.02,-0.01,0.81,0.58,-2.4712645262585125e-14,1.1411319398297772e-13,4.200774528997102e-14
4.694657325744629,0.54,0.15,9.95,0.0,0.0,0.0,0.02,-0.01,0.81,0.58,-2.4712645262585125e-14,1.1411319398297772e-13,4.200774528997102e-14
4.695188522338867,0.54,0.15,9.95,0.0,0.0,0.0,0.02,-0.01,0.81,0.58,-2.4712645262585125e-14,1.1411319398297772e-13,4.200774528997102e-14
4.695649147033691,0.54,0.15,9.95,0.0,0.0,0.0,0.02,-0.01,0.81,0.58,-2.4712645262585125e-14,1.1411319398297772e-13,4.200774528997102e-14
4.696096181869507,0.54,0.15,9.95,0.0,0.0,0.0,0.02,-0.01,0.81,0.58,-2.4712645262585125e-14,1.1411319398297772e-13,4.200774528997102e-14
4.696523666381836,0.54,0.15,9.95,0.0,0.0,0.0,0.02,-0.01,0.81,0.58,-2.4712645262585125e-14,1.1411319398297772e-13,4.200774528997102e-14
4.697016954421997,0.54,0.15,9.95,0.0,0.0,0.0,0.02,-0.01,0.81,0.58,-2.4712645262585125e-14,1.1411319398297772e-13,4.200774528997102e-14
4.697489976882935,0.54,0.15,9.95,0.0,0.0,0.0,0.02,-0.01,0.81,0.58,-2.4712645262585125e-14,1.1411319398297772e-13,4.200774528997102e-14
4.69791579246521,0.42,0.11,9.71,0.0,0.0,0.0,0.02,-0.01,0.81,0.58,-2.4712645262585125e-14,1.1411319398297772e-13,4.200774528997102e-14
4.6984453201293945,0.42,0.11,9.71,0.0,0.0,0.0,0.02,-0.01,0.81,0.58,-2.4712645262585125e-14,1.1411319398297772e-13,4.200774528997102e-14
4.698873996734619,0.42,0.11,9.71,0.0,0.0,0.0,0.02,-0.01,0.81,0.58,-2.4712645262585125e-14,1.1411319398297772e-13,4.200774528997102e-14
4.699321269989014,0.42,0.11,9.71,0.0,0.0,0.0,0.02,-0.01,0.81,0.58,-2.4712645262585125e-14,1.1411319398297772e-13,4.200774528997102e-14
4.699908971786499,0.42,0.11,9.71,0.0,0.0,0.0,0.02,-0.01,0.81,0.58,-2.4712645262585125e-14,1.1411319398297772e-13,4.200774528997102e-14
4.751698970794678,0.42,0.11,9.71,0.0,0.0,0.0,0.02,-0.01,0.81,0.58,-2.4712645262585125e-14,1.1411319398297772e-13,4.200774528997102e-14
4.752417325973511,0.42,0.11,9.71,0.0,0.0,0.0,0.02,-0.01,0.81,0.58,-2.4712645262585125e-14,1.1411319398297772e-13,4.200774528997102e-14
4.7529425621032715,0.42,0.11,9.71,0.0,0.0,0.0,0.02,-0.01,0.81,0.58,-2.4712645262585125e-14,1.1411319398297772e-13,4.200774528997102e-14
4.753423690795898,0.42,0.11,9.71,0.0,0.0,0.0,0.02,-0.01,0.81,0.58,-2.4712645262585125e-14,1.1411319398297772e-13,4.200774528997102e-14
4.753964900970459,0.42,0.11,9.71,0.0,0.0,0.0,0.02,-0.01,0.81,0.58,-2.4712645262585125e-14,1.1411319398297772e-13,4.200774528997102e-14
4.754405736923218,0.54,0.11,9.95,0.0,0.0,0.0,0.02,-0.01,0.81,0.58,-2.4712645262585125e-14,1.1411319398297772e-13,4.200774528997102e-14
4.754868030548096,0.54,0.11,9.95,0.0,0.0,0.0,0.02,-0.01,0.81,0.58,-2.4712645262585125e-14,1.1411319398297772e-13,4.200774528997102e-14
4.755299091339111,0.54,0.11,9.95,0.0,0.0,0.0,0.02,-0.01,0.81,0.58,-2.4712645262585125e-14,1.1411319398297772e-13,4.200774528997102e-14
4.755756139755249,0.54,0.11,9.95,0.0,0.0,0.0,0.02,-0.01,0.81,0.58,-2.4712645262585125e-14,1.1411319398297772e-13,4.200774528997102e-14
4.7561728954315186,0.54,0.11,9.95,0.0,0.0,0.0,0.02,-0.01,0.81,0.58,-2.4712645262585125e-14,1.1411319398297772e-13,4.200774528997102e-14
4.756624698638916,0.54,0.11,9.95,0.0,0.0,0.0,0.02,-0.01,0.81,0.58,-2.4712645262585125e-14,1.1411319398297772e-13,4.200774528997102e-14
4.757090330123901,0.57,0.03,9.79,0.0,0.0,0.0,0.02,-0.01,0.81,0.58,-2.4712645262585125e-14,1.1411319398297772e-13,4.200774528997102e-14
4.811294794082642,0.57,0.03,9.79,0.0,0.0,0.0,0.02,-0.01,0.81,0.58,-2.4712645262585125e-14,1.1411319398297772e-13,4.200774528997102e-14
4.8119823932647705,0.57,0.03,9.79,0.0,0.0,0.0,0.02,-0.01,0.81,0.58,-2.4712645262585125e-14,1.1411319398297772e-13,4.200774528997102e-14
4.81254768371582,0.57,0.03,9.79,0.0,0.0,0.0,0.02,-0.01,0.81,0.58,-2.4712645262585125e-14,1.1411319398297772e-13,4.200774528997102e-14
4.8131067752838135,0.57,0.03,9.79,0.0,0.0,0.0,0.02,-0.01,0.81,0.58,-2.4712645262585125e-14,1.1411319398297772e-13,4.200774528997102e-14
4.813582181930542,0.57,0.03,9.79,0.0,0.0,0.0,0.02,-0.01,0.81,0.58,-2.4712645262585125e-14,1.1411319398297772e-13,4.200774528997102e-14
4.814022779464722,0.46,0.15,9.87,0.0,0.0,0.0,0.02,-0.01,0.81,0.58,-2.4712645262585125e-14,1.1411319398297772e-13,4.200774528997102e-14
4.814496994018555,0.46,0.15,9.87,0.0,0.0,0.0,0.02,-0.01,0.81,0.58,-2.4712645262585125e-14,1.1411319398297772e-13,4.200774528997102e-14
4.815053462982178,0.46,0.15,9.87,0.0,0.0,0.0,0.02,-0.01,0.81,0.58,-2.4712645262585125e-14,1.1411319398297772e-13,4.200774528997102e-14
4.815526485443115,0.46,0.15,9.87,0.0,0.0,0.0,0.02,-0.01,0.81,0.58,-2.4712645262585125e-14,1.1411319398297772e-13,4.200774528997102e-14
4.81597113609314,0.46,0.15,9.87,0.0,0.0,0.0,0.02,-0.01,0.81,0.58,-2.4712645262585125e-14,1.1411319398297772e-13,4.200774528997102e-14
4.816462516784668,0.46,0.15,9.87,0.0,0.0,0.0,0.02,-0.01,0.81,0.58,-2.4712645262585125e-14,1.1411319398297772e-13,4.200774528997102e-14
4.817013502120972,0.54,0.11,10.02,0.0,0.0,0.0,0.02,-0.01,0.81,0.58,-2.4712645262585125e-14,1.1411319398297772e-13,4.200774528997102e-14
4.817594766616821,0.54,0.11,10.02,0.0,0.0,0.0,0.02,-0.01,0.81,0.58,-2.4712645262585125e-14,1.1411319398297772e-13,4.200774528997102e-14
4.872620582580566,0.54,0.11,10.02,0.0,0.0,0.0,0.02,-0.01,0.81,0.58,-2.4712645262585125e-14,1.1411319398297772e-13,4.200774528997102e-14
4.873296737670898,0.54,0.11,10.02,0.0,0.0,0.0,0.02,-0.01,0.81,0.58,-2.4712645262585125e-14,1.1411319398297772e-13,4.200774528997102e-14
4.873811721801758,0.54,0.11,10.02,0.0,0.0,0.0,0.02,-0.01,0.81,0.58,-2.4712645262585125e-14,1.1411319398297772e-13,4.200774528997102e-14
4.874546051025391,0.54,0.11,10.02,0.0,0.0,0.0,0.02,-0.01,0.81,0.58,-2.4712645262585125e-14,1.1411319398297772e-13,4.200774528997102e-14
4.875040054321289,0.54,0.11,10.02,0.0,0.0,0.0,0.02,-0.01,0.81,0.58,-2.4712645262585125e-14,1.1411319398297772e-13,4.200774528997102e-14
4.875546455383301,0.54,0.11,10.02,0.0,0.0,0.0,0.02,-0.01,0.81,0.58,-2.4712645262585125e-14,1.1411319398297772e-13,4.200774528997102e-14
4.876010417938232,0.5,0.23,9.71,0.0,0.0,0.0,0.02,-0.01,0.81,0.58,-2.4712645262585125e-14,1.1411319398297772e-13,4.200774528997102e-14
4.876431703567505,0.5,0.23,9.71,0.0,0.0,0.0,0.02,-0.01,0.81,0.58,-2.4712645262585125e-14,1.1411319398297772e-13,4.200774528997102e-14
4.876886606216431,0.5,0.23,9.71,0.0,0.0,0.0,0.02,-0.01,0.81,0.58,-2.4712645262585125e-14,1.1411319398297772e-13,4.200774528997102e-14
4.877323865890503,0.5,0.23,9.71,0.0,0.0,0.0,0.02,-0.01,0.81,0.58,-2.4712645262585125e-14,1.1411319398297772e-13,4.200774528997102e-14
4.933189630508423,0.5,0.23,9.71,0.0,0.0,0.0,0.02,-0.01,0.81,0.58,-2.4712645262585125e-14,1.1411319398297772e-13,4.200774528997102e-14
4.933873653411865,0.5,0.23,9.71,0.0,0.0,0.0,0.02,-0.01,0.81,0.58,-2.4712645262585125e-14,1.1411319398297772e-13,4.200774528997102e-14
4.934380054473877,0.5,0.23,9.71,0.0,0.0,0.0,0.02,-0.01,0.81,0.58,-2.4712645262585125e-14,1.1411319398297772e-13,4.200774528997102e-14
4.934884071350098,0.5,0.23,9.71,0.0,0.0,0.0,0.02,-0.01,0.81,0.58,-2.4712645262585125e-14,1.1411319398297772e-13,4.200774528997102e-14
4.935295820236206,0.65,0.34,10.07,0.0,0.0,0.0,0.02,-0.01,0.81,0.58,-2.4712645262585125e-14,1.1411319398297772e-13,4.200774528997102e-14
4.935751676559448,0.65,0.34,10.07,0.0,0.0,0.0,0.02,-0.01,0.81,0.58,-2.4712645262585125e-14,1.1411319398297772e-13,4.200774528997102e-14
4.936187982559204,0.65,0.34,10.07,0.0,0.0,0.0,0.02,-0.01,0.81,0.58,-2.4712645262585125e-14,1.1411319398297772e-13,4.200774528997102e-14
4.93657660484314,0.65,0.34,10.07,0.0,0.0,0.0,0.02,-0.01,0.81,0.58,-2.4712645262585125e-14,1.1411319398297772e-13,4.200774528997102e-14
4.9370293617248535,0.65,0.34,10.07,0.0,0.0,0.0,0.02,-0.01,0.81,0.58,-2.4712645262585125e-14,1.1411319398297772e-13,4.200774528997102e-14
4.937513113021851,0.65,0.34,10.07,0.0,0.0,0.0,0.02,-0.01,0.81,0.58,-2.4712645262585125e-14,1.1411319398297772e-13,4.200774528997102e-14
4.93792986869812,0.5,-0.0,9.95,0.0,0.0,0.0,0.02,-0.01,0.81,0.58,-2.4712645262585125e-14,1.1411319398297772e-13,4.200774528997102e-14
4.938370943069458,0.5,-0.0,9.95,0.0,0.0,0.0,0.02,-0.01,0.81,0.58,-2.4712645262585125e-14,1.1411319398297772e-13,4.200774528997102e-14
4.938754320144653,0.5,-0.0,9.95,0.0,0.0,0.0,0.02,-0.01,0.81,0.58,-2.4712645262585125e-14,1.1411319398297772e-13,4.200774528997102e-14
4.93915319442749,0.5,-0.0,9.95,0.0,0.0,0.0,0.02,-0.01,0.81,0.58,-2.4712645262585125e-14,1.1411319398297772e-13,4.200774528997102e-14
4.939568281173706,0.5,-0.0,9.95,0.0,0.0,0.0,0.02,-0.01,0.81,0.58,-2.4712645262585125e-14,1.1411319398297772e-13,4.200774528997102e-14
4.99261736869812,0.5,-0.0,9.95,0.0,0.0,0.0,0.02,-0.01,0.81,0.58,-2.4712645262585125e-14,1.1411319398297772e-13,4.200774528997102e-14
4.993325471878052,0.42,1.07,11.4,0.0,0.0,0.0,0.02,-0.01,0.81,0.58,-2.4712645262585125e-14,1.1411319398297772e-13,4.200774528997102e-14
4.993857145309448,0.42,1.07,11.4,0.0,0.0,0.0,0.02,-0.01,0.81,0.58,-2.4712645262585125e-14,1.1411319398297772e-13,4.200774528997102e-14
4.994312286376953,0.42,1.07,11.4,-0.31,0.0,0.03,0.02,-0.01,0.81,0.58,-2.4712645262585125e-14,1.1411319398297772e-13,4.200774528997102e-14
4.994794845581055,0.42,1.07,11.4,-0.31,0.0,0.03,0.02,-0.01,0.81,0.58,-2.4712645262585125e-14,1.1411319398297772e-13,4.200774528997102e-14
4.9952709674835205,0.42,1.07,11.4,-0.38,-0.01,0.03,0.02,-0.01,0.81,0.58,-2.4712645262585125e-14,1.1411319398297772e-13,4.200774528997102e-14
4.995759725570679,0.42,1.07,11.4,-0.38,-0.01,0.03,0.02,-0.01,0.81,0.58,-2.4712645262585125e-14,1.1411319398297772e-13,4.200774528997102e-14
4.996254920959473,0.77,-0.2,9.67,-0.38,-0.01,0.03,0.02,-0.01,0.81,0.58,-2.4712645262585125e-14,1.1411319398297772e-13,4.200774528997102e-14
4.996770143508911,0.77,-0.2,9.67,-0.41,-0.01,0.05,0.02,-0.01,0.81,0.58,-2.4712645262585125e-14,1.1411319398297772e-13,4.200774528997102e-14
4.997332334518433,0.77,-0.2,9.67,-0.41,-0.01,0.05,0.02,-0.01,0.81,0.58,-2.4712645262585125e-14,1.1411319398297772e-13,4.200774528997102e-14
4.9980480670928955,0.77,-0.2,9.67,-0.41,-0.01,0.05,0.02,-0.01,0.81,0.58,-2.4712645262585125e-14,1.1411319398297772e-13,4.200774528997102e-14
4.998582124710083,0.77,-0.2,9.67,-0.41,-0.01,0.09,0.02,-0.01,0.81,0.58,-2.4712645262585125e-14,1.1411319398297772e-13,4.200774528997102e-14
4.9991395473480225,0.77,-0.2,9.67,-0.41,-0.01,0.09,0.02,-0.01,0.81,0.58,-2.4712645262585125e-14,1.1411319398297772e-13,4.200774528997102e-14
5.053148508071899,0.77,-0.2,9.67,-0.44,-0.0,0.11,0.02,-0.01,0.81,0.58,-2.4712645262585125e-14,1.1411319398297772e-13,4.200774528997102e-14
5.05383825302124,0.77,-0.2,9.67,-0.44,-0.0,0.11,0.02,-0.02,0.81,0.58,-0.6690000060992776,-0.028534839048681822,-0.9347746742257683
5.0543739795684814,0.77,-0.2,9.67,-0.5,-0.01,0.13,0.02,-0.02,0.81,0.58,-0.6690109212687128,-0.028535304613106608,-0.9347899256814628
5.054847717285156,0.77,-0.2,9.67,-0.5,-0.01,0.13,0.02,-0.02,0.81,0.58,-0.6690358028973399,-0.028536365888535115,-0.934824692073215
5.055265426635742,0.07,-0.2,10.41,-0.5,-0.01,0.13,0.02,-0.02,0.81,0.58,-0.669068184444274,-0.028537747057775027,-0.934869937887431
5.055694341659546,0.07,-0.2,10.41,-0.5,-0.01,0.13,0.02,-0.02,0.81,0.58,-0.6690702099133805,-0.028537833450053694,-0.9348727680177851
5.056151866912842,0.07,-0.2,10.41,-0.58,-0.01,0.13,0.02,-0.02,0.81,0.58,-0.6689590415536676,-0.02853309178903305,-0.9347174356317052
5.056596279144287,0.07,-0.2,10.41,-0.58,-0.01,0.13,0.02,-0.02,0.82,0.58,-0.6914107298092009,0.6354394763596528,-0.9112728498403846
5.0570549964904785,0.07,-0.2,10.41,-0.66,-0.02,0.13,0.02,-0.02,0.82,0.58,-0.6909610823367102,0.6354695039289533,-0.9106436758667952
5.057514667510986,0.07,-0.2,10.41,-0.66,-0.02,0.13,0.01,-0.03,0.82,0.58,-2.2825848638249067,0.5834628428420058,-1.166064487131522
5.058030843734741,0.07,-0.2,10.41,-0.76,-0.01,0.15,0.01,-0.03,0.82,0.58,-2.283101446820559,0.5834732523004779,-1.1667515231322843
5.1145851612091064,0.07,-0.2,10.41,-0.76,-0.01,0.15,0.01,-0.03,0.82,0.58,-2.283615757799015,0.5834539182797868,-1.1673967759970079
5.115231275558472,-1.15,-0.23,10.41,-0.76,-0.01,0.15,0.01,-0.03,0.82,0.58,-2.2837899622069147,0.5833367633489205,-1.1675540141303788
5.115724563598633,-1.15,-0.23,10.41,-0.76,-0.01,0.15,0.01,-0.03,0.82,0.58,-2.283735767010675,0.5830286412803067,-1.1674979244256674
5.116178512573242,-1.15,-0.23,10.41,-0.9,-0.02,0.21,0.01,-0.03,0.82,0.58,-2.283392297911834,0.582593375206223,-1.1673819867010393
5.116602420806885,-1.15,-0.23,10.41,-0.9,-0.02,0.21,0.01,-0.03,0.82,0.58,-2.2826116045328995,0.5825308167682797,-1.16721761052304
5.117127418518066,-1.15,-0.23,10.41,-1.03,-0.06,0.19,0.01,-0.03,0.82,0.58,-2.2815491384072133,0.58305200155797,-1.167017111783085
5.117552995681763,-1.15,-0.23,10.41,-1.03,-0.06,0.19,0.0,-0.04,0.82,0.58,-3.8721889845220754,0.5243082012886309,-1.4242462376546923
5.117969512939453,-0.5,-0.31,9.18,-1.03,-0.06,0.19,0.0,-0.04,0.82,0.58,-3.8733876330224826,0.5243691480858537,-1.4244403658622082
5.118421316146851,-0.5,-0.31,9.18,-1.05,-0.05,0.15,0.0,-0.04,0.82,0.58,-3.874530406254964,0.524283421729744,-1.4246290453193686
5.118911266326904,-0.5,-0.31,9.18,-1.05,-0.05,0.15,0.0,-0.04,0.82,0.58,-3.8748461019407077,0.5242094948510727,-1.4246832126709235
5.1194493770599365,-0.5,-0.31,9.18,-1.05,-0.05,0.15,0.0,-0.04,0.82,0.57,-3.920352241436049,1.4595482750960485,-1.4238747999025558
5.119890928268433,-0.5,-0.31,9.18,-0.96,-0.04,0.12,0.0,-0.04,0.82,0.57,-3.9199365563367117,1.4595699834036084,-1.42380754672504
5.120370864868164,-0.5,-0.31,9.18,-0.96,-0.04,0.12,-0.0,-0.05,0.82,0.57,-4.595911288253347,1.390855847855279,-2.3499445318577785
5.120792865753174,0.07,-0.96,8.11,-0.96,-0.04,0.12,-0.0,-0.05,0.82,0.57,-4.594834494719106,1.3909450396805259,-2.3497830919013745
5.1815025806427,0.07,-0.96,8.11,-0.96,-0.04,0.12,-0.0,-0.05,0.82,0.57,-4.594655601999874,1.390955526479772,-2.349784416950974
5.1824951171875,0.07,-0.96,8.11,-0.78,-0.02,0.05,-0.0,-0.05,0.82,0.57,-4.595855777783495,1.3907537756189274,-2.350019395655866
5.183110952377319,0.07,-0.96,8.11,-0.78,-0.02,0.05,-0.01,-0.06,0.82,0.57,-6.1954527256562315,1.3094985628350984,-2.6000650864248813
5.183608531951904,0.07,-0.96,8.11,-0.56,-0.01,0.0,-0.01,-0.06,0.82,0.57,-6.195577332188677,1.3088701613980702,-2.599954877728433
5.184134006500244,0.07,-0.96,8.11,-0.56,-0.01,0.0,-0.01,-0.06,0.82,0.57,-6.195199179337342,1.3087789478327667,-2.5995130907330544
5.18459415435791,0.54,-1.46,8.64,-0.56,-0.01,0.0,-0.01,-0.06,0.82,0.57,-6.194702499286565,1.3095113249779085,-2.598876919597363
5.185107231140137,0.54,-1.46,8.64,-0.56,-0.01,0.0,-0.01,-0.06,0.82,0.57,-6.194565990377774,1.3101595264275372,-2.598740600540173
5.185540676116943,0.54,-1.46,8.64,-0.4,-0.01,-0.01,-0.01,-0.06,0.82,0.57,-6.194782307508541,1.3102645292161548,-2.599373457746109
5.185960054397583,0.54,-1.46,8.64,-0.4,-0.01,-0.01,-0.01,-0.06,0.82,0.57,-6.194500284694901,1.3101875543757013,-2.5998880637446002
5.186416387557983,0.54,-1.46,8.64,-0.23,-0.0,-0.01,-0.01,-0.06,0.82,0.57,-6.193533754301484,1.3101421022079869,-2.5998615982754396
5.18684196472168,0.54,-1.46,8.64,-0.23,-0.0,-0.01,-0.01,-0.06,0.82,0.57,-6.193276020788652,1.3101094476989237,-2.599762412783979
5.187249422073364,0.69,-1.38,9.26,-0.23,-0.0,-0.01,-0.01,-0.06,0.82,0.57,-6.194382352626886,1.3100450522323908,-2.5998573782511607
5.2431299686431885,0.69,-1.38,9.26,-0.23,-0.0,-0.01,-0.01,-0.06,0.82,0.57,-6.195434567451856,1.3099979669945603,-2.599979581661774
5.24377703666687,0.69,-1.38,9.26,-0.09,0.0,0.01,-0.01,-0.06,0.82,0.57,-6.195666771527448,1.3099930950763408,-2.600005492926006
5.24435567855835,0.69,-1.38,9.26,-0.09,0.0,0.01,-0.01,-0.06,0.82,0.57,-6.195553982629063,1.310002269213712,-2.599991603495159
5.244911432266235,0.69,-1.38,9.26,-0.02,0.01,0.04,-0.01,-0.06,0.82,0.57,-6.195406430893398,1.3100104557432737,-2.5999741636958955
5.245471477508545,0.69,-1.38,9.26,-0.02,0.01,0.04,-0.01,-0.06,0.82,0.57,-6.195326796125208,1.3100140802042526,-2.5999649033132903
5.24601149559021,0.42,-0.85,9.91,-0.02,0.01,0.04,-0.01,-0.06,0.82,0.57,-6.195307411893906,1.3100145620413133,-2.599962725873266
5.246464014053345,0.42,-0.85,9.91,-0.02,0.01,0.04,-0.01,-0.06,0.82,0.57,-6.19531459434899,1.3100139357214324,-2.5999636184216555
5.246987819671631,0.42,-0.85,9.91,-0.02,-0.01,0.09,-0.01,-0.06,0.82,0.57,-6.195325241988494,1.3100133362029578,-2.5999648785913836
5.247392416000366,0.42,-0.85,9.91,-0.02,-0.01,0.09,-0.01,-0.06,0.82,0.57,-6.195331249006527,1.3100130583831575,-2.599965577967664
5.247851610183716,0.42,-0.85,9.91,-0.03,-0.01,0.08,-0.01,-0.06,0.82,0.57,-6.195332842543078,1.310013013830402,-2.5999657579166544
5.24828577041626,0.42,-0.85,9.91,-0.03,-0.01,0.08,-0.01,-0.06,0.82,0.57,-6.1953323989724245,1.3100130561410332,-2.5999657020998903
5.248804092407227,0.42,-0.85,9.91,-0.03,-0.01,0.07,-0.01,-0.06,0.82,0.57,-6.195331633490639,1.310013099908391,-2.5999656113759158
5.2492592334747314,0.42,-0.85,9.91,-0.03,-0.01,0.07,-0.01,-0.06,0.82,0.57,-6.195331181818198,1.3100131211195616,-2.5999655587276655
5.2497124671936035,-0.35,-2.04,10.94,-0.03,-0.01,0.07,-0.01,-0.06,0.82,0.57,-6.195331052438014,1.310013125066917,-2.599965544054296
5.250156879425049,-0.35,-2.04,10.94,-0.03,-0.01,0.07,-0.01,-0.06,0.82,0.57,-6.195331078640895,1.3100131222447091,-2.5999655474133485
5.250596761703491,-0.35,-2.04,10.94,-0.06,-0.0,0.06,-0.01,-0.06,0.82,0.57,-6.195331133454347,1.3100131190597635,-2.599965553919522
5.251028060913086,-0.35,-2.04,10.94,-0.06,-0.0,0.06,-0.01,-0.06,0.82,0.57,-6.195331167310437,1.3100131174463427,-2.5999655578703837
5.251493215560913,-0.35,-2.04,10.94,-0.2,-0.01,0.04,-0.01,-0.06,0.82,0.57,-6.195331177706614,1.3100131171068339,-2.5999655590537185
5.251917839050293,-0.35,-2.04,10.94,-0.2,-0.01,0.04,-0.01,-0.07,0.82,0.57,-6.867961478798794,1.2157131551609395,-3.52950093422237
5.310572624206543,-0.2,-0.58,10.45,-0.2,-0.01,0.04,-0.01,-0.07,0.82,0.57,-6.867972449290576,1.2157116168268316,-3.5295160997308526
5.311239004135132,-0.2,-0.58,10.45,-0.38,-0.02,0.07,-0.01,-0.07,0.82,0.57,-6.867997463408115,1.2157081097195026,-3.5295506709656133
5.311770439147949,-0.2,-0.58,10.45,-0.38,-0.02,0.07,-0.01,-0.07,0.82,0.57,-6.868030019843912,1.215703545355511,-3.5295956630879757
5.312202215194702,-0.2,-0.58,10.45,-0.38,-0.02,0.07,-0.01,-0.07,0.82,0.57,-6.868032056373641,1.2157032598403574,-3.529598477365553
5.312802791595459,-0.2,-0.58,10.45,-0.51,-0.02,0.04,-0.01,-0.07,0.82,0.57,-6.867920285041545,1.2157189297369886,-3.529444015631724
5.31329083442688,-0.2,-0.58,10.45,-0.51,-0.02,0.04,-0.02,-0.07,0.82,0.57,-7.790902541465183,1.2221021386237578,-2.852116020824458
5.3136866092681885,-0.08,-1.31,8.72,-0.51,-0.02,0.04,-0.02,-0.07,0.82,0.57,-7.790465144820795,1.2221656751780932,-2.851479702626021
5.314100027084351,-0.08,-1.31,8.72,-0.51,-0.02,0.04,-0.02,-0.07,0.82,0.57,-7.790410006478082,1.2221784553651773,-2.8513308743282164
5.31463885307312,-0.08,-1.31,8.72,-0.53,-0.0,-0.04,-0.02,-0.07,0.82,0.57,-7.790946864332275,1.2221097623505655,-2.8519782573228554
5.315094709396362,-0.08,-1.31,8.72,-0.53,-0.0,-0.04,-0.02,-0.07,0.82,0.57,-7.791407171642472,1.2220456402777895,-2.8526084624562076
5.31551718711853,-0.08,-1.31,8.72,-0.4,0.0,-0.09,-0.02,-0.07,0.82,0.57,-7.791355238029718,1.2220303582185523,-2.852861197701299
5.316038608551025,-0.08,-1.31,8.72,-0.4,0.0,-0.09,-0.02,-0.08,0.82,0.57,-8.460831937892104,1.1130702186538908,-3.7855252903464565
5.316458225250244,0.46,-2.15,8.03,-0.4,0.0,-0.09,-0.02,-0.08,0.82,0.57,-8.460157785785302,1.1130731499379947,-3.7859073804474868
5.31691575050354,0.46,-2.15,8.03,-0.4,0.0,-0.09,-0.02,-0.08,0.82,0.57,-8.46002525981637,1.1130731076268605,-3.7859842612195367
5.374875783920288,0.46,-2.15,8.03,-0.23,0.01,-0.1,-0.02,-0.08,0.82,0.57,-8.46072480389383,1.113073658659347,-3.785522406960438
5.375561475753784,0.46,-2.15,8.03,-0.23,0.01,-0.1,-0.02,-0.08,0.82,0.57,-8.46135793694039,1.1130772068139598,-3.78506909347979
5.376113176345825,0.46,-2.15,8.03,-0.05,0.02,-0.08,-0.02,-0.08,0.82,0.57,-8.461390541323574,1.1130956225510786,-3.7848184001263863
5.376652956008911,0.46,-2.15,8.03,-0.05,0.02,-0.08,-0.02,-0.08,0.82,0.57,-8.461013547132806,1.113145677529786,-3.7844355834124475
5.37712836265564,0.65,-2.07,8.45,-0.05,0.02,-0.08,-0.02,-0.08,0.82,0.57,-8.460475722189674,1.1132182740602996,-3.783873744206981
5.377678155899048,0.65,-2.07,8.45,-0.05,0.02,-0.08,-0.02,-0.08,0.82,0.57,-8.460338887578288,1.1132324696508833,-3.7837842839689304
5.378213405609131,0.65,-2.07,8.45,0.14,0.01,-0.06,-0.02,-0.08,0.82,0.57,-8.4608171468716,1.113152706790496,-3.7844745980342167
5.378764867782593,0.65,-2.07,8.45,0.14,0.01,-0.06,-0.02,-0.08,0.82,0.57,-8.461276890674176,1.1130786479678596,-3.7851054266320294
5.379317283630371,0.65,-2.07,8.45,0.3,0.01,-0.03,-0.02,-0.08,0.82,0.57,-8.46138426108182,1.113062258110392,-3.78524139112073
5.379814386367798,0.65,-2.07,8.45,0.3,0.01,-0.03,-0.02,-0.08,0.82,0.57,-8.461339402380043,1.113070161870151,-3.785171342926413
5.380362510681152,0.65,-2.07,8.45,0.39,0.01,0.0,-0.02,-0.08,0.82,0.57,-8.461276629699451,1.1130805337801997,-3.7850819500798947
5.380939483642578,0.65,-2.07,8.45,0.39,0.01,0.0,-0.02,-0.08,0.82,0.57,-8.461241900176935,1.11308613826082,-3.785034171241522
5.381404638290405,0.65,-2.07,8.45,0.45,0.01,0.0,-0.02,-0.08,0.82,0.57,-8.461233017477182,1.113087505841927,-3.7850227768114024
5.44085431098938,0.65,-2.07,8.45,0.45,0.01,0.0,-0.02,-0.07,0.82,0.57,-7.791279358901761,1.222051002601933,-2.8526120098073586
5.4415388107299805,0.57,-1.38,9.22,0.45,0.01,0.0,-0.02,-0.07,0.82,0.57,-7.791272948545864,1.2220520320355386,-2.8526032527761376
5.442046880722046,0.57,-1.38,9.22,0.45,0.01,0.0,-0.02,-0.07,0.82,0.57,-7.791250646329986,1.222055661933445,-2.8525721807952586
5.442493677139282,0.57,-1.38,9.22,0.51,0.01,0.0,-0.02,-0.07,0.82,0.57,-7.791218943419967,1.222060823723756,-2.852527988803903
5.4430131912231445,0.57,-1.38,9.22,0.51,0.01,0.0,-0.02,-0.07,0.82,0.57,-7.79121674531358,1.2220611846549843,-2.8525248866682515
5.4434332847595215,0.57,-1.38,9.22,0.58,0.01,0.02,-0.02,-0.07,0.82,0.57,-7.791327748341498,1.2220431318021359,-2.8526793624640328
5.443835973739624,0.57,-1.38,9.22,0.58,0.01,0.02,-0.02,-0.07,0.82,0.57,-7.791640380684633,1.2219922840727995,-2.8531144718782815
5.444288969039917,0.57,-1.38,9.22,0.65,0.01,0.04,-0.02,-0.07,0.82,0.57,-7.792090984452113,1.2219189959494254,-2.8537416068556185
5.44485068321228,0.57,-1.38,9.22,0.65,0.01,0.04,-0.01,-0.07,0.82,0.57,-6.8688837828962335,1.2155653224000171,-3.530759618475509
5.445335149765015,0.57,-1.38,9.22,0.73,0.01,0.07,-0.01,-0.07,0.82,0.57,-6.86837853069692,1.2156449447354785,-3.53008844187509
5.445757150650024,0.57,-1.38,9.22,0.73,0.01,0.07,-0.01,-0.06,0.82,0.57,-6.195258210114453,1.3100187842167426,-2.5999440487455296
5.446203947067261,0.46,-1.31,9.75,0.73,0.01,0.07,-0.01,-0.06,0.82,0.57,-6.195101462198094,1.310036456504917,-2.599820962890905
5.446620464324951,0.46,-1.31,9.75,0.73,0.01,0.07,-0.01,-0.06,0.82,0.57,-6.19512210369531,1.3100320639151768,-2.5998558759228247
5.447070121765137,0.46,-1.31,9.75,0.82,0.01,0.08,-0.01,-0.06,0.82,0.57,-6.195306720851936,1.3100273132818259,-2.599787127063814
5.50524377822876,0.46,-1.31,9.75,0.82,0.01,0.08,-0.01,-0.06,0.82,0.57,-6.195770288545711,1.3100249506295238,-2.599516234371182
5.505915641784668,0.46,-1.31,9.75,0.82,0.02,0.11,-0.01,-0.06,0.82,0.57,-6.196511568788863,1.3100121736287893,-2.5992271014341224
5.506465435028076,0.46,-1.31,9.75,0.82,0.02,0.11,-0.01,-0.05,0.82,0.57,-5.522076067111388,1.393273937225,-1.6711540231563897
5.507145643234253,-0.2,0.84,15.3,0.82,0.02,0.11,-0.01,-0.05,0.82,0.57,-5.521837336121752,1.3932079729195492,-1.6722530358163628
5.507728338241577,-0.2,0.84,15.3,0.82,0.02,0.11,-0.01,-0.05,0.82,0.57,-5.521271102634563,1.3931946379479931,-1.6727989517553572
5.5082643032073975,-0.2,0.84,15.3,0.57,-0.03,0.14,-0.01,-0.05,0.82,0.57,-5.5206062629582595,1.393266826128887,-1.6721750379909204
5.508745193481445,-0.2,0.84,15.3,0.57,-0.03,0.14,-0.0,-0.05,0.82,0.57,-4.5965550403267885,1.3908047808823434,-2.350037557848881
5.509251117706299,-0.2,0.84,15.3,-0.03,-0.02,0.08,-0.0,-0.05,0.82,0.57,-4.596638811205899,1.3908056749952862,-2.3499986977725547
5.5098559856414795,-0.2,0.84,15.3,-0.03,-0.02,0.08,-0.0,-0.05,0.82,0.57,-4.5970159455350545,1.390760157254475,-2.3504901067704
5.510335922241211,-0.2,0.84,15.3,-0.21,0.01,0.0,-0.0,-0.05,0.82,0.57,-4.597500886437559,1.390695095549067,-2.3512274805938107
5.5107808113098145,-0.2,0.84,15.3,-0.21,0.01,0.0,-0.0,-0.05,0.82,0.57,-4.597618227654623,1.39067912525247,-2.3514039794859536
5.511287450790405,0.5,-1.31,8.07,-0.21,0.01,0.0,-0.0,-0.05,0.82,0.57,-4.597280009642104,1.3907392730477524,-2.3506282123346907
5.511778831481934,0.5,-1.31,8.07,-0.21,0.01,0.0,-0.0,-0.05,0.82,0.57,-4.597245574131061,1.3907975267651818,-2.3496782135198586
5.512201309204102,0.5,-1.31,8.07,0.04,0.0,0.0,-0.0,-0.05,0.82,0.57,-4.597759488940048,1.3908124377060598,-2.349075999209434
5.512677431106567,0.5,-1.31,8.07,0.04,0.0,0.0,-0.0,-0.05,0.82,0.57,-4.5979288209628155,1.3908071166791813,-2.3490490816694947
5.5710289478302,0.38,-0.5,11.06,0.04,0.0,0.0,-0.0,-0.05,0.82,0.57,-4.597316954792937,1.390797441105539,-2.349632630303674
5.571755886077881,0.38,-0.5,11.06,0.04,0.0,0.0,-0.0,-0.05,0.82,0.57,-4.5967238941146435,1.390791409654227,-2.350142018843348
5.572262287139893,0.38,-0.5,11.06,0.12,-0.0,0.0,-0.0,-0.05,0.82,0.57,-4.59659342888446,1.3907899339086718,-2.3502564896733062
5.572711706161499,0.38,-0.5,11.06,0.12,-0.0,0.0,-0.0,-0.05,0.82,0.57,-4.596657308372917,1.39079047221326,-2.350203426551468
5.5731401443481445,0.38,-0.5,11.06,0.01,0.0,-0.02,-0.0,-0.05,0.82,0.57,-4.596740591347634,1.3907912764715904,-2.3501325858533213
5.573614597320557,0.38,-0.5,11.06,0.01,0.0,-0.02,-0.0,-0.05,0.82,0.57,-4.5967854805038755,1.3907917313527165,-2.350094056520285
5.574052095413208,0.34,-0.85,9.18,0.01,0.0,-0.02,-0.0,-0.05,0.82,0.57,-4.5967963772593405,1.3907918525767686,-2.350084528598243
5.574483871459961,0.34,-0.85,9.18,0.01,0.0,-0.02,-0.0,-0.05,0.82,0.57,-4.596792306236276,1.3907918194013653,-2.3500878919812496
5.574986457824707,0.34,-0.85,9.18,-0.01,0.0,-0.06,-0.0,-0.05,0.82,0.57,-4.596786295709672,1.3907917615941598,-2.350093000725371
5.575468301773071,0.34,-0.85,9.18,-0.01,0.0,-0.06,-0.0,-0.05,0.82,0.57,-4.596782909296212,1.3907917273973975,-2.3500959054258432
5.575968265533447,0.34,-0.73,9.95,-0.01,0.0,-0.06,-0.0,-0.05,0.82,0.57,-4.596782013128001,1.3907917175614135,-2.3500966868529587
5.576594591140747,0.34,-0.73,9.95,0.06,-0.0,-0.09,-0.0,-0.05,0.82,0.57,-4.596782264815439,1.3907917195150408,-2.350096480492841
5.577345132827759,0.34,-0.73,9.95,0.06,-0.0,-0.09,-0.0,-0.05,0.82,0.57,-4.596782696974957,1.3907917236534437,-2.3500961134628433
5.577908515930176,0.34,-0.73,9.95,0.06,-0.0,-0.09,-0.0,-0.05,0.82,0.57,-4.596782951626086,1.3907917262162905,-2.35009589517609
5.578341245651245,0.34,-0.73,9.95,0.08,-0.0,-0.1,-0.0,-0.05,0.82,0.57,-4.5967830244111685,1.3907917270062242,-2.3500958318546665
5.637710809707642,0.34,-0.73,9.95,0.08,-0.0,-0.1,-0.0,-0.05,0.82,0.57,-4.596783009519225,1.3907917268992829,-2.3500958439245063
5.638640642166138,0.34,-0.73,9.95,0.04,0.01,-0.09,-0.0,-0.05,0.82,0.57,-4.596782978570003,1.3907917266042815,-2.3500958701872388
5.639184474945068,0.34,-0.73,9.95,0.04,0.01,-0.09,-0.0,-0.05,0.82,0.57,-4.59678295948032,1.390791726412794,-2.3500958865406356
5.639625787734985,0.34,-0.73,9.95,0.04,0.01,-0.09,-0.0,-0.05,0.82,0.57,-4.596782953630102,1.3907917263499052,-2.3500958916204207
5.640181541442871,0.34,-0.73,9.95,0.04,0.01,-0.09,-0.0,-0.05,0.82,0.57,-4.596782954451869,1.3907917263550038,-2.3500958909673897
5.640693426132202,0.38,-0.73,9.64,0.04,0.01,-0.09,-0.0,-0.05,0.82,0.57,-4.596782956658894,1.3907917263759353,-2.3500958890962673
5.641131162643433,0.38,-0.73,9.64,0.04,0.01,-0.09,-0.0,-0.05,0.82,0.57,-4.596782958085586,1.3907917263902,-2.3500958878748266
5.6415886878967285,0.38,-0.73,9.64,0.07,-0.0,-0.09,-0.0,-0.05,0.82,0.57,-4.596782958551666,1.3907917263951692,-2.3500958874707942
5.642024755477905,0.38,-0.73,9.64,0.07,-0.0,-0.09,-0.0,-0.05,0.82,0.57,-4.596782958511828,1.390791726395002,-2.350095887501157
5.64251708984375,0.38,-0.73,9.64,0.09,-0.0,-0.1,-0.0,-0.05,0.82,0.57,-4.596782958355165,1.3907917263935243,-2.3500958876338465
5.642945051193237,0.38,-0.73,9.64,0.09,-0.0,-0.1,-0.0,-0.05,0.82,0.57,-4.596782958248857,1.3907917263924647,-2.3500958877248044
5.6434032917022705,0.73,-1.0,10.17,0.09,-0.0,-0.1,-0.0,-0.05,0.82,0.57,-4.5967829582120086,1.3907917263920746,-2.350095887756702
5.643888473510742,0.73,-1.0,10.17,0.09,-0.01,-0.11,-0.0,-0.05,0.82,0.57,-4.5967829582133914,1.3907917263920713,-2.3500958877557947
5.64441990852356,0.73,-1.0,10.17,0.09,-0.01,-0.11,-0.0,-0.05,0.82,0.57,-4.596782958224456,1.3907917263921752,-2.3500958877464333
5.704581022262573,0.73,-1.0,10.17,0.09,-0.01,-0.11,-0.0,-0.05,0.82,0.57,-4.596782958232355,1.3907917263922538,-2.350095887739679
5.705250978469849,0.73,-1.0,10.17,0.09,0.0,-0.08,-0.0,-0.05,0.82,0.57,-4.596782958235249,1.390791726392284,-2.350095887737177
5.705839157104492,0.73,-1.0,10.17,0.09,0.0,-0.08,-0.0,-0.05,0.82,0.57,-4.596782958235263,1.3907917263922853,-2.3500958877371447
5.70630955696106,0.73,-1.0,10.17,0.07,0.01,-0.07,-0.0,-0.05,0.82,0.57,-4.596782958234486,1.390791726392278,-2.350095887737802
5.706782102584839,0.73,-1.0,10.17,0.07,0.01,-0.07,-0.0,-0.05,0.82,0.57,-4.5967829582339,1.3907917263922722,-2.350095887738302
5.707230091094971,0.77,-0.93,9.98,0.07,0.01,-0.07,-0.0,-0.05,0.82,0.57,-4.596782958233674,1.3907917263922698,-2.350095887738497
5.707880735397339,0.77,-0.93,9.98,0.05,0.0,-0.1,-0.0,-0.05,0.82,0.57,-4.596782958233664,1.3907917263922696,-2.3500958877385068
5.708373069763184,0.77,-0.93,9.98,0.05,0.0,-0.1,-0.0,-0.05,0.82,0.57,-4.596782958233718,1.3907917263922702,-2.3500958877384606
5.7088539600372314,0.77,-0.93,9.98,0.05,0.0,-0.1,-0.0,-0.05,0.82,0.57,-4.596782958233762,1.3907917263922707,-2.3500958877384237
5.709338426589966,0.77,-0.93,9.98,0.04,0.01,-0.08,-0.0,-0.05,0.82,0.57,-4.59678295823378,1.3907917263922709,-2.350095887738409
5.709818601608276,0.77,-0.93,9.98,0.04,0.01,-0.08,0.0,-0.05,0.82,0.58,-4.539810604787354,0.45623993145058117,-2.3510171909518025
5.710355520248413,0.3,-0.62,10.02,0.04,0.01,-0.08,0.0,-0.05,0.82,0.58,-4.539809675246415,0.4562246836313068,-2.351017205983466
5.7109503746032715,0.3,-0.62,10.02,-0.05,0.01,-0.03,0.0,-0.05,0.82,0.58,-4.53980755631528,0.4561899255289411,-2.351017240248826
5.769731044769287,0.3,-0.62,10.02,-0.05,0.01,-0.03,0.0,-0.05,0.82,0.58,-4.539804798687595,0.45614469050273104,-2.351017284842583
5.770430326461792,0.3,-0.62,10.02,-0.05,0.01,-0.03,-0.0,-0.05,0.82,0.58,-4.539804626197698,0.4561418610471677,-2.351017287631927
5.770964622497559,0.3,-0.62,10.02,-0.14,0.02,-0.02,-0.0,-0.05,0.82,0.58,-4.539814093347211,0.45629715639718754,-2.351017134538106
5.771412134170532,0.3,-0.62,10.02,-0.14,0.02,-0.02,-0.0,-0.05,0.82,0.58,-4.539840695945405,0.45673353482265605,-2.3510167043459567
5.771873950958252,0.5,-0.96,9.56,-0.14,0.02,-0.02,-0.0,-0.05,0.82,0.58,-4.539879019763987,0.4573621834790123,-2.351016084609276
5.772299528121948,0.5,-0.96,9.56,-0.14,0.02,-0.02,-0.0,-0.05,0.82,0.58,-4.5398865986112975,0.4574865038717941,-2.351015962051299
5.77280592918396,0.5,-0.96,9.56,-0.03,0.01,-0.03,-0.0,-0.05,0.82,0.58,-4.539844911597047,0.4568026866931755,-2.3510166361744105
5.773267984390259,0.5,-0.96,9.56,-0.03,0.01,-0.03,-0.0,-0.05,0.82,0.58,-4.539806159949699,0.4561670201041146,-2.3510172628295347
5.773690938949585,0.57,-0.85,9.83,-0.03,0.01,-0.03,-0.0,-0.05,0.82,0.58,-4.539797563541595,0.456026008049363,-2.3510174018425456
5.774111747741699,0.57,-0.85,9.83,0.04,0.0,-0.02,-0.0,-0.05,0.82,0.58,-4.539801684017921,0.45609359870189803,-2.351017335210085
5.774506092071533,0.57,-0.85,9.83,0.04,0.0,-0.02,-0.0,-0.05,0.82,0.58,-4.539807105336225,0.45618252784814606,-2.351017247541635
5.774983167648315,0.57,-0.85,9.83,0.04,0.0,-0.02,-0.0,-0.05,0.82,0.58,-4.539810037684177,0.4562306289160579,-2.3510172001224667
5.775411367416382,0.57,-0.85,9.83,0.02,0.0,-0.02,-0.0,-0.05,0.82,0.58,-4.539810754698417,0.45624239053207943,-2.3510171885275883
5.775867462158203,0.57,-0.85,9.83,0.02,0.0,-0.02,-0.0,-0.05,0.82,0.58,-4.539810492644991,0.4562380919120434,-2.3510171927652697
5.835282325744629,0.42,-0.7,10.13,0.02,0.0,-0.02,-0.0,-0.05,0.82,0.58,-4.539810101502287,0.4562316757629239,-2.3510171990904607
5.835954904556274,0.42,-0.7,10.13,0.05,-0.0,-0.02,-0.0,-0.05,0.82,0.58,-4.539809880344864,0.45622804798463246,-2.35101720266681
5.836422681808472,0.42,-0.7,10.13,0.05,-0.0,-0.02,-0.0,-0.05,0.82,0.58,-4.539809821440621,0.45622708174291926,-2.3510172036193544
5.836883068084717,0.42,-0.7,10.13,0.05,-0.0,-0.02,-0.0,-0.05,0.82,0.58,-4.539809837595023,0.45622734673326504,-2.3510172033581203
5.837294578552246,0.42,-0.7,10.13,0.04,0.0,-0.01,-0.0,-0.05,0.82,0.58,-4.539809865709723,0.4562278079156059,-2.3510172029034764
5.837702512741089,0.42,-0.7,10.13,0.04,0.0,-0.01,-0.0,-0.05,0.82,0.58,-4.539809882336122,0.45622808064843906,-2.35101720263461
5.838135242462158,0.42,-0.7,10.13,-0.04,0.01,-0.01,-0.0,-0.05,0.82,0.58,-4.539809887115923,0.45622815905437797,-2.3510172025573146
5.838515043258667,0.42,-0.7,10.13,-0.04,0.01,-0.01,-0.0,-0.05,0.82,0.58,-4.539809886164251,0.4562281434435394,-2.3510172025727045
5.838901042938232,0.42,-0.7,10.13,-0.09,0.01,-0.02,-0.0,-0.05,0.82,0.58,-4.5398098841514685,0.4562281104266554,-2.351017202605253
5.8392884731292725,0.42,-0.7,10.13,-0.09,0.01,-0.02,-0.0,-0.05,0.82,0.58,-4.53980988290539,0.4562280899864904,-2.3510172026254037
5.839674472808838,0.5,-0.81,9.67,-0.09,0.01,-0.02,-0.0,-0.05,0.82,0.58,-4.539809882521496,0.45622808368924517,-2.3510172026316116
5.840057849884033,0.5,-0.81,9.67,-0.1,0.01,-0.01,-0.0,-0.05,0.82,0.58,-4.539809882573625,0.4562280845443516,-2.3510172026307683
5.840548276901245,0.5,-0.81,9.67,-0.1,0.01,-0.01,-0.0,-0.05,0.82,0.58,-4.539809882717109,0.4562280868979952,-2.351017202628448
5.840964317321777,0.5,-0.81,9.67,-0.1,0.01,-0.01,-0.0,-0.05,0.82,0.58,-4.539809882810213,0.4562280884252516,-2.3510172026269425
5.900800943374634,0.5,-0.81,9.67,-0.09,0.01,-0.01,-0.0,-0.05,0.82,0.58,-4.539809882840778,0.4562280889266204,-2.3510172026264486
5.901474475860596,0.5,-0.81,9.67,-0.09,0.01,-0.01,-0.0,-0.05,0.82,0.58,-4.5398098828382905,0.45622808888579663,-2.351017202626489
5.902016639709473,0.5,-0.81,9.67,-0.1,0.02,-0.05,-0.0,-0.05,0.82,0.58,-4.539809882828109,0.456228088718789,-2.351017202626654
5.902533531188965,0.5,-0.81,9.67,-0.1,0.02,-0.05,-0.0,-0.05,0.82,0.58,-4.539809882821173,0.4562280886050153,-2.351017202626766
5.9029552936553955,-0.31,-1.65,9.22,-0.1,0.02,-0.05,-0.0,-0.05,0.82,0.58,-4.539809882818757,0.4562280885653985,-2.3510172026268052
5.903460741043091,-0.31,-1.65,9.22,-0.1,0.02,-0.05,-0.0,-0.05,0.82,0.58,-4.539809882818839,0.4562280885667444,-2.351017202626804
5.903891563415527,-0.31,-1.65,9.22,-0.11,0.04,-0.09,-0.0,-0.05,0.82,0.58,-4.539809882819559,0.45622808857853514,-2.3510172026267924
5.904408693313599,-0.31,-1.65,9.22,-0.11,0.04,-0.09,-0.0,-0.05,0.82,0.58,-4.539809882820074,0.4562280885869857,-2.3510172026267835
5.904857873916626,-0.31,-1.65,9.22,-0.08,0.02,-0.1,-0.0,-0.05,0.82,0.58,-4.539809882820263,0.45622808859009545,-2.35101720262678
5.905311107635498,-0.31,-1.65,9.22,-0.08,0.02,-0.1,-0.0,-0.05,0.82,0.58,-4.539809882820265,0.45622808859012043,-2.35101720262678
5.9057440757751465,-0.31,-1.65,9.22,-0.15,0.0,-0.04,-0.0,-0.05,0.82,0.58,-4.539809882820214,0.45622808858929265,-2.351017202626781
5.906193017959595,-0.31,-1.65,9.22,-0.15,0.0,-0.04,-0.0,-0.05,0.81,0.58,-4.539932175642301,-0.21086837768048028,-2.4083138685367427
5.90662693977356,0.11,-0.39,10.18,-0.15,0.0,-0.04,-0.0,-0.05,0.81,0.58,-4.539932177637573,-0.21087926179266975,-2.408314803369046
5.90712833404541,0.11,-0.39,10.18,-0.15,0.0,-0.04,-0.0,-0.05,0.81,0.58,-4.539932182185921,-0.21090407262434135,-2.4083169343620945
5.907562971115112,0.11,-0.39,10.18,-0.23,-0.0,0.0,-0.0,-0.05,0.81,0.58,-4.539932188105253,-0.2109363620343513,-2.4083197076874447
5.966106414794922,0.11,-0.39,10.18,-0.23,-0.0,0.0,-0.0,-0.05,0.81,0.58,-4.53993218847551,-0.21093838174024107,-2.4083198811592323
5.966806173324585,0.11,-0.39,10.18,-0.27,-0.01,0.03,-0.0,-0.05,0.81,0.58,-4.539932168153998,-0.21082752969351173,-2.408310360118413
5.967473030090332,0.11,-0.39,10.18,-0.27,-0.01,0.03,-0.01,-0.05,0.81,0.58,-5.475203803266904,-0.2098716587553174,-1.7412373936736276
5.968172550201416,0.11,-0.89,9.64,-0.27,-0.01,0.03,-0.01,-0.05,0.81,0.58,-5.475218980568572,-0.20942290982047837,-1.741187968406475
5.968766689300537,0.11,-0.89,9.64,-0.25,0.0,0.05,-0.01,-0.05,0.81,0.58,-5.475253749177334,-0.2093341441763439,-1.7411555374543237
5.969255447387695,0.11,-0.89,9.64,-0.25,0.0,0.05,-0.01,-0.05,0.81,0.58,-5.475299108531062,-0.20982223148991583,-1.7411651747923225
5.969815015792847,0.11,-0.89,9.64,-0.25,0.0,0.05,-0.01,-0.05,0.81,0.58,-5.475302023347735,-0.21027597746134838,-1.7412021274778275
5.9704437255859375,0.11,-0.89,9.64,-0.29,-0.02,0.04,-0.01,-0.05,0.81,0.58,-5.47514662682415,-0.2103767409640305,-1.7413216165165637
5.971042156219482,0.11,-0.89,9.64,-0.29,-0.02,0.04,-0.01,-0.05,0.81,0.58,-5.474709903406041,-0.2103287946723986,-1.7416289422939093
5.97159218788147,0.11,-0.89,9.64,-0.36,-0.02,0.06,-0.01,-0.05,0.81,0.58,-5.474080758856517,-0.21026574922931643,-1.7420721947319449
5.972076892852783,0.11,-0.89,9.64,-0.36,-0.02,0.06,-0.01,-0.06,0.81,0.58,-6.13740166061332,-0.293831448777138,-2.682154623406389
5.9726722240448,0.42,-2.3,9.83,-0.36,-0.02,0.06,-0.01,-0.06,0.81,0.58,-6.138096827547214,-0.29382394565939424,-2.6816811572337995
5.973098993301392,0.42,-2.3,9.83,-0.36,-0.04,0.1,-0.01,-0.06,0.81,0.58,-6.138757659398335,-0.2938296850527988,-2.6812626676470486
5.973569631576538,0.42,-2.3,9.83,-0.36,-0.04,0.1,-0.01,-0.06,0.81,0.58,-6.1389308936002545,-0.2938382142443346,-2.6812079107458464
6.033547878265381,0.42,-2.3,9.83,-0.36,-0.04,0.1,-0.01,-0.06,0.81,0.58,-6.138865260008204,-0.293841103516334,-2.6812592226446186
6.034196138381958,0.42,-2.3,9.83,-0.29,-0.02,0.13,-0.01,-0.06,0.81,0.58,-6.138666017152127,-0.29382796266847444,-2.6811665558758944
6.034708023071289,0.42,-2.3,9.83,-0.29,-0.02,0.13,-0.01,-0.06,0.82,0.58,-6.126849666907548,0.3753358956232633,-2.6119175246142508
6.035168886184692,0.42,-2.3,9.83,-0.23,0.01,0.16,-0.01,-0.06,0.82,0.58,-6.126391426826214,0.37540336942424307,-2.6112924568119547
6.035577058792114,0.42,-2.3,9.83,-0.23,0.01,0.16,-0.01,-0.06,0.82,0.58,-6.126307046578372,0.3754395743637405,-2.611161766721766
6.0359718799591064,0.42,-2.3,9.83,-0.12,-0.01,0.16,-0.01,-0.06,0.82,0.58,-6.126798359979311,0.37541085174945626,-2.611841651256531
6.036350727081299,0.42,-2.3,9.83,-0.12,-0.01,0.16,-0.01,-0.06,0.82,0.57,-6.195372642712743,1.3100575867934519,-2.6000207558610535
6.036786079406738,0.42,-2.3,9.83,-0.04,-0.01,0.14,-0.01,-0.06,0.82,0.57,-6.195476730687364,1.3099490109045253,-2.6001731385249496
6.037172555923462,0.42,-2.3,9.83,-0.04,-0.01,0.14,-0.01,-0.06,0.82,0.57,-6.19543636628244,1.3096773658789176,-2.600137027278815
6.0376129150390625,0.73,0.15,9.45,-0.04,-0.01,0.14,-0.01,-0.06,0.82,0.57,-6.195383778239719,1.3092804557239013,-2.600093616452484
6.038170337677002,0.73,0.15,9.45,-0.04,-0.01,0.14,-0.01,-0.06,0.82,0.57,-6.195351088503804,1.3091985774335477,-2.6000545501879837
6.038613796234131,0.73,0.15,9.45,0.05,0.0,0.1,-0.01,-0.06,0.82,0.57,-6.195322956711648,1.3095339134994497,-2.5999944720530843
6.039060592651367,0.73,0.15,9.45,0.05,0.0,0.1,-0.01,-0.06,0.82,0.57,-6.1952864225312325,1.3095522091729013,-2.5999577745218536
6.0983359813690186,0.73,0.15,9.45,0.14,-0.01,0.06,-0.01,-0.06,0.82,0.57,-6.1952434593529295,1.309023848641493,-2.5999621965164135
6.099045276641846,0.73,0.15,9.45,0.14,-0.01,0.06,-0.01,-0.06,0.82,0.57,-6.195237822210743,1.308850789922289,-2.5999724671342626
6.099613189697266,0.42,-1.16,8.91,0.14,-0.01,0.06,-0.01,-0.06,0.82,0.57,-6.195289448196082,1.3094709582540873,-2.5999708703453193
6.100094795227051,0.42,-1.16,8.91,0.14,-0.01,0.06,-0.01,-0.06,0.82,0.57,-6.195336182681186,1.3100723107255383,-2.599965674465011
6.100626468658447,0.42,-1.16,8.91,0.22,0.0,-0.02,-0.01,-0.06,0.82,0.57,-6.1953462754965765,1.3102049654705046,-2.5999641990313997
6.101090669631958,0.42,-1.16,8.91,0.22,0.0,-0.02,-0.01,-0.06,0.82,0.57,-6.195341100969743,1.3101404661275475,-2.599964510114348
6.101552486419678,0.42,-1.16,8.91,0.3,0.01,-0.04,-0.01,-0.06,0.82,0.57,-6.195334484099458,1.3100561236137134,-2.599965144373879
6.102125883102417,0.42,-1.16,8.91,0.3,0.01,-0.04,-0.01,-0.06,0.82,0.57,-6.195330944658966,1.3100106108792402,-2.5999655339848675
6.102621793746948,-0.39,-0.16,8.6,0.3,0.01,-0.04,-0.01,-0.06,0.82,0.57,-6.195330099114603,1.3099995362410959,-2.599965652676829
6.103100061416626,-0.39,-0.16,8.6,0.3,0.01,-0.04,-0.01,-0.06,0.82,0.57,-6.195330430314252,1.310003643992728,-2.5999656353754625
6.1036763191223145,-0.39,-0.16,8.6,0.44,0.01,-0.06,-0.01,-0.06,0.82,0.57,-6.195330908151573,1.3100097304068803,-2.599965590127963
6.1041741371154785,-0.39,-0.16,8.6,0.44,0.01,-0.06,-0.01,-0.06,0.82,0.57,-6.1953311753156575,1.3100131635701624,-2.5999655610020627
6.104682207107544,-0.39,-0.16,8.6,0.56,0.01,-0.14,-0.01,-0.06,0.82,0.57,-6.1953312450236115,1.3100140740396613,-2.599965551539075
6.105147361755371,-0.39,-0.16,8.6,0.56,0.01,-0.14,-0.01,-0.05,0.82,0.57,-5.520461904045175,1.393318271748487,-1.671552771801341
6.163387060165405,0.8,-0.46,10.33,0.56,0.01,-0.14,-0.01,-0.05,0.82,0.57,-5.5204508587346615,1.393319193342907,-1.6715376273572933
6.164064645767212,0.8,-0.46,10.33,0.56,0.01,-0.14,-0.01,-0.05,0.82,0.57,-5.5204257387117766,1.393322033479206,-1.6715030997496396
6.164708137512207,0.8,-0.46,10.33,0.64,0.04,-0.16,-0.01,-0.05,0.82,0.57,-5.520393067400127,1.3933259917323517,-1.6714581626182266
6.165177583694458,0.8,-0.46,10.33,0.64,0.04,-0.16,-0.01,-0.05,0.82,0.57,-5.520391025390795,1.3933262589364146,-1.6714553517180772
6.165593862533569,0.8,-0.46,10.33,0.7,0.04,-0.16,-0.01,-0.05,0.82,0.57,-5.520503171523802,1.3933124474908911,-1.6716096267152591
6.166009902954102,0.8,-0.46,10.33,0.7,0.04,-0.16,-0.0,-0.05,0.82,0.58,-4.540187308184276,0.45619490751996217,-2.3515107182691666
6.166435480117798,-0.08,-0.85,9.98,0.7,0.04,-0.16,-0.0,-0.05,0.82,0.58,-4.540625276027738,0.4561235876783647,-2.3521463232663007
6.166944742202759,-0.08,-0.85,9.98,0.7,0.04,-0.16,-0.0,-0.05,0.82,0.58,-4.54067857974257,0.45607765304998615,-2.3522950979473003
6.167537212371826,-0.08,-0.85,9.98,0.66,0.03,-0.15,-0.0,-0.05,0.82,0.58,-4.540137308226021,0.45609324785090893,-2.351648660946386
6.168103218078613,-0.08,-0.85,9.98,0.66,0.03,-0.15,-0.0,-0.04,0.82,0.58,-3.874231981838735,0.5241118131914219,-1.4246188752029147
6.168775796890259,-0.08,-0.85,9.98,0.62,0.0,-0.13,-0.0,-0.04,0.82,0.58,-3.8742822477839356,0.5242812064378133,-1.4243507668629694
6.169339656829834,-0.08,-0.85,9.98,0.62,0.0,-0.13,0.0,-0.04,0.82,0.58,-3.87476420236639,0.5247152676352237,-1.4240661888582853
6.169803619384766,-0.08,-0.85,9.98,0.58,0.03,-0.11,0.0,-0.04,0.82,0.58,-3.875455856455746,0.525340978896786,-1.4236526332132236
6.17025899887085,-0.08,-0.85,9.98,0.58,0.03,-0.11,0.0,-0.04,0.82,0.58,-3.875619027219439,0.5254615536564444,-1.4236072261636812
6.17066502571106,1.15,-2.38,9.91,0.58,0.03,-0.11,0.0,-0.04,0.82,0.58,-3.8750205643969786,0.5247635454153188,-1.4242700218567372
6.229775667190552,1.15,-2.38,9.91,0.58,0.03,-0.11,0.0,-0.04,0.82,0.58,-3.8746611725961415,0.5240948078946501,-1.4251604862231866
6.230530738830566,1.15,-2.38,9.91,0.58,0.02,-0.07,0.0,-0.04,0.82,0.58,-3.874956200863698,0.5239082683699362,-1.4258798006848967
6.231070041656494,1.15,-2.38,9.91,0.58,0.02,-0.07,0.01,-0.03,0.82,0.58,-2.2842800007125463,0.5831695291353389,-1.1686758204503553
6.231507778167725,1.15,-2.38,9.91,0.56,0.02,-0.03,0.01,-0.03,0.82,0.58,-2.283859752501091,0.5833094809902014,-1.16792815413985
6.23193359375,1.15,-2.38,9.91,0.56,0.02,-0.03,0.01,-0.03,0.82,0.58,-2.2833986264352317,0.583406118845577,-1.1672537546861066
6.232396602630615,1.15,-2.38,9.91,0.56,0.01,-0.0,0.01,-0.03,0.82,0.58,-2.283233893071445,0.5834309917342464,-1.1670934265966655
6.232849359512329,1.15,-2.38,9.91,0.56,0.01,-0.0,0.01,-0.03,0.82,0.58,-2.283272890648984,0.5834219209308044,-1.1671630450378967
6.233361005783081,1.15,-2.38,9.91,0.55,0.01,0.05,0.01,-0.03,0.82,0.58,-2.283593886573244,0.5833991754377211,-1.1672986928215656
6.233858823776245,1.15,-2.38,9.91,0.55,0.01,0.05,0.01,-0.03,0.82,0.58,-2.2843671403427086,0.5833643973172947,-1.1674691278256522
6.23432469367981,0.54,-0.27,10.21,0.55,0.01,0.05,0.01,-0.03,0.82,0.58,-2.2854445893718496,0.5833227522675537,-1.167654518397819
6.234771251678467,0.54,-0.27,10.21,0.55,0.01,0.05,0.01,-0.03,0.82,0.58,-2.2856534152100063,0.5833154569337723,-1.1676842686920152
6.235203742980957,0.54,-0.27,10.21,0.52,0.02,0.1,0.01,-0.03,0.82,0.58,-2.2844853038856763,0.5833597051452869,-1.1674893176671826
6.235626459121704,0.54,-0.27,10.21,0.52,0.02,0.1,0.01,-0.02,0.82,0.58,-1.6152520778759405,0.6261949375663559,-0.24301621275962956
6.2360780239105225,0.54,-0.27,10.21,0.48,0.01,0.12,0.01,-0.02,0.82,0.58,-1.6150005359586252,0.6262047173272651,-0.2429613003508153
6.2959816455841064,0.54,-0.27,10.21,0.48,0.01,0.12,0.02,-0.02,0.82,0.58,-0.6915278567755231,0.6354427164319205,-0.9116941069318263
6.29665732383728,0.54,0.03,9.64,0.48,0.01,0.12,0.02,-0.02,0.82,0.58,-0.6916321208951568,0.6354392383807498,-0.9116852425899782
6.2971510887146,0.54,0.03,9.64,0.48,0.01,0.12,0.02,-0.02,0.82,0.58,-0.6916778009604001,0.6354366241851638,-0.9117208434624613
6.2976155281066895,0.54,0.03,9.64,0.44,0.01,0.13,0.02,-0.02,0.82,0.58,-0.6917641949602634,0.635429203193975,-0.9119101236927941
6.298037528991699,0.54,0.03,9.64,0.44,0.01,0.13,0.02,-0.02,0.82,0.58,-0.69206605576705,0.6354095231088965,-0.9123425376274813
6.2984912395477295,0.54,0.03,9.64,0.45,0.02,0.13,0.02,-0.02,0.82,0.58,-0.692658028550411,0.635379612088887,-0.9128513590194395
6.298911094665527,0.54,0.03,9.64,0.45,0.02,0.13,0.02,-0.01,0.82,0.58,-0.02423364917982597,0.6638326491738913,0.010684204557296975
6.299354314804077,0.19,0.3,10.14,0.45,0.02,0.13,0.02,-0.01,0.82,0.58,-0.024353454555348437,0.6638582726778292,0.01182570341569291
6.299783229827881,0.19,0.3,10.14,0.45,0.02,0.13,0.02,-0.01,0.82,0.58,-0.023997421716624508,0.6638871931777482,0.012577621925166907
6.357313871383667,0.19,0.3,10.14,0.43,0.01,0.14,0.02,-0.01,0.82,0.58,-0.023189237827936405,0.6639017599384739,0.01227232227457516
6.35797905921936,0.19,0.3,10.14,0.43,0.01,0.14,0.02,-0.01,0.82,0.57,-0.03447543981908005,1.60023444212164,-0.010853951128655448
