Timestamp,AccelX,AccelY,AccelZ,GyroX,GyroY,GyroZ,QuatW,QuatX,QuatY,QuatZ,Tilt,Obliquity,Rotation
2.386075019836426,0.23,0.04,9.76,0.0,0.0,0.0,0.01,-0.0,0.84,0.54,1.062400760692063e-14,6.270092254057636e-14,-6.823103437282405e-15
2.3864662647247314,0.23,0.04,9.76,0.0,0.0,0.0,0.01,-0.0,0.84,0.54,1.062400760692063e-14,6.270092254057636e-14,-6.823103437282405e-15
2.3866968154907227,0.23,0.04,9.76,0.0,0.0,0.0,0.01,-0.0,0.84,0.54,1.062400760692063e-14,6.270092254057636e-14,-6.823103437282405e-15
2.386897087097168,0.23,0.04,9.76,0.0,0.0,0.0,0.01,-0.0,0.84,0.54,1.062400760692063e-14,6.270092254057636e-14,-6.823103437282405e-15
2.3870794773101807,0.23,0.04,9.76,0.0,0.0,0.0,0.01,-0.0,0.84,0.54,1.062400760692063e-14,6.270092254057636e-14,-6.823103437282405e-15
2.387467622756958,0.23,0.04,9.76,0.0,0.0,0.0,0.01,-0.0,0.84,0.54,1.062400760692063e-14,6.270092254057636e-14,-6.823103437282405e-15
2.3877077102661133,0.23,0.04,9.76,0.0,0.0,0.0,0.01,-0.0,0.84,0.54,1.062400760692063e-14,6.270092254057636e-14,-6.823103437282405e-15
2.3879799842834473,0.23,0.04,9.76,0.0,0.0,0.0,0.01,-0.0,0.84,0.54,1.062400760692063e-14,6.270092254057636e-14,-6.823103437282405e-15
2.388202667236328,0.23,0.04,9.76,0.0,0.0,0.0,0.01,-0.0,0.84,0.54,1.062400760692063e-14,6.270092254057636e-14,-6.823103437282405e-15
2.3883910179138184,0.23,0.04,9.76,0.0,0.0,0.0,0.01,-0.0,0.84,0.54,1.062400760692063e-14,6.270092254057636e-14,-6.823103437282405e-15
2.388563632965088,0.23,0.04,9.76,0.0,0.0,0.0,0.01,-0.0,0.84,0.54,1.062400760692063e-14,6.270092254057636e-14,-6.823103437282405e-15
2.3887290954589844,0.23,0.04,9.76,0.0,0.0,0.0,0.01,-0.0,0.84,0.54,1.062400760692063e-14,6.270092254057636e-14,-6.823103437282405e-15
2.388892650604248,0.23,0.04,9.76,0.0,0.0,0.0,0.01,-0.0,0.84,0.54,1.062400760692063e-14,6.270092254057636e-14,-6.823103437282405e-15
2.3890535831451416,0.23,0.04,9.76,0.0,0.0,0.0,0.01,-0.0,0.84,0.54,1.062400760692063e-14,6.270092254057636e-14,-6.823103437282405e-15
2.389216423034668,0.23,0.04,9.76,0.0,0.0,0.0,0.01,-0.0,0.84,0.54,1.062400760692063e-14,6.270092254057636e-14,-6.823103437282405e-15
2.389373779296875,0.23,0.04,9.76,0.0,0.0,0.0,0.01,-0.0,0.84,0.54,1.062400760692063e-14,6.270092254057636e-14,-6.823103437282405e-15
2.3895363807678223,0.23,0.04,9.76,0.0,0.0,0.0,0.01,-0.0,0.84,0.54,1.062400760692063e-14,6.270092254057636e-14,-6.823103437282405e-15
2.3897171020507812,0.23,0.04,9.76,0.0,0.0,0.0,0.01,-0.0,0.84,0.54,1.062400760692063e-14,6.270092254057636e-14,-6.823103437282405e-15
2.4702911376953125,0.23,0.04,9.76,0.0,0.0,0.0,0.01,-0.0,0.84,0.54,1.062400760692063e-14,6.270092254057636e-14,-6.823103437282405e-15
2.470644474029541,0.23,0.04,9.76,0.0,0.0,0.0,0.01,-0.0,0.84,0.54,1.062400760692063e-14,6.270092254057636e-14,-6.823103437282405e-15
2.4709410667419434,0.23,0.04,9.76,0.0,0.0,0.0,0.01,-0.0,0.84,0.54,1.062400760692063e-14,6.270092254057636e-14,-6.823103437282405e-15
2.4712154865264893,0.27,0.04,9.84,0.0,0.0,0.0,0.01,-0.0,0.84,0.54,1.062400760692063e-14,6.270092254057636e-14,-6.823103437282405e-15
2.4714152812957764,0.27,0.04,9.84,0.0,0.0,0.0,0.01,-0.0,0.84,0.54,1.062400760692063e-14,6.270092254057636e-14,-6.823103437282405e-15
2.4717209339141846,0.27,0.04,9.84,0.0,0.0,0.0,0.01,-0.0,0.84,0.54,1.062400760692063e-14,6.270092254057636e-14,-6.823103437282405e-15
2.472038745880127,0.27,0.04,9.84,0.0,0.0,0.0,0.01,-0.0,0.84,0.54,1.062400760692063e-14,6.270092254057636e-14,-6.823103437282405e-15
2.4722468852996826,0.27,0.04,9.84,0.0,0.0,0.0,0.01,-0.0,0.84,0.54,1.062400760692063e-14,6.270092254057636e-14,-6.823103437282405e-15
2.472404718399048,0.27,0.04,9.84,0.0,0.0,0.0,0.01,-0.0,0.84,0.54,1.062400760692063e-14,6.270092254057636e-14,-6.823103437282405e-15
2.4726145267486572,0.27,0.04,9.84,0.0,0.0,0.0,0.01,-0.0,0.84,0.54,1.062400760692063e-14,6.270092254057636e-14,-6.823103437282405e-15
2.472897529602051,0.27,0.04,9.84,0.0,0.0,0.0,0.01,-0.0,0.84,0.54,1.062400760692063e-14,6.270092254057636e-14,-6.823103437282405e-15
2.4730989933013916,0.27,0.04,9.84,0.0,0.0,0.0,0.01,-0.0,0.84,0.54,1.062400760692063e-14,6.270092254057636e-14,-6.823103437282405e-15
2.473308563232422,0.27,0.04,9.84,0.0,0.0,0.0,0.01,-0.0,0.84,0.54,1.062400760692063e-14,6.270092254057636e-14,-6.823103437282405e-15
2.4734983444213867,0.27,0.04,9.84,0.0,0.0,0.0,0.01,-0.0,0.84,0.54,1.062400760692063e-14,6.270092254057636e-14,-6.823103437282405e-15
2.4736554622650146,0.27,0.04,9.84,0.0,0.0,0.0,0.01,-0.0,0.84,0.54,1.062400760692063e-14,6.270092254057636e-14,-6.823103437282405e-15
2.4738054275512695,0.23,0.07,9.84,0.0,0.0,0.0,0.01,-0.0,0.84,0.54,1.062400760692063e-14,6.270092254057636e-14,-6.823103437282405e-15
2.47395658493042,0.23,0.07,9.84,0.0,0.0,0.0,0.01,-0.0,0.84,0.54,1.062400760692063e-14,6.270092254057636e-14,-6.823103437282405e-15
2.562539577484131,0.23,0.07,9.84,0.0,0.0,0.0,0.01,-0.0,0.84,0.54,1.062400760692063e-14,6.270092254057636e-14,-6.823103437282405e-15
2.562908411026001,0.23,0.07,9.84,0.0,0.0,0.0,0.01,-0.0,0.84,0.54,1.062400760692063e-14,6.270092254057636e-14,-6.823103437282405e-15
2.563159465789795,0.23,0.07,9.84,0.0,0.0,0.0,0.01,-0.0,0.84,0.54,1.062400760692063e-14,6.270092254057636e-14,-6.823103437282405e-15
2.5633509159088135,0.23,0.07,9.84,0.0,0.0,0.0,0.01,-0.0,0.84,0.54,1.062400760692063e-14,6.270092254057636e-14,-6.823103437282405e-15
2.5635159015655518,0.23,0.07,9.84,0.0,0.0,0.0,0.01,-0.0,0.84,0.54,1.062400760692063e-14,6.270092254057636e-14,-6.823103437282405e-15
2.563830852508545,0.23,0.07,9.84,0.0,0.0,0.0,0.01,-0.0,0.84,0.54,1.062400760692063e-14,6.270092254057636e-14,-6.823103437282405e-15
2.564096212387085,0.23,0.07,9.84,0.0,0.0,0.0,0.01,-0.0,0.84,0.54,1.062400760692063e-14,6.270092254057636e-14,-6.823103437282405e-15
2.564305305480957,0.23,0.07,9.84,0.0,0.0,0.0,0.01,-0.0,0.84,0.54,1.062400760692063e-14,6.270092254057636e-14,-6.823103437282405e-15
2.564481258392334,0.23,0.07,9.84,0.0,0.0,0.0,0.01,-0.0,0.84,0.54,1.062400760692063e-14,6.270092254057636e-14,-6.823103437282405e-15
2.5646843910217285,0.23,0.07,9.84,0.0,0.0,0.0,0.01,-0.0,0.84,0.54,1.062400760692063e-14,6.270092254057636e-14,-6.823103437282405e-15
2.5649397373199463,0.23,0.07,9.84,0.0,0.0,0.0,0.01,-0.0,0.84,0.54,1.062400760692063e-14,6.270092254057636e-14,-6.823103437282405e-15
2.5651497840881348,0.23,0.07,9.84,0.0,0.0,0.0,0.01,-0.0,0.84,0.54,1.062400760692063e-14,6.270092254057636e-14,-6.823103437282405e-15
2.5653576850891113,0.23,0.07,9.76,0.0,0.0,0.0,0.01,-0.0,0.84,0.54,1.062400760692063e-14,6.270092254057636e-14,-6.823103437282405e-15
2.565553903579712,0.23,0.07,9.76,0.0,0.0,0.0,0.01,-0.0,0.84,0.54,1.062400760692063e-14,6.270092254057636e-14,-6.823103437282405e-15
2.565808057785034,0.23,0.07,9.76,0.0,0.0,0.0,0.01,-0.0,0.84,0.54,1.062400760692063e-14,6.270092254057636e-14,-6.823103437282405e-15
2.5660793781280518,0.23,0.07,9.76,0.0,0.0,0.0,0.01,-0.0,0.84,0.54,1.062400760692063e-14,6.270092254057636e-14,-6.823103437282405e-15
2.5663208961486816,0.23,0.07,9.76,0.0,0.0,0.0,0.01,-0.0,0.84,0.54,1.062400760692063e-14,6.270092254057636e-14,-6.823103437282405e-15
2.5665626525878906,0.23,0.07,9.76,0.0,0.0,0.0,0.01,-0.0,0.84,0.54,1.062400760692063e-14,6.270092254057636e-14,-6.823103437282405e-15
2.56679105758667,0.23,0.07,9.76,0.0,0.0,0.0,0.01,-0.0,0.84,0.54,1.062400760692063e-14,6.270092254057636e-14,-6.823103437282405e-15
2.567004919052124,0.23,0.07,9.76,0.0,0.0,0.0,0.01,-0.0,0.84,0.54,1.062400760692063e-14,6.270092254057636e-14,-6.823103437282405e-15
2.6501147747039795,0.19,0.07,9.84,0.0,0.0,0.0,0.01,-0.0,0.84,0.54,1.062400760692063e-14,6.270092254057636e-14,-6.823103437282405e-15
2.650501251220703,0.19,0.07,9.84,0.0,0.0,0.0,0.01,-0.0,0.84,0.54,1.062400760692063e-14,6.270092254057636e-14,-6.823103437282405e-15
2.6507623195648193,0.19,0.07,9.84,0.0,0.0,0.0,0.01,-0.0,0.84,0.54,1.062400760692063e-14,6.270092254057636e-14,-6.823103437282405e-15
2.6509406566619873,0.19,0.07,9.84,0.0,0.0,0.0,0.01,-0.0,0.84,0.54,1.062400760692063e-14,6.270092254057636e-14,-6.823103437282405e-15
2.6511590480804443,0.19,0.07,9.84,0.0,0.0,0.0,0.01,-0.0,0.84,0.54,1.062400760692063e-14,6.270092254057636e-14,-6.823103437282405e-15
2.651482105255127,0.19,0.07,9.84,0.0,0.0,0.0,0.01,-0.0,0.84,0.54,1.062400760692063e-14,6.270092254057636e-14,-6.823103437282405e-15
2.651686191558838,0.19,0.07,9.84,0.0,0.0,0.0,0.01,-0.0,0.84,0.54,1.062400760692063e-14,6.270092254057636e-14,-6.823103437282405e-15
2.6518969535827637,0.19,0.07,9.84,0.0,0.0,0.0,0.01,-0.0,0.84,0.54,1.062400760692063e-14,6.270092254057636e-14,-6.823103437282405e-15
2.65207576751709,0.19,0.07,9.84,0.0,0.0,0.0,0.01,-0.0,0.84,0.54,1.062400760692063e-14,6.270092254057636e-14,-6.823103437282405e-15
2.652252674102783,0.19,0.07,9.84,0.0,0.0,0.0,0.01,-0.0,0.84,0.54,1.062400760692063e-14,6.270092254057636e-14,-6.823103437282405e-15
2.6524131298065186,0.27,0.04,9.8,0.0,0.0,0.0,0.01,-0.0,0.84,0.54,1.062400760692063e-14,6.270092254057636e-14,-6.823103437282405e-15
2.652627468109131,0.27,0.04,9.8,0.0,0.0,0.0,0.01,-0.0,0.84,0.54,1.062400760692063e-14,6.270092254057636e-14,-6.823103437282405e-15
2.65291166305542,0.27,0.04,9.8,0.0,0.0,0.0,0.01,-0.0,0.84,0.54,1.062400760692063e-14,6.270092254057636e-14,-6.823103437282405e-15
2.653271198272705,0.27,0.04,9.8,0.0,0.0,0.0,0.01,-0.0,0.84,0.54,1.062400760692063e-14,6.270092254057636e-14,-6.823103437282405e-15
2.653500556945801,0.27,0.04,9.8,0.0,0.0,0.0,0.01,-0.0,0.84,0.54,1.062400760692063e-14,6.270092254057636e-14,-6.823103437282405e-15
2.6537675857543945,0.27,0.04,9.8,0.0,0.0,0.0,0.01,-0.0,0.84,0.54,1.062400760692063e-14,6.270092254057636e-14,-6.823103437282405e-15
2.6539831161499023,0.23,0.04,9.88,0.0,0.0,0.0,0.01,-0.0,0.84,0.54,1.062400760692063e-14,6.270092254057636e-14,-6.823103437282405e-15
2.6542539596557617,0.23,0.04,9.88,0.0,0.0,0.0,0.01,-0.0,0.84,0.54,1.062400760692063e-14,6.270092254057636e-14,-6.823103437282405e-15
2.7403910160064697,0.23,0.04,9.88,0.0,0.0,0.0,0.01,-0.0,0.84,0.54,1.062400760692063e-14,6.270092254057636e-14,-6.823103437282405e-15
2.7407748699188232,0.23,0.04,9.88,0.0,0.0,0.0,0.01,-0.0,0.84,0.54,1.062400760692063e-14,6.270092254057636e-14,-6.823103437282405e-15
2.7410571575164795,0.23,0.04,9.88,0.0,0.0,0.0,0.01,-0.0,0.84,0.54,1.062400760692063e-14,6.270092254057636e-14,-6.823103437282405e-15
2.741302013397217,0.23,0.04,9.88,0.0,0.0,0.0,0.01,-0.0,0.84,0.54,1.062400760692063e-14,6.270092254057636e-14,-6.823103437282405e-15
2.7415289878845215,0.23,0.04,9.8,0.0,0.0,0.0,0.01,-0.0,0.84,0.54,1.062400760692063e-14,6.270092254057636e-14,-6.823103437282405e-15
2.7418057918548584,0.23,0.04,9.8,0.0,0.0,0.0,0.01,-0.0,0.84,0.54,1.062400760692063e-14,6.270092254057636e-14,-6.823103437282405e-15
2.7420175075531006,0.23,0.04,9.8,0.0,0.0,0.0,0.01,-0.0,0.84,0.54,1.062400760692063e-14,6.270092254057636e-14,-6.823103437282405e-15
2.7422831058502197,0.23,0.04,9.8,0.0,0.0,0.0,0.01,-0.0,0.84,0.54,1.062400760692063e-14,6.270092254057636e-14,-6.823103437282405e-15
2.742487907409668,0.23,0.04,9.8,0.0,0.0,0.0,0.01,-0.0,0.84,0.54,1.062400760692063e-14,6.270092254057636e-14,-6.823103437282405e-15
2.742680549621582,0.23,0.04,9.8,0.0,0.0,0.0,0.01,-0.0,0.84,0.54,1.062400760692063e-14,6.270092254057636e-14,-6.823103437282405e-15
2.7429003715515137,0.23,-0.0,9.76,0.0,0.0,0.0,0.01,-0.0,0.84,0.54,1.062400760692063e-14,6.270092254057636e-14,-6.823103437282405e-15
2.7430851459503174,0.23,-0.0,9.76,0.0,0.0,0.0,0.01,-0.0,0.84,0.54,1.062400760692063e-14,6.270092254057636e-14,-6.823103437282405e-15
2.743239402770996,0.23,-0.0,9.76,0.0,0.0,0.0,0.01,-0.0,0.84,0.54,1.062400760692063e-14,6.270092254057636e-14,-6.823103437282405e-15
2.743382215499878,0.23,-0.0,9.76,0.0,0.0,0.0,0.01,-0.0,0.84,0.54,1.062400760692063e-14,6.270092254057636e-14,-6.823103437282405e-15
2.7435226440429688,0.23,-0.0,9.76,0.0,0.0,0.0,0.01,-0.0,0.84,0.54,1.062400760692063e-14,6.270092254057636e-14,-6.823103437282405e-15
2.7437186241149902,0.23,-0.0,9.76,0.0,0.0,0.0,0.01,-0.0,0.84,0.54,1.062400760692063e-14,6.270092254057636e-14,-6.823103437282405e-15
2.7439310550689697,0.23,-0.0,9.76,0.0,0.0,0.0,0.01,-0.0,0.84,0.54,1.062400760692063e-14,6.270092254057636e-14,-6.823103437282405e-15
2.7441015243530273,0.23,-0.0,9.76,0.0,0.0,0.0,0.01,-0.0,0.84,0.54,1.062400760692063e-14,6.270092254057636e-14,-6.823103437282405e-15
2.8551383018493652,0.27,0.04,9.8,0.0,0.0,0.0,0.01,-0.0,0.84,0.54,1.062400760692063e-14,6.270092254057636e-14,-6.823103437282405e-15
2.8557631969451904,0.27,0.04,9.8,0.0,0.0,0.0,0.01,-0.0,0.84,0.54,1.062400760692063e-14,6.270092254057636e-14,-6.823103437282405e-15
2.856095552444458,0.27,0.04,9.8,0.0,0.0,0.0,0.01,-0.0,0.84,0.54,1.062400760692063e-14,6.270092254057636e-14,-6.823103437282405e-15
2.8563578128814697,0.27,0.04,9.8,0.0,0.0,0.0,0.01,-0.0,0.84,0.54,1.062400760692063e-14,6.270092254057636e-14,-6.823103437282405e-15
2.856560707092285,0.27,0.04,9.8,0.0,0.0,0.0,0.01,-0.0,0.84,0.54,1.062400760692063e-14,6.270092254057636e-14,-6.823103437282405e-15
2.856773853302002,0.27,0.04,9.8,0.0,0.0,0.0,0.01,-0.0,0.84,0.54,1.062400760692063e-14,6.270092254057636e-14,-6.823103437282405e-15
2.8570826053619385,0.27,0.04,9.8,0.0,0.0,0.0,0.01,-0.0,0.84,0.54,1.062400760692063e-14,6.270092254057636e-14,-6.823103437282405e-15
2.8573222160339355,0.27,0.04,9.8,0.0,0.0,0.0,0.01,-0.0,0.84,0.54,1.062400760692063e-14,6.270092254057636e-14,-6.823103437282405e-15
2.8576133251190186,0.27,0.04,9.8,0.0,0.0,0.0,0.01,-0.0,0.84,0.54,1.0624007606920627e-14,6.270092254057634e-14,-6.8231034372824035e-15
2.858821392059326,0.27,0.04,9.8,0.0,0.0,0.0,0.01,-0.0,0.84,0.54,1.0624007606920627e-14,6.270092254057634e-14,-6.8231034372824035e-15
2.8598430156707764,0.27,0.07,9.84,0.0,0.0,0.0,0.01,-0.0,0.84,0.54,1.0624007606920627e-14,6.270092254057634e-14,-6.8231034372824035e-15
2.861069440841675,0.27,0.07,9.84,0.0,0.0,0.0,0.01,-0.0,0.84,0.54,1.0624007606920627e-14,6.270092254057634e-14,-6.8231034372824035e-15
2.862302780151367,0.27,0.07,9.84,0.0,0.0,0.0,0.01,-0.0,0.84,0.54,1.0624007606920627e-14,6.270092254057634e-14,-6.8231034372824035e-15
2.863497018814087,0.27,0.07,9.84,0.0,0.0,0.0,0.01,-0.0,0.84,0.54,1.0624007606920627e-14,6.270092254057634e-14,-6.8231034372824035e-15
2.864598512649536,0.27,0.07,9.84,0.0,0.0,0.0,0.01,-0.0,0.84,0.54,1.0624007606920627e-14,6.270092254057634e-14,-6.8231034372824035e-15
2.8655285835266113,0.27,0.07,9.84,0.0,0.0,0.0,0.01,-0.0,0.84,0.54,1.0624007606920627e-14,6.270092254057634e-14,-6.8231034372824035e-15
2.8670494556427,0.27,0.07,9.84,0.0,0.0,0.0,0.01,-0.0,0.84,0.54,1.0624007606920627e-14,6.270092254057634e-14,-6.8231034372824035e-15
2.868072509765625,0.27,0.07,9.84,0.0,0.0,0.0,0.01,-0.0,0.84,0.54,1.0624007606920627e-14,6.270092254057634e-14,-6.8231034372824035e-15
2.869427442550659,0.27,0.04,9.76,0.0,0.0,0.0,0.01,-0.0,0.84,0.54,1.0624007606920627e-14,6.270092254057634e-14,-6.8231034372824035e-15
2.8705196380615234,0.27,0.04,9.76,0.0,0.0,0.0,0.01,-0.0,0.84,0.54,1.0624007606920627e-14,6.270092254057634e-14,-6.8231034372824035e-15
2.871588706970215,0.27,0.04,9.76,0.0,0.0,0.0,0.01,-0.0,0.84,0.54,1.0624007606920627e-14,6.270092254057634e-14,-6.8231034372824035e-15
2.8726775646209717,0.27,0.04,9.76,0.0,0.0,0.0,0.01,-0.0,0.84,0.54,1.0624007606920627e-14,6.270092254057634e-14,-6.8231034372824035e-15
2.8737905025482178,0.27,0.04,9.76,0.0,0.0,0.0,0.01,-0.0,0.84,0.54,1.0624007606920627e-14,6.270092254057634e-14,-6.8231034372824035e-15
2.8748934268951416,0.27,0.04,9.76,0.0,0.0,0.0,0.01,-0.0,0.84,0.54,1.0624007606920627e-14,6.270092254057634e-14,-6.8231034372824035e-15
2.8759605884552,0.19,0.07,9.76,0.0,0.0,0.0,0.01,-0.0,0.84,0.54,1.0624007606920627e-14,6.270092254057634e-14,-6.8231034372824035e-15
2.8768508434295654,0.19,0.07,9.76,0.0,0.0,0.0,0.01,-0.0,0.84,0.54,1.0624007606920627e-14,6.270092254057634e-14,-6.8231034372824035e-15
2.8778679370880127,0.19,0.07,9.76,0.0,0.0,0.0,0.01,-0.0,0.84,0.54,1.0624007606920627e-14,6.270092254057634e-14,-6.8231034372824035e-15
2.8787472248077393,0.19,0.07,9.76,0.0,0.0,0.0,0.01,-0.0,0.84,0.54,1.0624007606920627e-14,6.270092254057634e-14,-6.8231034372824035e-15
2.879389762878418,0.19,0.07,9.76,0.0,0.0,0.0,0.01,-0.0,0.84,0.54,1.0624007606920627e-14,6.270092254057634e-14,-6.8231034372824035e-15
2.880908727645874,0.19,0.07,9.76,0.0,0.0,0.0,0.01,-0.0,0.84,0.54,1.0624007606920627e-14,6.270092254057634e-14,-6.8231034372824035e-15
2.9806690216064453,0.19,0.07,9.76,0.0,0.0,0.0,0.01,-0.0,0.84,0.54,1.0624007606920627e-14,6.270092254057634e-14,-6.8231034372824035e-15
2.981865644454956,0.19,0.07,9.76,0.0,0.0,0.0,0.01,-0.0,0.84,0.54,1.0624007606920627e-14,6.270092254057634e-14,-6.8231034372824035e-15
2.982632875442505,0.23,-0.0,9.8,0.0,0.0,0.0,0.01,-0.0,0.84,0.54,1.0624007606920627e-14,6.270092254057634e-14,-6.8231034372824035e-15
2.983295202255249,0.23,-0.0,9.8,0.0,0.0,0.0,0.01,-0.0,0.84,0.54,1.0624007606920627e-14,6.270092254057634e-14,-6.8231034372824035e-15
2.98394513130188,0.23,-0.0,9.8,0.0,0.0,0.0,0.01,-0.0,0.84,0.54,1.0624007606920627e-14,6.270092254057634e-14,-6.8231034372824035e-15
2.9845194816589355,0.23,-0.0,9.8,0.0,0.0,0.0,0.01,-0.0,0.84,0.54,1.0624007606920627e-14,6.270092254057634e-14,-6.8231034372824035e-15
2.9850077629089355,0.23,-0.0,9.8,0.0,0.0,0.0,0.01,-0.0,0.84,0.54,1.0624007606920627e-14,6.270092254057634e-14,-6.8231034372824035e-15
2.985527276992798,0.23,-0.0,9.8,0.0,0.0,0.0,0.01,-0.0,0.84,0.54,1.0624007606920627e-14,6.270092254057634e-14,-6.8231034372824035e-15
2.9861464500427246,0.23,-0.0,9.8,0.0,0.0,0.0,0.01,-0.0,0.84,0.54,1.0624007606920627e-14,6.270092254057634e-14,-6.8231034372824035e-15
2.9870502948760986,0.23,-0.0,9.8,0.0,0.0,0.0,0.01,-0.0,0.84,0.54,1.0624007606920627e-14,6.270092254057634e-14,-6.8231034372824035e-15
2.9877405166625977,0.27,0.07,9.76,0.0,0.0,0.0,0.01,-0.0,0.84,0.54,1.0624007606920627e-14,6.270092254057634e-14,-6.8231034372824035e-15
2.988342761993408,0.27,0.07,9.76,0.0,0.0,0.0,0.01,-0.0,0.84,0.54,1.0624007606920627e-14,6.270092254057634e-14,-6.8231034372824035e-15
2.988828420639038,0.27,0.07,9.76,0.0,0.0,0.0,0.01,-0.0,0.84,0.54,1.0624007606920627e-14,6.270092254057634e-14,-6.8231034372824035e-15
2.989445686340332,0.27,0.07,9.76,0.0,0.0,0.0,0.01,-0.0,0.84,0.54,1.0624007606920627e-14,6.270092254057634e-14,-6.8231034372824035e-15
2.9900705814361572,0.27,0.07,9.76,0.0,0.0,0.0,0.01,-0.0,0.84,0.54,1.0624007606920627e-14,6.270092254057634e-14,-6.8231034372824035e-15
2.9906556606292725,0.27,0.07,9.76,0.0,0.0,0.0,0.01,-0.0,0.84,0.54,1.0624007606920627e-14,6.270092254057634e-14,-6.8231034372824035e-15
2.9912495613098145,0.27,0.11,9.84,0.0,0.0,0.0,0.01,-0.0,0.84,0.54,1.0624007606920627e-14,6.270092254057634e-14,-6.8231034372824035e-15
2.991910219192505,0.27,0.11,9.84,0.0,0.0,0.0,0.01,-0.0,0.84,0.54,1.0624007606920627e-14,6.270092254057634e-14,-6.8231034372824035e-15
2.9924957752227783,0.27,0.11,9.84,0.0,0.0,0.0,0.01,-0.0,0.84,0.54,1.0624007606920627e-14,6.270092254057634e-14,-6.8231034372824035e-15
2.9931728839874268,0.27,0.11,9.84,0.0,0.0,0.0,0.01,-0.0,0.84,0.54,1.0624007606920627e-14,6.270092254057634e-14,-6.8231034372824035e-15
2.99377179145813,0.27,0.11,9.84,0.0,0.0,0.0,0.01,-0.0,0.84,0.54,1.0624007606920627e-14,6.270092254057634e-14,-6.8231034372824035e-15
2.9943108558654785,0.27,0.11,9.84,0.0,0.0,0.0,0.01,-0.0,0.84,0.54,1.0624007606920627e-14,6.270092254057634e-14,-6.8231034372824035e-15
2.994863748550415,0.27,0.11,9.84,0.0,0.0,0.0,0.01,-0.0,0.84,0.54,1.0624007606920627e-14,6.270092254057634e-14,-6.8231034372824035e-15
3.0891294479370117,0.27,0.11,9.84,0.0,0.0,0.0,0.01,-0.0,0.84,0.54,1.0624007606920627e-14,6.270092254057634e-14,-6.8231034372824035e-15
3.0900444984436035,0.27,0.11,9.84,0.0,0.0,0.0,0.01,-0.0,0.84,0.54,1.0624007606920627e-14,6.270092254057634e-14,-6.8231034372824035e-15
3.0905988216400146,0.27,0.11,9.84,0.0,0.0,0.0,0.01,-0.0,0.84,0.54,1.0624007606920627e-14,6.270092254057634e-14,-6.8231034372824035e-15
3.0913872718811035,0.27,0.11,9.84,0.0,0.0,0.0,0.01,-0.0,0.84,0.54,1.0624007606920627e-14,6.270092254057634e-14,-6.8231034372824035e-15
3.092029094696045,0.27,0.11,9.84,0.0,0.0,0.0,0.01,-0.0,0.84,0.54,1.0624007606920627e-14,6.270092254057634e-14,-6.8231034372824035e-15
3.092766761779785,0.27,0.11,9.84,0.0,0.0,0.0,0.01,-0.0,0.84,0.54,1.0624007606920627e-14,6.270092254057634e-14,-6.8231034372824035e-15
3.094186305999756,0.27,0.11,9.84,0.0,0.0,0.0,0.01,-0.0,0.84,0.54,1.0624007606920627e-14,6.270092254057634e-14,-6.8231034372824035e-15
3.094932794570923,0.23,0.04,9.76,0.0,0.0,0.0,0.01,-0.0,0.84,0.54,1.0624007606920627e-14,6.270092254057634e-14,-6.8231034372824035e-15
3.095698118209839,0.23,0.04,9.76,0.0,0.0,0.0,0.01,-0.0,0.84,0.54,1.0624007606920627e-14,6.270092254057634e-14,-6.8231034372824035e-15
3.0966808795928955,0.23,0.04,9.76,0.0,0.0,0.0,0.01,-0.0,0.84,0.54,1.0624007606920627e-14,6.270092254057634e-14,-6.8231034372824035e-15
3.0973753929138184,0.23,0.04,9.76,0.0,0.0,0.0,0.01,-0.0,0.84,0.54,1.0624007606920627e-14,6.270092254057634e-14,-6.8231034372824035e-15
3.097865343093872,0.23,0.04,9.76,0.0,0.0,0.0,0.01,-0.0,0.84,0.54,1.0624007606920627e-14,6.270092254057634e-14,-6.8231034372824035e-15
3.0984513759613037,0.23,0.04,9.76,0.0,0.0,0.0,0.01,-0.0,0.84,0.54,1.0624007606920627e-14,6.270092254057634e-14,-6.8231034372824035e-15
3.099097490310669,0.23,0.04,9.76,0.0,0.0,0.0,0.01,-0.0,0.84,0.54,1.0624007606920627e-14,6.270092254057634e-14,-6.8231034372824035e-15
3.0996901988983154,0.23,0.04,9.76,0.0,0.0,0.0,0.01,-0.0,0.84,0.54,1.0624007606920627e-14,6.270092254057634e-14,-6.8231034372824035e-15
3.100179433822632,0.3,0.07,9.84,0.0,0.0,0.0,0.01,-0.0,0.84,0.54,1.0624007606920627e-14,6.270092254057634e-14,-6.8231034372824035e-15
3.1007673740386963,0.3,0.07,9.84,0.0,0.0,0.0,0.01,-0.0,0.84,0.54,1.0624007606920627e-14,6.270092254057634e-14,-6.8231034372824035e-15
3.101346731185913,0.3,0.07,9.84,0.0,0.0,0.0,0.01,-0.0,0.84,0.54,1.0624007606920627e-14,6.270092254057634e-14,-6.8231034372824035e-15
3.1018385887145996,0.3,0.07,9.84,0.0,0.0,0.0,0.01,-0.0,0.84,0.54,1.0624007606920627e-14,6.270092254057634e-14,-6.8231034372824035e-15
3.1024715900421143,0.3,0.07,9.84,0.0,0.0,0.0,0.01,-0.0,0.84,0.54,1.0624007606920627e-14,6.270092254057634e-14,-6.8231034372824035e-15
3.102964401245117,0.3,0.07,9.84,0.0,0.0,0.0,0.01,-0.0,0.84,0.54,1.0624007606920627e-14,6.270092254057634e-14,-6.8231034372824035e-15
3.103410005569458,0.3,0.07,9.84,-0.08,0.07,0.08,0.01,-0.0,0.84,0.54,1.0624007606920627e-14,6.270092254057634e-14,-6.8231034372824035e-15
3.1038873195648193,0.3,0.07,9.84,-0.08,0.07,0.08,0.01,-0.0,0.84,0.54,1.0624007606920627e-14,6.270092254057634e-14,-6.8231034372824035e-15
3.104369640350342,0.23,0.04,9.84,-0.08,0.07,0.08,0.01,-0.0,0.84,0.54,1.0624007606920627e-14,6.270092254057634e-14,-6.8231034372824035e-15
3.1048686504364014,0.23,0.04,9.84,-0.08,0.07,0.08,0.01,-0.0,0.84,0.54,1.0624007606920627e-14,6.270092254057634e-14,-6.8231034372824035e-15
3.1904003620147705,0.23,0.04,9.84,-0.01,0.0,0.0,0.01,-0.0,0.84,0.54,1.0624007606920627e-14,6.270092254057634e-14,-6.8231034372824035e-15
3.191638708114624,0.23,0.04,9.84,-0.01,0.0,0.0,0.01,-0.0,0.84,0.54,1.0624007606920627e-14,6.270092254057634e-14,-6.8231034372824035e-15
3.192507028579712,0.23,0.04,9.84,0.0,-0.0,-0.01,0.01,-0.0,0.84,0.54,1.0624007606920627e-14,6.270092254057634e-14,-6.8231034372824035e-15
3.194242238998413,0.23,0.04,9.84,0.0,-0.0,-0.01,0.01,-0.0,0.84,0.54,1.0624007606920627e-14,6.270092254057634e-14,-6.8231034372824035e-15
3.1949875354766846,0.23,0.04,9.84,-0.0,0.0,-0.0,0.01,-0.0,0.84,0.54,1.0624007606920627e-14,6.270092254057634e-14,-6.8231034372824035e-15
3.1962428092956543,0.23,0.04,9.84,-0.0,0.0,-0.0,0.01,-0.0,0.84,0.54,1.0624007606920627e-14,6.270092254057634e-14,-6.8231034372824035e-15
3.1970677375793457,0.23,0.07,9.84,-0.0,0.0,-0.0,0.01,-0.0,0.84,0.54,1.0624007606920627e-14,6.270092254057634e-14,-6.8231034372824035e-15
3.197876453399658,0.23,0.07,9.84,-0.0,0.0,-0.0,0.01,-0.0,0.84,0.54,1.0624007606920627e-14,6.270092254057634e-14,-6.8231034372824035e-15
3.1985208988189697,0.23,0.07,9.84,-0.0,-0.0,-0.0,0.01,-0.0,0.84,0.54,1.0624007606920627e-14,6.270092254057634e-14,-6.8231034372824035e-15
3.199497699737549,0.23,0.07,9.84,-0.0,-0.0,-0.0,0.01,-0.0,0.84,0.54,1.0624007606920627e-14,6.270092254057634e-14,-6.8231034372824035e-15
3.2006618976593018,0.23,0.07,9.84,0.01,-0.0,-0.01,0.01,-0.0,0.84,0.54,1.0624007606920627e-14,6.270092254057634e-14,-6.8231034372824035e-15
3.2017979621887207,0.23,0.07,9.84,0.01,-0.0,-0.01,0.01,-0.0,0.84,0.54,1.0624007606920627e-14,6.270092254057634e-14,-6.8231034372824035e-15
3.2025251388549805,0.23,0.07,9.84,0.0,0.0,-0.0,0.01,-0.0,0.84,0.54,1.0624007606920627e-14,6.270092254057634e-14,-6.8231034372824035e-15
3.203003406524658,0.23,0.07,9.84,0.0,0.0,-0.0,0.01,-0.0,0.84,0.54,1.0624007606920627e-14,6.270092254057634e-14,-6.8231034372824035e-15
3.2034971714019775,0.23,0.07,9.84,0.0,0.0,0.0,0.01,-0.0,0.84,0.54,1.0624007606920627e-14,6.270092254057634e-14,-6.8231034372824035e-15
3.2042362689971924,0.23,0.07,9.84,0.0,0.0,0.0,0.01,-0.0,0.84,0.54,1.0624007606920627e-14,6.270092254057634e-14,-6.8231034372824035e-15
3.2049901485443115,0.27,-0.0,9.84,0.0,0.0,0.0,0.01,-0.0,0.84,0.54,1.0624007606920627e-14,6.270092254057634e-14,-6.8231034372824035e-15
3.2057206630706787,0.27,-0.0,9.84,0.0,0.0,0.0,0.01,-0.0,0.84,0.54,1.0624007606920627e-14,6.270092254057634e-14,-6.8231034372824035e-15
3.2064929008483887,0.27,-0.0,9.84,0.0,0.0,-0.0,0.01,-0.0,0.84,0.54,1.0624007606920627e-14,6.270092254057634e-14,-6.8231034372824035e-15
3.2071115970611572,0.27,-0.0,9.84,0.0,0.0,-0.0,0.01,-0.0,0.84,0.54,1.0624007606920627e-14,6.270092254057634e-14,-6.8231034372824035e-15
3.2963366508483887,0.27,-0.0,9.84,0.0,0.0,0.0,0.01,-0.0,0.84,0.54,1.0624007606920627e-14,6.270092254057634e-14,-6.8231034372824035e-15
3.297344207763672,0.27,-0.0,9.84,0.0,0.0,0.0,0.01,-0.0,0.84,0.54,1.0624007606920627e-14,6.270092254057634e-14,-6.8231034372824035e-15
3.2980892658233643,0.27,-0.0,9.84,0.0,0.0,-0.0,0.01,-0.0,0.84,0.54,1.0624007606920627e-14,6.270092254057634e-14,-6.8231034372824035e-15
3.2988572120666504,0.27,-0.0,9.84,0.0,0.0,-0.0,0.01,-0.0,0.84,0.54,1.0624007606920627e-14,6.270092254057634e-14,-6.8231034372824035e-15
3.299426317214966,0.27,0.04,9.8,0.0,0.0,-0.0,0.01,-0.0,0.84,0.54,1.0624007606920627e-14,6.270092254057634e-14,-6.8231034372824035e-15
3.3002161979675293,0.27,0.04,9.8,0.0,0.0,-0.0,0.01,-0.0,0.84,0.54,1.0624007606920627e-14,6.270092254057634e-14,-6.8231034372824035e-15
3.300741672515869,0.27,0.04,9.8,0.0,0.0,0.01,0.01,-0.0,0.84,0.54,1.0624007606920627e-14,6.270092254057634e-14,-6.8231034372824035e-15
3.3012442588806152,0.27,0.04,9.8,0.0,0.0,0.01,0.01,-0.0,0.84,0.54,1.0624007606920627e-14,6.270092254057634e-14,-6.8231034372824035e-15
3.301708698272705,0.27,0.04,9.8,0.0,-0.0,0.0,0.01,-0.0,0.84,0.54,1.0624007606920627e-14,6.270092254057634e-14,-6.8231034372824035e-15
3.302187442779541,0.27,0.04,9.8,0.0,-0.0,0.0,0.01,-0.0,0.84,0.54,1.0624007606920627e-14,6.270092254057634e-14,-6.8231034372824035e-15
3.3027584552764893,0.27,0.04,9.8,-0.0,-0.0,0.01,0.01,-0.0,0.84,0.54,1.0624007606920627e-14,6.270092254057634e-14,-6.8231034372824035e-15
3.303290843963623,0.27,0.04,9.8,-0.0,-0.0,0.01,0.01,-0.0,0.84,0.54,1.0624007606920627e-14,6.270092254057634e-14,-6.8231034372824035e-15
3.3038151264190674,0.23,0.04,9.84,-0.0,-0.0,0.01,0.01,-0.0,0.84,0.54,1.0624007606920627e-14,6.270092254057634e-14,-6.8231034372824035e-15
3.3042819499969482,0.23,0.04,9.84,-0.0,-0.0,0.01,0.01,-0.0,0.84,0.54,1.0624007606920627e-14,6.270092254057634e-14,-6.8231034372824035e-15
3.3047878742218018,0.23,0.04,9.84,-0.0,0.0,0.0,0.01,-0.0,0.84,0.54,1.0624007606920627e-14,6.270092254057634e-14,-6.8231034372824035e-15
3.305245876312256,0.23,0.04,9.84,-0.0,0.0,0.0,0.01,-0.0,0.84,0.54,1.0624007606920627e-14,6.270092254057634e-14,-6.8231034372824035e-15
3.305788278579712,0.23,0.04,9.84,0.0,0.0,0.0,0.01,-0.0,0.84,0.54,1.0624007606920627e-14,6.270092254057634e-14,-6.8231034372824035e-15
3.306316375732422,0.23,0.04,9.84,0.0,0.0,0.0,0.01,-0.0,0.84,0.54,1.0624007606920627e-14,6.270092254057634e-14,-6.8231034372824035e-15
3.3075790405273438,0.23,0.04,9.84,-0.0,0.0,-0.0,0.01,-0.0,0.84,0.54,1.0624007606920627e-14,6.270092254057634e-14,-6.8231034372824035e-15
3.3083560466766357,0.23,0.04,9.84,-0.0,0.0,-0.0,0.01,-0.0,0.84,0.54,1.0624007606920627e-14,6.270092254057634e-14,-6.8231034372824035e-15
3.3090996742248535,0.23,0.04,9.84,-0.0,0.0,0.01,0.01,-0.0,0.84,0.54,1.0624007606920627e-14,6.270092254057634e-14,-6.8231034372824035e-15
3.3097429275512695,0.23,0.04,9.84,-0.0,0.0,0.01,0.01,-0.0,0.84,0.54,1.0624007606920627e-14,6.270092254057634e-14,-6.8231034372824035e-15
3.3104326725006104,0.23,-0.0,9.76,-0.0,0.0,0.01,0.01,-0.0,0.84,0.54,1.0624007606920627e-14,6.270092254057634e-14,-6.8231034372824035e-15
3.3111090660095215,0.23,-0.0,9.76,-0.0,0.0,0.01,0.01,-0.0,0.84,0.54,1.0624007606920627e-14,6.270092254057634e-14,-6.8231034372824035e-15
3.392705202102661,0.23,-0.0,9.76,-0.01,0.0,0.0,0.01,-0.0,0.84,0.54,1.0624007606920627e-14,6.270092254057634e-14,-6.8231034372824035e-15
3.3936729431152344,0.23,-0.0,9.76,-0.01,0.0,0.0,0.01,-0.0,0.84,0.54,1.0624007606920627e-14,6.270092254057634e-14,-6.8231034372824035e-15
3.3943674564361572,0.23,-0.0,9.76,-0.01,0.0,-0.0,0.01,-0.0,0.84,0.54,1.0624007606920627e-14,6.270092254057634e-14,-6.8231034372824035e-15
3.395108938217163,0.23,-0.0,9.76,-0.01,0.0,-0.0,0.01,-0.0,0.84,0.54,1.0624007606920627e-14,6.270092254057634e-14,-6.8231034372824035e-15
3.3957207202911377,0.23,0.04,9.76,-0.01,0.0,-0.0,0.01,-0.0,0.84,0.54,1.0624007606920627e-14,6.270092254057634e-14,-6.8231034372824035e-15
3.3963449001312256,0.23,0.04,9.76,-0.01,0.0,-0.0,0.01,-0.0,0.84,0.54,1.0624007606920627e-14,6.270092254057634e-14,-6.8231034372824035e-15
3.396979570388794,0.23,0.04,9.76,-0.0,-0.0,0.0,0.01,-0.0,0.84,0.54,1.0624007606920627e-14,6.270092254057634e-14,-6.8231034372824035e-15
3.397632360458374,0.23,0.04,9.76,-0.0,-0.0,0.0,0.01,-0.0,0.84,0.54,1.0624007606920627e-14,6.270092254057634e-14,-6.8231034372824035e-15
3.398127317428589,0.23,0.04,9.76,0.0,0.0,0.0,0.01,-0.0,0.84,0.54,1.0624007606920627e-14,6.270092254057634e-14,-6.8231034372824035e-15
3.398589849472046,0.23,0.04,9.76,0.0,0.0,0.0,0.01,-0.0,0.84,0.54,1.0624007606920627e-14,6.270092254057634e-14,-6.8231034372824035e-15
3.483610153198242,0.23,0.04,9.76,0.0,0.0,-0.0,0.01,-0.0,0.84,0.54,1.0624007606920627e-14,6.270092254057634e-14,-6.8231034372824035e-15
3.484607458114624,0.23,0.04,9.76,0.0,0.0,-0.0,0.01,-0.0,0.84,0.54,1.0624007606920627e-14,6.270092254057634e-14,-6.8231034372824035e-15
3.485285997390747,0.23,0.04,9.76,0.0,0.0,-0.0,0.01,-0.0,0.84,0.54,1.0624007606920627e-14,6.270092254057634e-14,-6.8231034372824035e-15
3.4858691692352295,0.23,0.04,9.76,0.0,0.0,-0.0,0.01,-0.0,0.84,0.54,1.0624007606920627e-14,6.270092254057634e-14,-6.8231034372824035e-15
3.486445665359497,0.23,-0.0,9.8,0.0,0.0,-0.0,0.01,-0.0,0.84,0.54,1.0624007606920627e-14,6.270092254057634e-14,-6.8231034372824035e-15
3.4871225357055664,0.23,-0.0,9.8,0.01,-0.0,0.0,0.01,-0.0,0.84,0.54,1.0624007606920627e-14,6.270092254057634e-14,-6.8231034372824035e-15
3.487793445587158,0.23,-0.0,9.8,0.01,-0.0,0.0,0.01,-0.0,0.84,0.54,1.0624007606920627e-14,6.270092254057634e-14,-6.8231034372824035e-15
3.48858904838562,0.23,-0.0,9.8,0.01,-0.0,0.0,0.01,-0.0,0.84,0.54,1.0624007606920627e-14,6.270092254057634e-14,-6.8231034372824035e-15
3.4891724586486816,0.23,-0.0,9.8,0.01,-0.0,0.0,0.01,-0.0,0.84,0.54,1.0624007606920627e-14,6.270092254057634e-14,-6.8231034372824035e-15
3.489928722381592,0.23,-0.0,9.8,0.01,-0.0,0.0,0.01,-0.0,0.84,0.54,1.0624007606920627e-14,6.270092254057634e-14,-6.8231034372824035e-15
3.4907796382904053,0.23,-0.0,9.8,0.0,0.0,0.0,0.01,-0.0,0.84,0.54,1.0624007606920627e-14,6.270092254057634e-14,-6.8231034372824035e-15
3.4914135932922363,0.23,-0.0,9.8,0.0,0.0,0.0,0.01,-0.0,0.84,0.54,1.0624007606920627e-14,6.270092254057634e-14,-6.8231034372824035e-15
3.4919745922088623,0.23,-0.0,9.8,-0.0,0.0,0.01,0.01,-0.0,0.84,0.54,1.0624007606920627e-14,6.270092254057634e-14,-6.8231034372824035e-15
3.4928364753723145,0.23,-0.0,9.8,-0.0,0.0,0.01,0.01,-0.0,0.84,0.54,1.0624007606920627e-14,6.270092254057634e-14,-6.8231034372824035e-15
3.4943060874938965,0.23,-0.0,9.8,0.0,0.0,0.0,0.01,-0.0,0.84,0.54,1.0624007606920627e-14,6.270092254057634e-14,-6.8231034372824035e-15
3.495173215866089,0.23,-0.0,9.8,0.0,0.0,0.0,0.01,-0.0,0.84,0.54,1.0624007606920627e-14,6.270092254057634e-14,-6.8231034372824035e-15
3.495997190475464,0.23,-0.0,9.8,0.0,-0.0,0.0,0.01,-0.0,0.84,0.54,1.0624007606920627e-14,6.270092254057634e-14,-6.8231034372824035e-15
3.496905565261841,0.23,-0.0,9.8,0.0,-0.0,0.0,0.01,-0.0,0.84,0.54,1.0624007606920627e-14,6.270092254057634e-14,-6.8231034372824035e-15
3.4977402687072754,0.19,-0.0,9.8,0.0,-0.0,0.0,0.01,-0.0,0.84,0.54,1.0624007606920627e-14,6.270092254057634e-14,-6.8231034372824035e-15
3.498469829559326,0.19,-0.0,9.8,0.0,-0.0,0.0,0.01,-0.0,0.84,0.54,1.0624007606920627e-14,6.270092254057634e-14,-6.8231034372824035e-15
3.4993338584899902,0.19,-0.0,9.8,-0.0,0.0,0.0,0.01,-0.0,0.84,0.54,1.0624007606920627e-14,6.270092254057634e-14,-6.8231034372824035e-15
3.499934434890747,0.19,-0.0,9.8,-0.0,0.0,0.0,0.01,-0.0,0.84,0.54,1.0624007606920627e-14,6.270092254057634e-14,-6.8231034372824035e-15
3.50039005279541,0.19,-0.0,9.8,0.0,-0.0,0.0,0.01,-0.0,0.84,0.54,1.0624007606920627e-14,6.270092254057634e-14,-6.8231034372824035e-15
3.5008316040039062,0.19,-0.0,9.8,0.0,-0.0,0.0,0.01,-0.0,0.84,0.54,1.0624007606920627e-14,6.270092254057634e-14,-6.8231034372824035e-15
3.5014212131500244,0.19,-0.0,9.8,0.0,0.0,-0.0,0.01,-0.0,0.84,0.54,1.0624007606920627e-14,6.270092254057634e-14,-6.8231034372824035e-15
3.5019073486328125,0.19,-0.0,9.8,0.0,0.0,-0.0,0.01,-0.0,0.84,0.54,1.0624007606920627e-14,6.270092254057634e-14,-6.8231034372824035e-15
3.502434253692627,0.27,-0.0,9.8,0.0,0.0,-0.0,0.01,-0.0,0.84,0.54,1.0624007606920627e-14,6.270092254057634e-14,-6.8231034372824035e-15
3.502903461456299,0.27,-0.0,9.8,0.0,0.0,-0.0,0.01,-0.0,0.84,0.54,1.0624007606920627e-14,6.270092254057634e-14,-6.8231034372824035e-15
3.503453016281128,0.27,-0.0,9.8,0.01,0.0,0.0,0.01,-0.0,0.84,0.54,1.0624007606920627e-14,6.270092254057634e-14,-6.8231034372824035e-15
3.5039029121398926,0.27,-0.0,9.8,0.01,0.0,0.0,0.01,-0.0,0.84,0.54,1.0624007606920627e-14,6.270092254057634e-14,-6.8231034372824035e-15
3.504389762878418,0.27,-0.0,9.8,0.0,0.0,0.0,0.01,-0.0,0.84,0.54,1.0624007606920627e-14,6.270092254057634e-14,-6.8231034372824035e-15
3.504855155944824,0.27,-0.0,9.8,0.0,0.0,0.0,0.01,-0.0,0.84,0.54,1.0624007606920627e-14,6.270092254057634e-14,-6.8231034372824035e-15
3.6163852214813232,0.27,-0.0,9.8,-0.0,0.0,-0.0,0.01,-0.0,0.84,0.54,1.0624007606920627e-14,6.270092254057634e-14,-6.8231034372824035e-15
3.617598056793213,0.27,-0.0,9.8,-0.0,0.0,-0.0,0.01,-0.0,0.84,0.54,1.0624007606920627e-14,6.270092254057634e-14,-6.8231034372824035e-15
3.6183557510375977,0.27,-0.0,9.8,0.0,0.0,0.0,0.01,-0.0,0.84,0.54,1.0624007606920627e-14,6.270092254057634e-14,-6.8231034372824035e-15
3.61911678314209,0.27,-0.0,9.8,0.0,0.0,0.0,0.01,-0.0,0.84,0.54,1.0624007606920627e-14,6.270092254057634e-14,-6.8231034372824035e-15
3.6197848320007324,0.19,0.04,9.8,0.0,0.0,0.0,0.01,-0.0,0.84,0.54,1.0624007606920627e-14,6.270092254057634e-14,-6.8231034372824035e-15
3.6205079555511475,0.19,0.04,9.8,0.0,0.0,-0.0,0.01,-0.0,0.84,0.54,1.0624007606920627e-14,6.270092254057634e-14,-6.8231034372824035e-15
3.621460199356079,0.19,0.04,9.8,0.0,0.0,-0.0,0.01,-0.0,0.84,0.54,1.0624007606920627e-14,6.270092254057634e-14,-6.8231034372824035e-15
3.622241258621216,0.19,0.04,9.8,0.0,0.0,-0.0,0.01,-0.0,0.84,0.54,1.0624007606920627e-14,6.270092254057634e-14,-6.8231034372824035e-15
3.622859477996826,0.19,0.04,9.8,0.0,0.0,0.0,0.01,-0.0,0.84,0.54,1.0624007606920627e-14,6.270092254057634e-14,-6.8231034372824035e-15
3.6234312057495117,0.19,0.04,9.8,0.0,0.0,0.0,0.01,-0.0,0.84,0.54,1.0624007606920627e-14,6.270092254057634e-14,-6.8231034372824035e-15
3.624130964279175,0.19,0.04,9.8,0.0,0.0,-0.01,0.01,-0.0,0.84,0.54,1.0624007606920627e-14,6.270092254057634e-14,-6.8231034372824035e-15
3.62499737739563,0.19,0.04,9.8,0.0,0.0,-0.01,0.01,-0.0,0.84,0.54,1.0624007606920627e-14,6.270092254057634e-14,-6.8231034372824035e-15
3.6256210803985596,0.19,0.04,9.8,-0.0,0.0,-0.01,0.01,-0.0,0.84,0.54,1.0624007606920627e-14,6.270092254057634e-14,-6.8231034372824035e-15
3.6262435913085938,0.19,0.04,9.8,-0.0,0.0,-0.01,0.01,-0.0,0.84,0.54,1.0624007606920627e-14,6.270092254057634e-14,-6.8231034372824035e-15
3.627004384994507,0.15,0.04,9.72,-0.0,0.0,-0.01,0.01,-0.0,0.84,0.54,1.0624007606920627e-14,6.270092254057634e-14,-6.8231034372824035e-15
3.627657175064087,0.15,0.04,9.72,-0.0,0.0,0.0,0.01,-0.0,0.84,0.54,1.0624007606920627e-14,6.270092254057634e-14,-6.8231034372824035e-15
3.628164529800415,0.15,0.04,9.72,-0.0,0.0,0.0,0.01,-0.0,0.84,0.54,1.0624007606920627e-14,6.270092254057634e-14,-6.8231034372824035e-15
3.6286487579345703,0.15,0.04,9.72,-0.0,0.0,0.0,0.01,-0.0,0.84,0.54,1.0624007606920627e-14,6.270092254057634e-14,-6.8231034372824035e-15
3.629272699356079,0.15,0.04,9.72,0.0,0.0,0.0,0.01,-0.0,0.84,0.54,1.0624007606920627e-14,6.270092254057634e-14,-6.8231034372824035e-15
3.629770278930664,0.15,0.04,9.72,0.0,0.0,0.0,0.01,-0.0,0.84,0.54,1.0624007606920627e-14,6.270092254057634e-14,-6.8231034372824035e-15
3.630215883255005,0.23,0.04,9.84,0.0,0.0,0.0,0.01,-0.0,0.84,0.54,1.0624007606920627e-14,6.270092254057634e-14,-6.8231034372824035e-15
3.6306469440460205,0.23,0.04,9.84,0.0,0.0,0.0,0.01,-0.0,0.84,0.54,1.0624007606920627e-14,6.270092254057634e-14,-6.8231034372824035e-15
3.631154775619507,0.23,0.04,9.84,-0.0,-0.0,0.0,0.01,-0.0,0.84,0.54,1.0624007606920627e-14,6.270092254057634e-14,-6.8231034372824035e-15
3.6316030025482178,0.23,0.04,9.84,-0.0,-0.0,0.0,0.01,-0.0,0.84,0.54,1.0624007606920627e-14,6.270092254057634e-14,-6.8231034372824035e-15
3.6320912837982178,0.23,0.04,9.84,-0.0,0.0,0.0,0.01,-0.0,0.84,0.54,1.0624007606920627e-14,6.270092254057634e-14,-6.8231034372824035e-15
3.713362693786621,0.23,0.04,9.84,-0.0,0.0,0.0,0.01,-0.0,0.84,0.54,1.0624007606920627e-14,6.270092254057634e-14,-6.8231034372824035e-15
3.7141060829162598,0.23,0.04,9.84,-0.0,-0.0,0.0,0.01,-0.0,0.84,0.54,1.0624007606920627e-14,6.270092254057634e-14,-6.8231034372824035e-15
3.714635133743286,0.23,0.04,9.84,-0.0,-0.0,0.0,0.01,-0.0,0.84,0.54,1.0624007606920627e-14,6.270092254057634e-14,-6.8231034372824035e-15
3.7150893211364746,0.23,0.04,9.84,0.0,0.0,0.0,0.01,-0.0,0.84,0.54,1.0624007606920627e-14,6.270092254057634e-14,-6.8231034372824035e-15
3.7155580520629883,0.23,0.04,9.84,0.0,0.0,0.0,0.01,-0.0,0.84,0.54,1.0624007606920627e-14,6.270092254057634e-14,-6.8231034372824035e-15
3.7159616947174072,0.23,-0.0,9.84,0.0,0.0,0.0,0.01,-0.0,0.84,0.54,1.0624007606920627e-14,6.270092254057634e-14,-6.8231034372824035e-15
3.716428756713867,0.23,-0.0,9.84,-0.0,0.0,0.0,0.01,-0.0,0.84,0.54,1.0624007606920627e-14,6.270092254057634e-14,-6.8231034372824035e-15
3.716857671737671,0.23,-0.0,9.84,-0.0,0.0,0.0,0.01,-0.0,0.84,0.54,1.0624007606920627e-14,6.270092254057634e-14,-6.8231034372824035e-15
3.7172884941101074,0.23,-0.0,9.84,-0.0,0.0,0.0,0.01,-0.0,0.84,0.54,1.0624007606920627e-14,6.270092254057634e-14,-6.8231034372824035e-15
3.7177605628967285,0.23,-0.0,9.84,0.0,-0.0,-0.0,0.01,-0.0,0.84,0.54,1.0624007606920627e-14,6.270092254057634e-14,-6.8231034372824035e-15
3.718168258666992,0.23,-0.0,9.84,0.0,-0.0,-0.0,0.01,-0.0,0.84,0.54,1.0624007606920627e-14,6.270092254057634e-14,-6.8231034372824035e-15
3.718601703643799,0.23,-0.0,9.84,0.0,-0.0,0.0,0.01,-0.0,0.84,0.54,1.0624007606920627e-14,6.270092254057634e-14,-6.8231034372824035e-15
3.7190144062042236,0.23,-0.0,9.84,0.0,-0.0,0.0,0.01,-0.0,0.84,0.54,1.0624007606920627e-14,6.270092254057634e-14,-6.8231034372824035e-15
3.7194106578826904,0.23,-0.0,9.84,0.0,0.0,0.0,0.01,-0.0,0.84,0.54,1.0624007606920627e-14,6.270092254057634e-14,-6.8231034372824035e-15
3.7199604511260986,0.23,-0.0,9.84,0.0,0.0,0.0,0.01,-0.0,0.84,0.54,1.0624007606920627e-14,6.270092254057634e-14,-6.8231034372824035e-15
3.720566749572754,0.23,-0.0,9.84,0.0,-0.0,0.0,0.01,-0.0,0.84,0.54,1.0624007606920627e-14,6.270092254057634e-14,-6.8231034372824035e-15
3.720968246459961,0.23,-0.0,9.84,0.0,-0.0,0.0,0.01,-0.0,0.84,0.54,1.0624007606920627e-14,6.270092254057634e-14,-6.8231034372824035e-15
3.721355438232422,0.23,0.11,9.84,0.0,-0.0,0.0,0.01,-0.0,0.84,0.54,1.0624007606920627e-14,6.270092254057634e-14,-6.8231034372824035e-15
3.721792459487915,0.23,0.11,9.84,0.0,-0.0,0.0,0.01,-0.0,0.84,0.54,1.0624007606920627e-14,6.270092254057634e-14,-6.8231034372824035e-15
3.7222161293029785,0.23,0.11,9.84,0.0,0.0,0.01,0.01,-0.0,0.84,0.54,1.0624007606920627e-14,6.270092254057634e-14,-6.8231034372824035e-15
3.8247275352478027,0.23,0.11,9.84,0.0,0.0,0.01,0.01,-0.0,0.84,0.54,1.0624007606920627e-14,6.270092254057634e-14,-6.8231034372824035e-15
3.825925827026367,0.23,0.11,9.84,-0.0,-0.0,-0.0,0.01,-0.0,0.84,0.54,1.0624007606920627e-14,6.270092254057634e-14,-6.8231034372824035e-15
3.8268988132476807,0.23,0.11,9.84,-0.0,-0.0,-0.0,0.01,-0.0,0.84,0.54,1.0624007606920627e-14,6.270092254057634e-14,-6.8231034372824035e-15
3.827850341796875,0.23,0.11,9.84,0.0,0.0,-0.0,0.01,-0.0,0.84,0.54,1.0624007606920627e-14,6.270092254057634e-14,-6.8231034372824035e-15
3.828617572784424,0.23,0.11,9.84,0.0,0.0,-0.0,0.01,-0.0,0.84,0.54,1.0624007606920627e-14,6.270092254057634e-14,-6.8231034372824035e-15
3.8294742107391357,0.19,0.07,9.76,0.0,0.0,-0.0,0.01,-0.0,0.84,0.54,1.0624007606920627e-14,6.270092254057634e-14,-6.8231034372824035e-15
3.830167293548584,0.19,0.07,9.76,0.0,0.0,-0.0,0.01,-0.0,0.84,0.54,1.0624007606920627e-14,6.270092254057634e-14,-6.8231034372824035e-15
3.8307607173919678,0.19,0.07,9.76,0.0,0.0,0.0,0.01,-0.0,0.84,0.54,1.0624007606920627e-14,6.270092254057634e-14,-6.8231034372824035e-15
3.8315482139587402,0.19,0.07,9.76,0.0,0.0,0.0,0.01,-0.0,0.84,0.54,1.0624007606920627e-14,6.270092254057634e-14,-6.8231034372824035e-15
3.832462787628174,0.19,0.07,9.76,0.0,0.0,0.0,0.01,-0.0,0.84,0.54,1.0624007606920627e-14,6.270092254057634e-14,-6.8231034372824035e-15
3.8332791328430176,0.19,0.07,9.76,0.0,0.0,0.0,0.01,-0.0,0.84,0.54,1.0624007606920627e-14,6.270092254057634e-14,-6.8231034372824035e-15
3.834063768386841,0.19,0.07,9.76,-0.01,-0.0,-0.01,0.01,-0.0,0.84,0.54,1.0624007606920627e-14,6.270092254057634e-14,-6.8231034372824035e-15
3.8347833156585693,0.19,0.07,9.76,-0.01,-0.0,-0.01,0.01,-0.0,0.84,0.54,1.0624007606920627e-14,6.270092254057634e-14,-6.8231034372824035e-15
3.8355705738067627,0.19,0.04,9.84,-0.01,-0.0,-0.01,0.01,-0.0,0.84,0.54,1.0624007606920627e-14,6.270092254057634e-14,-6.8231034372824035e-15
3.8363170623779297,0.19,0.04,9.84,0.0,0.0,-0.0,0.01,-0.0,0.84,0.54,1.0624007606920627e-14,6.270092254057634e-14,-6.8231034372824035e-15
3.837027072906494,0.19,0.04,9.84,0.0,0.0,-0.0,0.01,-0.0,0.84,0.54,1.0624007606920627e-14,6.270092254057634e-14,-6.8231034372824035e-15
3.8377466201782227,0.19,0.04,9.84,0.0,0.0,-0.0,0.01,-0.0,0.84,0.54,1.0624007606920627e-14,6.270092254057634e-14,-6.8231034372824035e-15
3.8384649753570557,0.19,0.04,9.84,0.01,0.0,-0.0,0.01,-0.0,0.84,0.54,1.0624007606920627e-14,6.270092254057634e-14,-6.8231034372824035e-15
3.8392434120178223,0.19,0.04,9.84,0.01,0.0,-0.0,0.01,-0.0,0.84,0.54,1.0624007606920627e-14,6.270092254057634e-14,-6.8231034372824035e-15
3.83994722366333,0.19,0.04,9.84,0.0,0.0,0.0,0.01,-0.0,0.84,0.54,1.0624007606920627e-14,6.270092254057634e-14,-6.8231034372824035e-15
3.8406877517700195,0.19,0.04,9.84,0.0,0.0,0.0,0.01,-0.0,0.84,0.54,1.0624007606920627e-14,6.270092254057634e-14,-6.8231034372824035e-15
3.8415229320526123,0.19,0.04,9.84,0.0,0.01,-0.0,0.01,-0.0,0.84,0.54,1.0624007606920627e-14,6.270092254057634e-14,-6.8231034372824035e-15
3.842255115509033,0.19,0.04,9.84,0.0,0.01,-0.0,0.01,-0.0,0.84,0.54,1.0624007606920627e-14,6.270092254057634e-14,-6.8231034372824035e-15
3.8429229259490967,0.23,-0.0,9.88,0.0,0.01,-0.0,0.01,-0.0,0.84,0.54,1.0624007606920627e-14,6.270092254057634e-14,-6.8231034372824035e-15
3.8435628414154053,0.23,-0.0,9.88,-0.0,-0.0,0.0,0.01,-0.0,0.84,0.54,1.0624007606920627e-14,6.270092254057634e-14,-6.8231034372824035e-15
3.9416003227233887,0.23,-0.0,9.88,-0.0,-0.0,0.0,0.01,-0.0,0.84,0.54,1.0624007606920627e-14,6.270092254057634e-14,-6.8231034372824035e-15
3.943760395050049,0.23,-0.0,9.88,-0.0,-0.0,0.0,0.01,-0.0,0.84,0.54,1.0624007606920627e-14,6.270092254057634e-14,-6.8231034372824035e-15
3.9454410076141357,0.23,-0.0,9.88,0.0,0.0,0.0,0.01,-0.0,0.84,0.54,1.0624007606920627e-14,6.270092254057634e-14,-6.8231034372824035e-15
3.946861743927002,0.23,-0.0,9.88,0.0,0.0,0.0,0.01,-0.0,0.84,0.54,1.0624007606920627e-14,6.270092254057634e-14,-6.8231034372824035e-15
3.9483835697174072,0.23,0.07,9.8,0.0,0.0,0.0,0.01,-0.0,0.84,0.54,1.0624007606920627e-14,6.270092254057634e-14,-6.8231034372824035e-15
3.949819803237915,0.23,0.07,9.8,0.0,0.0,0.0,0.01,-0.0,0.84,0.54,1.0624007606920627e-14,6.270092254057634e-14,-6.8231034372824035e-15
3.9511563777923584,0.23,0.07,9.8,0.0,0.0,0.0,0.01,-0.0,0.84,0.54,1.0624007606920627e-14,6.270092254057634e-14,-6.8231034372824035e-15
3.952548027038574,0.23,0.07,9.8,0.0,0.0,0.0,0.01,-0.0,0.84,0.54,1.0624007606920627e-14,6.270092254057634e-14,-6.8231034372824035e-15
3.953399896621704,0.23,0.07,9.8,0.0,-0.0,0.0,0.01,-0.0,0.84,0.54,1.0624007606920627e-14,6.270092254057634e-14,-6.8231034372824035e-15
3.9541330337524414,0.23,0.07,9.8,0.0,-0.0,0.0,0.01,-0.0,0.84,0.54,1.0624007606920627e-14,6.270092254057634e-14,-6.8231034372824035e-15
3.955134391784668,0.23,0.07,9.8,0.0,-0.0,-0.0,0.01,-0.0,0.84,0.54,1.0624007606920627e-14,6.270092254057634e-14,-6.8231034372824035e-15
3.9563443660736084,0.23,0.07,9.8,0.0,-0.0,-0.0,0.01,-0.0,0.84,0.54,1.0624007606920627e-14,6.270092254057634e-14,-6.8231034372824035e-15
3.957411527633667,0.23,0.07,9.8,0.0,0.0,-0.0,0.01,-0.0,0.84,0.54,1.0624007606920627e-14,6.270092254057634e-14,-6.8231034372824035e-15
3.958547830581665,0.23,0.07,9.8,0.0,0.0,-0.0,0.01,-0.0,0.84,0.54,1.0624007606920627e-14,6.270092254057634e-14,-6.8231034372824035e-15
3.959620475769043,0.27,-0.0,9.91,0.0,0.0,-0.0,0.01,-0.0,0.84,0.54,1.0624007606920627e-14,6.270092254057634e-14,-6.8231034372824035e-15
3.9607954025268555,0.27,-0.0,9.91,0.0,0.0,-0.0,0.01,-0.0,0.84,0.54,1.0624007606920627e-14,6.270092254057634e-14,-6.8231034372824035e-15
3.961522102355957,0.27,-0.0,9.91,-0.0,-0.0,0.0,0.01,-0.0,0.84,0.54,1.0624007606920627e-14,6.270092254057634e-14,-6.8231034372824035e-15
3.9621424674987793,0.27,-0.0,9.91,-0.0,-0.0,0.0,0.01,-0.0,0.84,0.54,1.0624007606920627e-14,6.270092254057634e-14,-6.8231034372824035e-15
3.9628100395202637,0.27,-0.0,9.91,0.0,-0.0,-0.0,0.01,-0.0,0.84,0.54,1.0624007606920627e-14,6.270092254057634e-14,-6.8231034372824035e-15
3.963679552078247,0.27,-0.0,9.91,0.0,-0.0,-0.0,0.01,-0.0,0.84,0.54,1.0624007606920627e-14,6.270092254057634e-14,-6.8231034372824035e-15
3.9643454551696777,0.27,-0.0,9.91,0.0,0.0,0.0,0.01,-0.0,0.84,0.54,1.0624007606920627e-14,6.270092254057634e-14,-6.8231034372824035e-15
3.964833974838257,0.27,-0.0,9.91,0.0,0.0,0.0,0.01,-0.0,0.84,0.54,1.0624007606920627e-14,6.270092254057634e-14,-6.8231034372824035e-15
3.965508222579956,0.27,-0.0,9.91,-0.01,-0.0,0.0,0.01,-0.0,0.84,0.54,1.0624007606920627e-14,6.270092254057634e-14,-6.8231034372824035e-15
3.966123580932617,0.27,-0.0,9.91,-0.01,-0.0,0.0,0.01,-0.0,0.84,0.54,1.0624007606920627e-14,6.270092254057634e-14,-6.8231034372824035e-15
3.9667868614196777,0.27,0.07,9.8,-0.01,-0.0,0.0,0.01,-0.0,0.84,0.54,1.0624007606920627e-14,6.270092254057634e-14,-6.8231034372824035e-15
4.059511184692383,0.27,0.07,9.8,-0.0,0.0,0.01,0.01,-0.0,0.84,0.54,1.0624007606920627e-14,6.270092254057634e-14,-6.8231034372824035e-15
4.060544729232788,0.27,0.07,9.8,-0.0,0.0,0.01,0.01,-0.0,0.84,0.54,1.0624007606920627e-14,6.270092254057634e-14,-6.8231034372824035e-15
4.06129002571106,0.27,0.07,9.8,-0.0,0.0,0.01,0.01,-0.0,0.84,0.54,1.0624007606920627e-14,6.270092254057634e-14,-6.8231034372824035e-15
4.061976909637451,0.27,0.07,9.8,0.01,-0.0,0.0,0.01,-0.0,0.84,0.54,1.0624007606920627e-14,6.270092254057634e-14,-6.8231034372824035e-15
4.06263279914856,0.27,0.07,9.8,0.01,-0.0,0.0,0.01,-0.0,0.84,0.54,1.0624007606920627e-14,6.270092254057634e-14,-6.8231034372824035e-15
4.0633625984191895,0.27,0.07,9.8,0.01,-0.01,-0.0,0.01,-0.0,0.84,0.54,1.0624007606920627e-14,6.270092254057634e-14,-6.8231034372824035e-15
4.064148426055908,0.27,0.07,9.8,0.01,-0.01,-0.0,0.01,-0.0,0.84,0.54,1.0624007606920627e-14,6.270092254057634e-14,-6.8231034372824035e-15
4.064732789993286,0.27,0.07,9.8,0.0,0.0,0.0,0.01,-0.0,0.84,0.54,1.0624007606920627e-14,6.270092254057634e-14,-6.8231034372824035e-15
4.065399885177612,0.27,0.07,9.8,0.0,0.0,0.0,0.01,-0.0,0.84,0.54,1.0624007606920627e-14,6.270092254057634e-14,-6.8231034372824035e-15
4.066177606582642,0.23,0.19,9.72,0.0,0.0,0.0,0.01,-0.0,0.84,0.54,1.0624007606920627e-14,6.270092254057634e-14,-6.8231034372824035e-15
4.067367792129517,0.23,0.19,9.72,0.0,0.0,0.0,0.01,-0.0,0.84,0.54,1.0624007606920627e-14,6.270092254057634e-14,-6.8231034372824035e-15
4.068121910095215,0.23,0.19,9.72,-0.0,0.0,-0.0,0.01,-0.0,0.84,0.54,1.0624007606920627e-14,6.270092254057634e-14,-6.8231034372824035e-15
4.06859016418457,0.23,0.19,9.72,-0.0,0.0,-0.0,0.01,-0.0,0.84,0.54,1.0624007606920627e-14,6.270092254057634e-14,-6.8231034372824035e-15
4.069049835205078,0.23,0.19,9.72,0.0,-0.0,-0.0,0.01,-0.0,0.84,0.54,1.0624007606920627e-14,6.270092254057634e-14,-6.8231034372824035e-15
4.0694966316223145,0.23,0.19,9.72,0.0,-0.0,-0.0,0.01,-0.0,0.84,0.54,1.0624007606920627e-14,6.270092254057634e-14,-6.8231034372824035e-15
4.0699732303619385,0.23,0.19,9.72,0.0,0.0,0.0,0.01,-0.0,0.84,0.54,1.0624007606920627e-14,6.270092254057634e-14,-6.8231034372824035e-15
4.070886850357056,0.23,0.19,9.72,0.0,0.0,0.0,0.01,-0.0,0.84,0.54,1.0624007606920627e-14,6.270092254057634e-14,-6.8231034372824035e-15
4.071630001068115,0.19,0.04,9.76,0.0,0.0,0.0,0.01,-0.0,0.84,0.54,1.0624007606920627e-14,6.270092254057634e-14,-6.8231034372824035e-15
4.072327136993408,0.19,0.04,9.76,0.0,0.0,0.0,0.01,-0.0,0.84,0.54,1.0624007606920627e-14,6.270092254057634e-14,-6.8231034372824035e-15
4.072992324829102,0.19,0.04,9.76,0.0,0.0,0.0,0.01,-0.0,0.84,0.54,1.0624007606920627e-14,6.270092254057634e-14,-6.8231034372824035e-15
4.073655128479004,0.19,0.04,9.76,0.0,0.0,0.0,0.01,-0.0,0.84,0.54,1.0624007606920627e-14,6.270092254057634e-14,-6.8231034372824035e-15
4.074215412139893,0.19,0.04,9.76,0.0,0.0,0.0,0.01,-0.0,0.84,0.54,1.0624007606920627e-14,6.270092254057634e-14,-6.8231034372824035e-15
4.074688673019409,0.19,0.04,9.76,0.0,0.0,0.0,0.01,-0.0,0.84,0.54,1.0624007606920627e-14,6.270092254057634e-14,-6.8231034372824035e-15
4.0752034187316895,0.19,0.04,9.76,-0.01,0.01,-0.0,0.01,-0.0,0.84,0.54,1.0624007606920627e-14,6.270092254057634e-14,-6.8231034372824035e-15
4.075660705566406,0.19,0.04,9.76,-0.01,0.01,-0.0,0.01,-0.0,0.84,0.54,1.0624007606920627e-14,6.270092254057634e-14,-6.8231034372824035e-15
4.163279294967651,0.27,-0.04,9.84,-0.01,0.01,-0.0,0.01,-0.0,0.84,0.54,1.0624007606920627e-14,6.270092254057634e-14,-6.8231034372824035e-15
4.164028882980347,0.27,-0.04,9.84,-0.01,0.01,-0.0,0.01,-0.0,0.84,0.54,1.0624007606920627e-14,6.270092254057634e-14,-6.8231034372824035e-15
4.164592027664185,0.27,-0.04,9.84,-0.01,0.01,-0.0,0.01,-0.0,0.84,0.54,1.0624007606920627e-14,6.270092254057634e-14,-6.8231034372824035e-15
4.1650848388671875,0.27,-0.04,9.84,-0.01,0.01,-0.0,0.01,-0.0,0.84,0.54,1.0624007606920627e-14,6.270092254057634e-14,-6.8231034372824035e-15
4.165588855743408,0.27,-0.04,9.84,0.0,0.01,0.0,0.01,-0.0,0.84,0.54,1.0624007606920627e-14,6.270092254057634e-14,-6.8231034372824035e-15
4.166164875030518,0.27,-0.04,9.84,0.0,0.01,0.0,0.01,-0.0,0.84,0.54,1.0624007606920627e-14,6.270092254057634e-14,-6.8231034372824035e-15
4.166885137557983,0.27,-0.04,9.84,0.0,-0.0,-0.0,0.01,-0.0,0.84,0.54,1.0624007606920627e-14,6.270092254057634e-14,-6.8231034372824035e-15
4.1675591468811035,0.27,-0.04,9.84,0.0,-0.0,-0.0,0.01,-0.0,0.84,0.54,1.0624007606920627e-14,6.270092254057634e-14,-6.8231034372824035e-15
4.168139457702637,0.23,0.07,9.76,0.0,-0.0,-0.0,0.01,-0.0,0.84,0.54,1.0624007606920627e-14,6.270092254057634e-14,-6.8231034372824035e-15
4.168700456619263,0.23,0.07,9.76,0.0,-0.0,-0.0,0.01,-0.0,0.84,0.54,1.0624007606920627e-14,6.270092254057634e-14,-6.8231034372824035e-15
4.169345140457153,0.23,0.07,9.76,0.01,0.0,0.0,0.01,-0.0,0.84,0.54,1.0624007606920627e-14,6.270092254057634e-14,-6.8231034372824035e-15
4.1699535846710205,0.23,0.07,9.76,0.01,0.0,0.0,0.01,-0.0,0.84,0.54,1.0624007606920627e-14,6.270092254057634e-14,-6.8231034372824035e-15
4.170602560043335,0.23,0.07,9.76,0.0,-0.01,-0.0,0.01,-0.0,0.84,0.54,1.0624007606920627e-14,6.270092254057634e-14,-6.8231034372824035e-15
4.171316385269165,0.23,0.07,9.76,0.0,-0.01,-0.0,0.01,-0.0,0.84,0.54,1.0624007606920627e-14,6.270092254057634e-14,-6.8231034372824035e-15
4.171954393386841,0.23,0.07,9.76,0.0,0.0,0.0,0.01,-0.0,0.84,0.54,1.0624007606920627e-14,6.270092254057634e-14,-6.8231034372824035e-15
4.1726109981536865,0.23,0.07,9.76,0.0,0.0,0.0,0.01,-0.0,0.84,0.54,1.0624007606920627e-14,6.270092254057634e-14,-6.8231034372824035e-15
4.173596620559692,0.23,-0.0,9.72,0.0,0.0,0.0,0.01,-0.0,0.84,0.54,1.0624007606920627e-14,6.270092254057634e-14,-6.8231034372824035e-15
4.174668550491333,0.23,-0.0,9.72,0.0,0.0,0.0,0.01,-0.0,0.84,0.54,1.0624007606920627e-14,6.270092254057634e-14,-6.8231034372824035e-15
4.175227642059326,0.23,-0.0,9.72,-0.0,0.0,0.01,0.01,-0.0,0.84,0.54,1.0624007606920627e-14,6.270092254057634e-14,-6.8231034372824035e-15
4.17569899559021,0.23,-0.0,9.72,-0.0,0.0,0.01,0.01,-0.0,0.84,0.54,1.0624007606920627e-14,6.270092254057634e-14,-6.8231034372824035e-15
4.176148414611816,0.23,-0.0,9.72,-0.0,0.0,0.0,0.01,-0.0,0.84,0.54,1.0624007606920627e-14,6.270092254057634e-14,-6.8231034372824035e-15
4.176733016967773,0.23,-0.0,9.72,-0.0,0.0,0.0,0.01,-0.0,0.84,0.54,1.0624007606920627e-14,6.270092254057634e-14,-6.8231034372824035e-15
4.2594382762908936,0.23,-0.0,9.72,0.0,0.0,0.01,0.01,-0.0,0.84,0.54,1.0624007606920627e-14,6.270092254057634e-14,-6.8231034372824035e-15
4.260174036026001,0.23,-0.0,9.72,0.0,0.0,0.01,0.01,-0.0,0.84,0.54,1.0624007606920627e-14,6.270092254057634e-14,-6.8231034372824035e-15
4.260735034942627,0.23,0.04,9.76,0.0,0.0,0.01,0.01,-0.0,0.84,0.54,1.0624007606920627e-14,6.270092254057634e-14,-6.8231034372824035e-15
4.261331558227539,0.23,0.04,9.76,0.0,0.0,0.01,0.01,-0.0,0.84,0.54,1.0624007606920627e-14,6.270092254057634e-14,-6.8231034372824035e-15
4.261797189712524,0.23,0.04,9.76,0.0,0.0,0.0,0.01,-0.0,0.84,0.54,1.0624007606920627e-14,6.270092254057634e-14,-6.8231034372824035e-15
4.262279987335205,0.23,0.04,9.76,0.0,0.0,0.0,0.01,-0.0,0.84,0.54,1.0624007606920627e-14,6.270092254057634e-14,-6.8231034372824035e-15
4.262714624404907,0.23,0.04,9.8,0.0,0.0,0.0,0.01,-0.0,0.84,0.54,1.0624007606920627e-14,6.270092254057634e-14,-6.8231034372824035e-15
4.263195753097534,0.23,0.04,9.8,0.0,0.0,0.0,0.01,-0.0,0.84,0.54,1.0624007606920627e-14,6.270092254057634e-14,-6.8231034372824035e-15
4.263681888580322,0.23,0.04,9.8,-0.0,0.0,-0.01,0.01,-0.0,0.84,0.54,1.0624007606920627e-14,6.270092254057634e-14,-6.8231034372824035e-15
4.264179468154907,0.23,0.04,9.8,-0.0,0.0,-0.01,0.01,-0.0,0.84,0.54,1.0624007606920627e-14,6.270092254057634e-14,-6.8231034372824035e-15
4.264664173126221,0.23,0.04,9.8,0.0,-0.0,-0.01,0.01,-0.0,0.84,0.54,1.0624007606920627e-14,6.270092254057634e-14,-6.8231034372824035e-15
4.265230417251587,0.23,0.04,9.8,0.0,-0.0,-0.01,0.01,-0.0,0.84,0.54,1.0624007606920627e-14,6.270092254057634e-14,-6.8231034372824035e-15
4.26626181602478,0.23,0.04,9.8,0.0,-0.0,-0.01,0.01,-0.0,0.84,0.54,1.0624007606920627e-14,6.270092254057634e-14,-6.8231034372824035e-15
4.267141819000244,0.23,0.04,9.8,0.0,-0.0,-0.01,0.01,-0.0,0.84,0.54,1.0624007606920627e-14,6.270092254057634e-14,-6.8231034372824035e-15
4.267906904220581,0.23,0.04,9.8,0.0,0.0,-0.01,0.01,-0.0,0.84,0.54,1.0624007606920627e-14,6.270092254057634e-14,-6.8231034372824035e-15
4.268586874008179,0.23,0.04,9.8,0.0,0.0,-0.01,0.01,-0.0,0.84,0.54,1.0624007606920627e-14,6.270092254057634e-14,-6.8231034372824035e-15
4.269254446029663,0.23,0.04,9.8,0.0,0.0,0.0,0.01,-0.0,0.84,0.54,1.0624007606920627e-14,6.270092254057634e-14,-6.8231034372824035e-15
4.269873857498169,0.23,0.04,9.8,0.0,0.0,0.0,0.01,-0.0,0.84,0.54,1.0624007606920627e-14,6.270092254057634e-14,-6.8231034372824035e-15
4.270498991012573,0.23,0.04,9.8,0.0,-0.01,-0.0,0.01,-0.0,0.84,0.54,1.0624007606920627e-14,6.270092254057634e-14,-6.8231034372824035e-15
4.271123170852661,0.23,0.04,9.8,0.0,-0.01,-0.0,0.01,-0.0,0.84,0.54,1.0624007606920627e-14,6.270092254057634e-14,-6.8231034372824035e-15
4.358746767044067,0.27,0.04,9.76,0.0,-0.01,-0.0,0.01,-0.0,0.84,0.54,1.0624007606920627e-14,6.270092254057634e-14,-6.8231034372824035e-15
4.359730243682861,0.27,0.04,9.76,0.0,-0.01,-0.0,0.01,-0.0,0.84,0.54,1.0624007606920627e-14,6.270092254057634e-14,-6.8231034372824035e-15
4.360447645187378,0.27,0.04,9.76,0.0,0.0,0.0,0.01,-0.0,0.84,0.54,1.0624007606920627e-14,6.270092254057634e-14,-6.8231034372824035e-15
4.361057758331299,0.27,0.04,9.76,0.0,0.0,0.0,0.01,-0.0,0.84,0.54,1.0624007606920627e-14,6.270092254057634e-14,-6.8231034372824035e-15
4.361498832702637,0.27,0.04,9.76,-0.0,0.0,-0.0,0.01,-0.0,0.84,0.54,1.0624007606920627e-14,6.270092254057634e-14,-6.8231034372824035e-15
4.362044334411621,0.27,0.04,9.76,-0.0,0.0,-0.0,0.01,-0.0,0.84,0.54,1.0624007606920627e-14,6.270092254057634e-14,-6.8231034372824035e-15
4.362561941146851,0.27,0.04,9.76,0.0,0.0,0.0,0.01,-0.0,0.84,0.54,1.0624007606920627e-14,6.270092254057634e-14,-6.8231034372824035e-15
4.363084554672241,0.27,0.04,9.76,0.0,0.0,0.0,0.01,-0.0,0.84,0.54,1.0624007606920627e-14,6.270092254057634e-14,-6.8231034372824035e-15
4.363555669784546,0.27,0.04,9.76,0.0,-0.0,-0.0,0.01,-0.0,0.84,0.54,1.0624007606920627e-14,6.270092254057634e-14,-6.8231034372824035e-15
4.364120721817017,0.27,0.04,9.76,0.0,-0.0,-0.0,0.01,-0.0,0.84,0.54,1.0624007606920627e-14,6.270092254057634e-14,-6.8231034372824035e-15
4.364595174789429,0.19,-0.0,9.76,0.0,-0.0,-0.0,0.01,-0.0,0.84,0.54,1.0624007606920627e-14,6.270092254057634e-14,-6.8231034372824035e-15
4.365074396133423,0.19,-0.0,9.76,-0.0,-0.0,0.0,0.01,-0.0,0.84,0.54,1.0624007606920627e-14,6.270092254057634e-14,-6.8231034372824035e-15
4.365597486495972,0.19,-0.0,9.76,-0.0,-0.0,0.0,0.01,-0.0,0.84,0.54,1.0624007606920627e-14,6.270092254057634e-14,-6.8231034372824035e-15
4.366044521331787,0.19,-0.0,9.76,-0.0,-0.0,0.0,0.01,-0.0,0.84,0.54,1.0624007606920627e-14,6.270092254057634e-14,-6.8231034372824035e-15
4.3665502071380615,0.19,-0.0,9.76,-0.01,0.0,-0.0,0.01,-0.0,0.84,0.54,1.0624007606920627e-14,6.270092254057634e-14,-6.8231034372824035e-15
4.367241621017456,0.19,-0.0,9.76,-0.01,0.0,-0.0,0.01,-0.0,0.84,0.54,1.0624007606920627e-14,6.270092254057634e-14,-6.8231034372824035e-15
4.367850065231323,0.19,-0.0,9.76,0.0,0.0,0.01,0.01,-0.0,0.84,0.54,1.0624007606920627e-14,6.270092254057634e-14,-6.8231034372824035e-15
4.368492841720581,0.19,-0.0,9.76,0.0,0.0,0.01,0.01,-0.0,0.84,0.54,1.0624007606920627e-14,6.270092254057634e-14,-6.8231034372824035e-15
4.369125604629517,0.19,-0.0,9.76,0.0,-0.01,-0.0,0.01,-0.0,0.84,0.54,1.0624007606920627e-14,6.270092254057634e-14,-6.8231034372824035e-15
4.369726896286011,0.19,-0.0,9.76,0.0,-0.01,-0.0,0.01,-0.0,0.84,0.54,1.0624007606920627e-14,6.270092254057634e-14,-6.8231034372824035e-15
4.370377779006958,0.19,0.07,9.8,0.0,-0.01,-0.0,0.01,-0.0,0.84,0.54,1.0624007606920627e-14,6.270092254057634e-14,-6.8231034372824035e-15
4.370953559875488,0.19,0.07,9.8,0.0,-0.01,-0.0,0.01,-0.0,0.84,0.54,1.0624007606920627e-14,6.270092254057634e-14,-6.8231034372824035e-15
4.4513537883758545,0.19,0.07,9.8,0.0,0.0,-0.0,0.01,-0.0,0.84,0.54,1.0624007606920627e-14,6.270092254057634e-14,-6.8231034372824035e-15
4.452642917633057,0.19,0.07,9.8,0.0,0.0,-0.0,0.01,-0.0,0.84,0.54,1.0624007606920627e-14,6.270092254057634e-14,-6.8231034372824035e-15
4.453480005264282,0.19,0.07,9.8,0.0,0.0,-0.01,0.01,-0.0,0.84,0.54,1.0624007606920627e-14,6.270092254057634e-14,-6.8231034372824035e-15
4.454111814498901,0.19,0.07,9.8,0.0,0.0,-0.01,0.01,-0.0,0.84,0.54,1.0624007606920627e-14,6.270092254057634e-14,-6.8231034372824035e-15
4.454648017883301,0.19,0.07,9.8,0.01,-0.0,-0.01,0.01,-0.0,0.84,0.54,1.0624007606920627e-14,6.270092254057634e-14,-6.8231034372824035e-15
4.45520544052124,0.19,0.07,9.8,0.01,-0.0,-0.01,0.01,-0.0,0.84,0.54,1.0624007606920627e-14,6.270092254057634e-14,-6.8231034372824035e-15
4.455892562866211,0.19,0.07,9.8,0.0,0.0,-0.0,0.01,-0.0,0.84,0.54,1.0624007606920627e-14,6.270092254057634e-14,-6.8231034372824035e-15
4.456520318984985,0.19,0.07,9.8,0.0,0.0,-0.0,0.01,-0.0,0.84,0.54,1.0624007606920627e-14,6.270092254057634e-14,-6.8231034372824035e-15
4.457157611846924,0.23,-0.0,9.72,0.0,0.0,-0.0,0.01,-0.0,0.84,0.54,1.0624007606920627e-14,6.270092254057634e-14,-6.8231034372824035e-15
4.457763910293579,0.23,-0.0,9.72,0.0,0.0,-0.0,0.01,-0.0,0.84,0.54,1.0624007606920627e-14,6.270092254057634e-14,-6.8231034372824035e-15
4.458362579345703,0.23,-0.0,9.72,-0.01,-0.01,-0.0,0.01,-0.0,0.84,0.54,1.0624007606920627e-14,6.270092254057634e-14,-6.8231034372824035e-15
4.458974838256836,0.23,-0.0,9.72,-0.01,-0.01,-0.0,0.01,-0.0,0.84,0.54,1.0624007606920627e-14,6.270092254057634e-14,-6.8231034372824035e-15
4.4596638679504395,0.23,-0.0,9.72,0.0,0.0,0.0,0.01,-0.0,0.84,0.54,1.0624007606920627e-14,6.270092254057634e-14,-6.8231034372824035e-15
4.460345268249512,0.23,-0.0,9.72,0.0,0.0,0.0,0.01,-0.0,0.84,0.54,1.0624007606920627e-14,6.270092254057634e-14,-6.8231034372824035e-15
4.461294889450073,0.27,0.04,9.8,0.0,0.0,0.0,0.01,-0.0,0.84,0.54,1.0624007606920627e-14,6.270092254057634e-14,-6.8231034372824035e-15
4.462705850601196,0.27,0.04,9.8,0.0,0.0,0.0,0.01,-0.0,0.84,0.54,1.0624007606920627e-14,6.270092254057634e-14,-6.8231034372824035e-15
4.463762044906616,0.27,0.04,9.8,0.0,0.0,0.0,0.01,-0.0,0.84,0.54,1.0624007606920627e-14,6.270092254057634e-14,-6.8231034372824035e-15
4.464366674423218,0.27,0.04,9.8,0.0,0.0,0.0,0.01,-0.0,0.84,0.54,1.0624007606920627e-14,6.270092254057634e-14,-6.8231034372824035e-15
4.464828968048096,0.27,0.04,9.8,0.0,0.0,0.0,0.01,-0.0,0.84,0.54,1.0624007606920627e-14,6.270092254057634e-14,-6.8231034372824035e-15
4.465310335159302,0.27,0.04,9.8,0.0,0.0,0.0,0.01,-0.0,0.84,0.54,1.0624007606920627e-14,6.270092254057634e-14,-6.8231034372824035e-15
4.465915203094482,0.27,0.04,9.8,0.0,0.0,0.0,0.01,-0.0,0.84,0.54,1.0624007606920627e-14,6.270092254057634e-14,-6.8231034372824035e-15
4.551866054534912,0.27,0.04,9.8,0.0,0.0,0.0,0.01,-0.0,0.84,0.54,1.0624007606920627e-14,6.270092254057634e-14,-6.8231034372824035e-15
4.553065776824951,0.27,0.04,9.8,0.0,0.0,0.0,0.01,-0.0,0.84,0.54,1.0624007606920627e-14,6.270092254057634e-14,-6.8231034372824035e-15
4.553838491439819,0.27,0.04,9.8,0.0,0.0,0.0,0.01,-0.0,0.84,0.54,1.0624007606920627e-14,6.270092254057634e-14,-6.8231034372824035e-15
4.55447244644165,0.23,-0.0,9.84,0.0,0.0,0.0,0.01,-0.0,0.84,0.54,1.0624007606920627e-14,6.270092254057634e-14,-6.8231034372824035e-15
4.555333375930786,0.23,-0.0,9.84,0.0,0.0,0.0,0.01,-0.0,0.84,0.54,1.0624007606920627e-14,6.270092254057634e-14,-6.8231034372824035e-15
4.556108236312866,0.23,-0.0,9.84,0.0,0.0,0.0,0.01,-0.0,0.84,0.54,1.0624007606920627e-14,6.270092254057634e-14,-6.8231034372824035e-15
4.55673885345459,0.23,-0.0,9.84,0.0,0.0,0.0,0.01,-0.0,0.84,0.54,1.0624007606920627e-14,6.270092254057634e-14,-6.8231034372824035e-15
4.5579094886779785,0.23,-0.0,9.84,0.0,0.0,0.0,0.01,-0.0,0.84,0.54,1.0624007606920627e-14,6.270092254057634e-14,-6.8231034372824035e-15
4.558656454086304,0.23,-0.0,9.84,0.0,0.0,0.0,0.01,-0.0,0.84,0.54,1.0624007606920627e-14,6.270092254057634e-14,-6.8231034372824035e-15
4.559796571731567,0.23,-0.0,9.84,0.0,0.0,0.0,0.01,-0.0,0.84,0.54,1.0624007606920627e-14,6.270092254057634e-14,-6.8231034372824035e-15
4.560716867446899,0.23,-0.0,9.84,0.0,0.0,0.0,0.01,-0.0,0.84,0.54,1.0624007606920627e-14,6.270092254057634e-14,-6.8231034372824035e-15
4.561306476593018,0.23,-0.0,9.84,0.0,0.0,0.0,0.01,-0.0,0.84,0.54,1.0624007606920627e-14,6.270092254057634e-14,-6.8231034372824035e-15
4.561795473098755,0.23,-0.0,9.84,0.0,0.0,0.0,0.01,-0.0,0.84,0.54,1.0624007606920627e-14,6.270092254057634e-14,-6.8231034372824035e-15
4.562212944030762,0.23,-0.0,9.84,0.0,0.0,0.0,0.01,-0.0,0.84,0.54,1.0624007606920627e-14,6.270092254057634e-14,-6.8231034372824035e-15
4.562969923019409,0.23,-0.0,9.84,0.0,0.0,0.0,0.01,-0.0,0.84,0.54,1.0624007606920627e-14,6.270092254057634e-14,-6.8231034372824035e-15
4.563560485839844,0.23,-0.0,9.84,0.0,0.0,0.0,0.01,-0.0,0.84,0.54,1.0624007606920627e-14,6.270092254057634e-14,-6.8231034372824035e-15
4.564251661300659,0.23,-0.0,9.84,0.0,0.0,0.0,0.01,-0.0,0.84,0.54,1.0624007606920627e-14,6.270092254057634e-14,-6.8231034372824035e-15
4.564755201339722,0.23,-0.0,9.84,0.0,0.0,0.0,0.01,-0.0,0.84,0.54,1.0624007606920627e-14,6.270092254057634e-14,-6.8231034372824035e-15
4.565421104431152,0.23,-0.0,9.84,0.0,0.0,0.0,0.01,-0.0,0.84,0.54,1.0624007606920627e-14,6.270092254057634e-14,-6.8231034372824035e-15
4.5660645961761475,0.27,0.11,9.72,0.0,0.0,0.0,0.01,-0.0,0.84,0.54,1.0624007606920627e-14,6.270092254057634e-14,-6.8231034372824035e-15
4.656771659851074,0.27,0.11,9.72,0.0,0.0,0.0,0.01,-0.0,0.84,0.54,1.0624007606920627e-14,6.270092254057634e-14,-6.8231034372824035e-15
4.657771110534668,0.27,0.11,9.72,0.0,0.0,0.0,0.01,-0.0,0.84,0.54,1.0624007606920627e-14,6.270092254057634e-14,-6.8231034372824035e-15
4.658426761627197,0.27,0.11,9.72,0.0,0.0,0.0,0.01,-0.0,0.84,0.54,1.0624007606920627e-14,6.270092254057634e-14,-6.8231034372824035e-15
4.659104108810425,0.27,0.11,9.72,0.0,0.0,0.0,0.01,-0.0,0.84,0.54,1.0624007606920627e-14,6.270092254057634e-14,-6.8231034372824035e-15
4.65960431098938,0.27,0.11,9.72,0.0,0.0,0.0,0.01,-0.0,0.84,0.54,1.0624007606920627e-14,6.270092254057634e-14,-6.8231034372824035e-15
4.660080909729004,0.27,0.11,9.72,0.0,0.0,0.0,0.01,-0.0,0.84,0.54,1.0624007606920627e-14,6.270092254057634e-14,-6.8231034372824035e-15
4.660685300827026,0.27,0.11,9.72,0.0,0.0,0.0,0.01,-0.0,0.84,0.54,1.0624007606920627e-14,6.270092254057634e-14,-6.8231034372824035e-15
4.661262512207031,0.23,0.07,9.84,0.0,0.0,0.0,0.01,-0.0,0.84,0.54,1.0624007606920627e-14,6.270092254057634e-14,-6.8231034372824035e-15
4.661858320236206,0.23,0.07,9.84,0.0,0.0,0.0,0.01,-0.0,0.84,0.54,1.0624007606920627e-14,6.270092254057634e-14,-6.8231034372824035e-15
4.662336349487305,0.23,0.07,9.84,0.0,0.0,0.0,0.01,-0.0,0.84,0.54,1.0624007606920627e-14,6.270092254057634e-14,-6.8231034372824035e-15
4.662988185882568,0.23,0.07,9.84,0.0,0.0,0.0,0.01,-0.0,0.84,0.54,1.0624007606920627e-14,6.270092254057634e-14,-6.8231034372824035e-15
4.663541078567505,0.23,0.07,9.84,0.0,0.0,0.0,0.01,-0.0,0.84,0.54,1.0624007606920627e-14,6.270092254057634e-14,-6.8231034372824035e-15
4.664172172546387,0.23,0.07,9.84,0.0,0.0,0.0,0.01,-0.0,0.84,0.54,1.0624007606920627e-14,6.270092254057634e-14,-6.8231034372824035e-15
4.664851903915405,0.23,0.07,9.84,0.0,0.0,0.0,0.01,-0.0,0.84,0.54,1.0624007606920627e-14,6.270092254057634e-14,-6.8231034372824035e-15
4.6654744148254395,0.23,0.07,9.84,0.0,0.0,0.0,0.01,-0.0,0.84,0.54,1.0624007606920627e-14,6.270092254057634e-14,-6.8231034372824035e-15
4.666227102279663,0.23,0.07,9.76,0.0,0.0,0.0,0.01,-0.0,0.84,0.54,1.0624007606920627e-14,6.270092254057634e-14,-6.8231034372824035e-15
4.666827201843262,0.23,0.07,9.76,0.0,0.0,0.0,0.01,-0.0,0.84,0.54,1.0624007606920627e-14,6.270092254057634e-14,-6.8231034372824035e-15
4.667676210403442,0.23,0.07,9.76,0.0,0.0,0.0,0.01,-0.0,0.84,0.54,1.0624007606920627e-14,6.270092254057634e-14,-6.8231034372824035e-15
4.66843581199646,0.23,0.07,9.76,0.0,0.0,0.0,0.01,-0.0,0.84,0.54,1.0624007606920627e-14,6.270092254057634e-14,-6.8231034372824035e-15
4.669420003890991,0.23,0.07,9.76,0.0,0.0,0.0,0.01,-0.0,0.84,0.54,1.0624007606920627e-14,6.270092254057634e-14,-6.8231034372824035e-15
4.670231103897095,0.23,0.07,9.76,0.0,0.0,0.0,0.01,-0.0,0.84,0.54,1.0624007606920627e-14,6.270092254057634e-14,-6.8231034372824035e-15
4.775757789611816,0.23,0.07,9.76,0.0,0.0,0.0,0.01,-0.0,0.84,0.54,1.0624007606920627e-14,6.270092254057634e-14,-6.8231034372824035e-15
4.77683687210083,0.23,0.07,9.76,0.0,0.0,0.0,0.01,-0.0,0.84,0.54,1.0624007606920627e-14,6.270092254057634e-14,-6.8231034372824035e-15
4.777547359466553,0.23,0.07,9.76,0.0,0.0,0.0,0.01,-0.0,0.84,0.54,1.0624007606920627e-14,6.270092254057634e-14,-6.8231034372824035e-15
4.778184652328491,0.23,0.07,9.76,0.0,0.0,0.0,0.01,-0.0,0.84,0.54,1.0624007606920627e-14,6.270092254057634e-14,-6.8231034372824035e-15
4.778756141662598,0.19,-0.0,9.8,0.0,0.0,0.0,0.01,-0.0,0.84,0.54,1.0624007606920627e-14,6.270092254057634e-14,-6.8231034372824035e-15
4.779642581939697,0.19,-0.0,9.8,0.0,0.0,0.0,0.01,-0.0,0.84,0.54,1.0624007606920627e-14,6.270092254057634e-14,-6.8231034372824035e-15
4.78049898147583,0.19,-0.0,9.8,0.0,0.0,0.0,0.01,-0.0,0.84,0.54,1.0624007606920627e-14,6.270092254057634e-14,-6.8231034372824035e-15
4.781308650970459,0.19,-0.0,9.8,0.0,0.0,0.0,0.01,-0.0,0.84,0.54,1.0624007606920627e-14,6.270092254057634e-14,-6.8231034372824035e-15
4.781900882720947,0.19,-0.0,9.8,0.0,0.0,0.0,0.01,-0.0,0.84,0.54,1.0624007606920627e-14,6.270092254057634e-14,-6.8231034372824035e-15
4.782499551773071,0.19,-0.0,9.8,0.0,0.0,0.0,0.01,-0.0,0.84,0.54,1.0624007606920627e-14,6.270092254057634e-14,-6.8231034372824035e-15
4.783289432525635,0.19,-0.0,9.8,0.0,0.0,0.0,0.01,-0.0,0.84,0.54,1.0624007606920627e-14,6.270092254057634e-14,-6.8231034372824035e-15
4.783954620361328,0.19,-0.0,9.8,0.0,0.0,0.0,0.01,-0.0,0.84,0.54,1.0624007606920627e-14,6.270092254057634e-14,-6.8231034372824035e-15
4.78460693359375,0.19,-0.0,9.84,0.0,0.0,0.0,0.01,-0.0,0.84,0.54,1.0624007606920627e-14,6.270092254057634e-14,-6.8231034372824035e-15
4.785300970077515,0.19,-0.0,9.84,0.0,0.0,0.0,0.01,-0.0,0.84,0.54,1.0624007606920627e-14,6.270092254057634e-14,-6.8231034372824035e-15
4.7860496044158936,0.19,-0.0,9.84,0.0,0.0,0.0,0.01,-0.0,0.84,0.54,1.0624007606920627e-14,6.270092254057634e-14,-6.8231034372824035e-15
4.786726951599121,0.19,-0.0,9.84,0.0,0.0,0.0,0.01,-0.0,0.84,0.54,1.0624007606920627e-14,6.270092254057634e-14,-6.8231034372824035e-15
4.78737998008728,0.19,-0.0,9.84,0.0,0.0,0.0,0.01,-0.0,0.84,0.54,1.0624007606920627e-14,6.270092254057634e-14,-6.8231034372824035e-15
4.788062334060669,0.19,-0.0,9.84,0.0,0.0,0.0,0.01,-0.0,0.84,0.54,1.0624007606920627e-14,6.270092254057634e-14,-6.8231034372824035e-15
4.788700580596924,0.23,-0.0,9.76,0.0,0.0,0.0,0.01,-0.0,0.84,0.54,1.0624007606920627e-14,6.270092254057634e-14,-6.8231034372824035e-15
4.789518594741821,0.23,-0.0,9.76,0.0,0.0,0.0,0.01,-0.0,0.84,0.54,1.0624007606920627e-14,6.270092254057634e-14,-6.8231034372824035e-15
4.790215015411377,0.23,-0.0,9.76,0.0,0.0,0.0,0.01,-0.0,0.84,0.54,1.0624007606920627e-14,6.270092254057634e-14,-6.8231034372824035e-15
4.790903806686401,0.23,-0.0,9.76,0.0,0.0,0.0,0.01,-0.0,0.84,0.54,1.0624007606920627e-14,6.270092254057634e-14,-6.8231034372824035e-15
4.7913806438446045,0.23,-0.0,9.76,0.0,0.0,0.0,0.01,-0.0,0.84,0.54,1.0624007606920627e-14,6.270092254057634e-14,-6.8231034372824035e-15
4.791961669921875,0.23,-0.0,9.76,0.0,0.0,0.0,0.01,-0.0,0.84,0.54,1.0624007606920627e-14,6.270092254057634e-14,-6.8231034372824035e-15
4.792727708816528,0.23,-0.0,9.76,0.0,0.0,0.0,0.01,-0.0,0.84,0.54,1.0624007606920627e-14,6.270092254057634e-14,-6.8231034372824035e-15
4.793407917022705,0.23,-0.0,9.76,0.0,0.0,0.0,0.01,-0.0,0.84,0.54,1.0624007606920627e-14,6.270092254057634e-14,-6.8231034372824035e-15
4.890789270401001,0.23,-0.0,9.76,0.0,0.0,0.0,0.01,-0.0,0.84,0.54,1.0624007606920627e-14,6.270092254057634e-14,-6.8231034372824035e-15
4.8918516635894775,0.23,-0.0,9.76,0.0,0.0,0.0,0.01,-0.0,0.84,0.54,1.0624007606920627e-14,6.270092254057634e-14,-6.8231034372824035e-15
4.892630577087402,0.23,-0.0,9.76,0.0,0.0,0.0,0.01,-0.0,0.84,0.54,1.0624007606920627e-14,6.270092254057634e-14,-6.8231034372824035e-15
4.893362283706665,0.23,-0.0,9.76,0.0,0.0,0.0,0.01,-0.0,0.84,0.54,1.0624007606920627e-14,6.270092254057634e-14,-6.8231034372824035e-15
4.894201993942261,0.27,0.11,9.8,0.0,0.0,0.0,0.01,-0.0,0.84,0.54,1.0624007606920627e-14,6.270092254057634e-14,-6.8231034372824035e-15
4.8950724601745605,0.27,0.11,9.8,0.0,0.0,0.0,0.01,-0.0,0.84,0.54,1.0624007606920627e-14,6.270092254057634e-14,-6.8231034372824035e-15
4.895819902420044,0.27,0.11,9.8,0.0,0.0,0.0,0.01,-0.0,0.84,0.54,1.0624007606920627e-14,6.270092254057634e-14,-6.8231034372824035e-15
4.89650559425354,0.27,0.11,9.8,0.0,0.0,0.0,0.01,-0.0,0.84,0.54,1.0624007606920627e-14,6.270092254057634e-14,-6.8231034372824035e-15
4.897258996963501,0.27,0.11,9.8,0.0,0.0,0.0,0.01,-0.0,0.84,0.54,1.0624007606920627e-14,6.270092254057634e-14,-6.8231034372824035e-15
4.897752046585083,0.27,0.11,9.8,0.0,0.0,0.0,0.01,-0.0,0.84,0.54,1.0624007606920627e-14,6.270092254057634e-14,-6.8231034372824035e-15
4.898608446121216,0.27,0.11,9.8,0.0,0.0,0.0,0.01,-0.0,0.84,0.54,1.0624007606920627e-14,6.270092254057634e-14,-6.8231034372824035e-15
4.899260997772217,0.27,0.11,9.8,0.0,0.0,0.0,0.01,-0.0,0.84,0.54,1.0624007606920627e-14,6.270092254057634e-14,-6.8231034372824035e-15
4.899818181991577,0.27,0.07,9.8,0.0,0.0,0.0,0.01,-0.0,0.84,0.54,1.0624007606920627e-14,6.270092254057634e-14,-6.8231034372824035e-15
4.900408029556274,0.27,0.07,9.8,0.0,0.0,0.0,0.01,-0.0,0.84,0.54,1.0624007606920627e-14,6.270092254057634e-14,-6.8231034372824035e-15
4.900881052017212,0.27,0.07,9.8,0.0,0.0,0.0,0.01,-0.0,0.84,0.54,1.0624007606920627e-14,6.270092254057634e-14,-6.8231034372824035e-15
4.901420593261719,0.27,0.07,9.8,0.0,0.0,0.0,0.01,-0.0,0.84,0.54,1.0624007606920627e-14,6.270092254057634e-14,-6.8231034372824035e-15
4.90190863609314,0.27,0.07,9.8,0.0,0.0,0.0,0.01,-0.0,0.84,0.54,1.0624007606920627e-14,6.270092254057634e-14,-6.8231034372824035e-15
4.902495384216309,0.27,0.07,9.8,0.0,0.0,0.0,0.01,-0.0,0.84,0.54,1.0624007606920627e-14,6.270092254057634e-14,-6.8231034372824035e-15
4.902969598770142,0.19,-0.0,9.84,0.0,0.0,0.0,0.01,-0.0,0.84,0.54,1.0624007606920627e-14,6.270092254057634e-14,-6.8231034372824035e-15
4.903475761413574,0.19,-0.0,9.84,0.0,0.0,0.0,0.01,-0.0,0.84,0.54,1.0624007606920627e-14,6.270092254057634e-14,-6.8231034372824035e-15
4.904169797897339,0.19,-0.0,9.84,0.0,0.0,0.0,0.01,-0.0,0.84,0.54,1.0624007606920627e-14,6.270092254057634e-14,-6.8231034372824035e-15
4.904777765274048,0.19,-0.0,9.84,0.0,0.0,0.0,0.01,-0.0,0.84,0.54,1.0624007606920627e-14,6.270092254057634e-14,-6.8231034372824035e-15
4.905376672744751,0.19,-0.0,9.84,0.0,0.0,0.0,0.01,-0.0,0.84,0.54,1.0624007606920627e-14,6.270092254057634e-14,-6.8231034372824035e-15
4.906006574630737,0.19,-0.0,9.84,0.0,0.0,0.0,0.01,-0.0,0.84,0.54,1.0624007606920627e-14,6.270092254057634e-14,-6.8231034372824035e-15
4.906627416610718,0.19,-0.0,9.84,0.0,0.0,0.0,0.01,-0.0,0.84,0.54,1.0624007606920627e-14,6.270092254057634e-14,-6.8231034372824035e-15
4.992735147476196,0.19,-0.0,9.84,0.0,0.0,0.0,0.01,-0.0,0.84,0.54,1.0624007606920627e-14,6.270092254057634e-14,-6.8231034372824035e-15
4.993736505508423,0.27,0.07,9.84,0.0,0.0,0.0,0.01,-0.0,0.84,0.54,1.0624007606920627e-14,6.270092254057634e-14,-6.8231034372824035e-15
4.994534015655518,0.27,0.07,9.84,0.0,0.0,0.0,0.01,-0.0,0.84,0.54,1.0624007606920627e-14,6.270092254057634e-14,-6.8231034372824035e-15
4.995223760604858,0.27,0.07,9.84,0.0,0.0,0.0,0.01,-0.0,0.84,0.54,1.0624007606920627e-14,6.270092254057634e-14,-6.8231034372824035e-15
4.99591588973999,0.27,0.07,9.84,0.0,0.0,0.0,0.01,-0.0,0.84,0.54,1.0624007606920627e-14,6.270092254057634e-14,-6.8231034372824035e-15
4.9966185092926025,0.27,0.07,9.84,0.0,0.0,0.0,0.01,-0.0,0.84,0.54,1.0624007606920627e-14,6.270092254057634e-14,-6.8231034372824035e-15
4.998258829116821,0.27,0.07,9.84,0.0,0.0,0.0,0.01,-0.0,0.84,0.54,1.0624007606920627e-14,6.270092254057634e-14,-6.8231034372824035e-15
4.998873233795166,0.27,0.07,9.84,0.0,0.0,0.0,0.01,-0.0,0.84,0.54,1.0624007606920627e-14,6.270092254057634e-14,-6.8231034372824035e-15
4.999560594558716,0.27,0.07,9.84,0.0,0.0,0.0,0.01,-0.0,0.84,0.54,1.0624007606920627e-14,6.270092254057634e-14,-6.8231034372824035e-15
5.000149488449097,0.27,0.07,9.84,0.0,0.0,0.0,0.01,-0.0,0.84,0.54,1.0624007606920627e-14,6.270092254057634e-14,-6.8231034372824035e-15
5.000925779342651,0.27,0.07,9.84,0.0,0.0,0.0,0.01,-0.0,0.84,0.54,1.0624007606920627e-14,6.270092254057634e-14,-6.8231034372824035e-15
5.00149130821228,0.27,0.07,9.84,0.0,0.0,0.0,0.01,-0.0,0.84,0.54,1.0624007606920627e-14,6.270092254057634e-14,-6.8231034372824035e-15
5.0021538734436035,0.27,0.07,9.84,0.0,0.0,0.0,0.01,-0.0,0.84,0.54,1.0624007606920627e-14,6.270092254057634e-14,-6.8231034372824035e-15
5.002631902694702,0.27,0.04,9.8,0.0,0.0,0.0,0.01,-0.0,0.84,0.54,1.0624007606920627e-14,6.270092254057634e-14,-6.8231034372824035e-15
5.003127098083496,0.27,0.04,9.8,0.0,0.0,0.0,0.01,-0.0,0.84,0.54,1.0624007606920627e-14,6.270092254057634e-14,-6.8231034372824035e-15
5.003654718399048,0.27,0.04,9.8,0.0,0.0,0.0,0.01,-0.0,0.84,0.54,1.0624007606920627e-14,6.270092254057634e-14,-6.8231034372824035e-15
5.004166603088379,0.27,0.04,9.8,0.0,0.0,0.0,0.01,-0.0,0.84,0.54,1.0624007606920627e-14,6.270092254057634e-14,-6.8231034372824035e-15
5.004607915878296,0.23,0.07,9.76,0.0,0.0,0.0,0.01,-0.0,0.84,0.54,1.0624007606920627e-14,6.270092254057634e-14,-6.8231034372824035e-15
5.005116939544678,0.23,0.07,9.76,0.0,0.0,0.0,0.01,-0.0,0.84,0.54,1.0624007606920627e-14,6.270092254057634e-14,-6.8231034372824035e-15
5.0056140422821045,0.23,0.07,9.76,0.0,0.0,0.0,0.01,-0.0,0.84,0.54,1.0624007606920627e-14,6.270092254057634e-14,-6.8231034372824035e-15
5.006155729293823,0.23,0.07,9.76,0.0,0.0,0.0,0.01,-0.0,0.84,0.54,1.0624007606920627e-14,6.270092254057634e-14,-6.8231034372824035e-15
5.094557285308838,0.23,0.07,9.76,0.0,0.0,0.0,0.01,-0.0,0.84,0.54,1.0624007606920627e-14,6.270092254057634e-14,-6.8231034372824035e-15
5.0957231521606445,0.23,0.07,9.76,0.0,0.0,0.0,0.01,-0.0,0.84,0.54,1.0624007606920627e-14,6.270092254057634e-14,-6.8231034372824035e-15
5.096570253372192,0.23,0.07,9.76,0.0,0.0,0.0,0.01,-0.0,0.84,0.54,1.0624007606920627e-14,6.270092254057634e-14,-6.8231034372824035e-15
5.097426176071167,0.23,0.07,9.76,0.0,0.0,0.0,0.01,-0.0,0.84,0.54,1.0624007606920627e-14,6.270092254057634e-14,-6.8231034372824035e-15
5.098048448562622,0.27,0.04,9.84,0.0,0.0,0.0,0.01,-0.0,0.84,0.54,1.0624007606920627e-14,6.270092254057634e-14,-6.8231034372824035e-15
5.098830461502075,0.27,0.04,9.84,0.0,0.0,0.0,0.01,-0.0,0.84,0.54,1.0624007606920627e-14,6.270092254057634e-14,-6.8231034372824035e-15
5.099493026733398,0.27,0.04,9.84,0.0,0.0,0.0,0.01,-0.0,0.84,0.54,1.0624007606920627e-14,6.270092254057634e-14,-6.8231034372824035e-15
5.100038766860962,0.27,0.04,9.84,0.0,0.0,0.0,0.01,-0.0,0.84,0.54,1.0624007606920627e-14,6.270092254057634e-14,-6.8231034372824035e-15
5.100587368011475,0.27,0.04,9.84,0.0,0.0,0.0,0.01,-0.0,0.84,0.54,1.0624007606920627e-14,6.270092254057634e-14,-6.8231034372824035e-15
5.1019322872161865,0.27,0.04,9.84,0.0,0.0,0.0,0.01,-0.0,0.84,0.54,1.0624007606920627e-14,6.270092254057634e-14,-6.8231034372824035e-15
5.102762460708618,0.27,0.04,9.84,0.0,0.0,0.0,0.01,-0.0,0.84,0.54,1.0624007606920627e-14,6.270092254057634e-14,-6.8231034372824035e-15
5.103448152542114,0.27,0.04,9.84,0.0,0.0,0.0,0.01,-0.0,0.84,0.54,1.0624007606920627e-14,6.270092254057634e-14,-6.8231034372824035e-15
5.103955030441284,0.27,0.04,9.84,0.0,0.0,0.0,0.01,-0.0,0.84,0.54,1.0624007606920627e-14,6.270092254057634e-14,-6.8231034372824035e-15
5.1044230461120605,0.27,0.04,9.84,0.0,0.0,0.0,0.01,-0.0,0.84,0.54,1.0624007606920627e-14,6.270092254057634e-14,-6.8231034372824035e-15
5.104976177215576,0.27,0.04,9.84,0.0,0.0,0.0,0.01,-0.0,0.84,0.54,1.0624007606920627e-14,6.270092254057634e-14,-6.8231034372824035e-15
5.105670928955078,0.27,0.04,9.84,0.0,0.0,0.0,0.01,-0.0,0.84,0.54,1.0624007606920627e-14,6.270092254057634e-14,-6.8231034372824035e-15
5.106343984603882,0.3,0.04,9.76,0.0,0.0,0.0,0.01,-0.0,0.84,0.54,1.0624007606920627e-14,6.270092254057634e-14,-6.8231034372824035e-15
5.106857776641846,0.3,0.04,9.76,0.0,0.0,0.0,0.01,-0.0,0.84,0.54,1.0624007606920627e-14,6.270092254057634e-14,-6.8231034372824035e-15
5.107778549194336,0.3,0.04,9.76,0.0,0.0,0.0,0.01,-0.0,0.84,0.54,1.0624007606920627e-14,6.270092254057634e-14,-6.8231034372824035e-15
5.1084983348846436,0.3,0.04,9.76,0.0,0.0,0.0,0.01,-0.0,0.84,0.54,1.0624007606920627e-14,6.270092254057634e-14,-6.8231034372824035e-15
5.109408378601074,0.3,0.04,9.76,0.0,0.0,0.0,0.01,-0.0,0.84,0.54,1.0624007606920627e-14,6.270092254057634e-14,-6.8231034372824035e-15
5.109984636306763,0.3,0.04,9.76,0.0,0.0,0.0,0.01,-0.0,0.84,0.54,1.0624007606920627e-14,6.270092254057634e-14,-6.8231034372824035e-15
5.194426536560059,0.3,0.04,9.76,0.0,0.0,0.0,0.01,-0.0,0.84,0.54,1.0624007606920627e-14,6.270092254057634e-14,-6.8231034372824035e-15
5.1951940059661865,0.3,0.04,9.76,0.0,0.0,0.0,0.01,-0.0,0.84,0.54,1.0624007606920627e-14,6.270092254057634e-14,-6.8231034372824035e-15
5.195714473724365,0.23,0.07,9.8,0.0,0.0,0.0,0.01,-0.0,0.84,0.54,1.0624007606920627e-14,6.270092254057634e-14,-6.8231034372824035e-15
5.196171760559082,0.23,0.07,9.8,0.0,0.0,0.0,0.01,-0.0,0.84,0.54,1.0624007606920627e-14,6.270092254057634e-14,-6.8231034372824035e-15
5.196702003479004,0.23,0.07,9.8,0.0,0.0,0.0,0.01,-0.0,0.84,0.54,1.0624007606920627e-14,6.270092254057634e-14,-6.8231034372824035e-15
5.197261571884155,0.23,0.07,9.8,0.0,0.0,0.0,0.01,-0.0,0.84,0.54,1.0624007606920627e-14,6.270092254057634e-14,-6.8231034372824035e-15
5.197741508483887,0.23,0.07,9.8,0.0,0.0,0.0,0.01,-0.0,0.84,0.54,1.0624007606920627e-14,6.270092254057634e-14,-6.8231034372824035e-15
5.198209285736084,0.23,0.07,9.8,0.0,0.0,0.0,0.01,-0.0,0.84,0.54,1.0624007606920627e-14,6.270092254057634e-14,-6.8231034372824035e-15
5.198671579360962,0.23,0.07,9.8,0.0,0.0,0.0,0.01,-0.0,0.84,0.54,1.0624007606920627e-14,6.270092254057634e-14,-6.8231034372824035e-15
5.199259042739868,0.23,0.07,9.8,0.0,0.0,0.0,0.01,-0.0,0.84,0.54,1.0624007606920627e-14,6.270092254057634e-14,-6.8231034372824035e-15
5.199840784072876,0.23,0.07,9.76,0.0,0.0,0.0,0.01,-0.0,0.84,0.54,1.0624007606920627e-14,6.270092254057634e-14,-6.8231034372824035e-15
5.200366973876953,0.23,0.07,9.76,0.0,0.0,0.0,0.01,-0.0,0.84,0.54,1.0624007606920627e-14,6.270092254057634e-14,-6.8231034372824035e-15
5.200982332229614,0.23,0.07,9.76,0.0,0.0,0.0,0.01,-0.0,0.84,0.54,1.0624007606920627e-14,6.270092254057634e-14,-6.8231034372824035e-15
5.201648950576782,0.23,0.07,9.76,0.0,0.0,0.0,0.01,-0.0,0.84,0.54,1.0624007606920627e-14,6.270092254057634e-14,-6.8231034372824035e-15
5.20235276222229,0.23,0.07,9.76,0.0,0.0,0.0,0.01,-0.0,0.84,0.54,1.0624007606920627e-14,6.270092254057634e-14,-6.8231034372824035e-15
5.203106880187988,0.23,0.07,9.76,0.0,0.0,0.0,0.01,-0.0,0.84,0.54,1.0624007606920627e-14,6.270092254057634e-14,-6.8231034372824035e-15
5.203796148300171,0.23,0.07,9.76,0.0,0.0,0.0,0.01,-0.0,0.84,0.54,1.0624007606920627e-14,6.270092254057634e-14,-6.8231034372824035e-15
5.2045512199401855,0.23,0.07,9.76,0.0,0.0,0.0,0.01,-0.0,0.84,0.54,1.0624007606920627e-14,6.270092254057634e-14,-6.8231034372824035e-15
5.205206632614136,0.23,0.07,9.76,0.0,0.0,0.0,0.01,-0.0,0.84,0.54,1.0624007606920627e-14,6.270092254057634e-14,-6.8231034372824035e-15
5.205721616744995,0.23,0.07,9.76,0.0,0.0,0.0,0.01,-0.0,0.84,0.54,1.0624007606920627e-14,6.270092254057634e-14,-6.8231034372824035e-15
5.206186532974243,0.23,0.04,9.76,0.0,0.0,0.0,0.01,-0.0,0.84,0.54,1.0624007606920627e-14,6.270092254057634e-14,-6.8231034372824035e-15
5.294086694717407,0.23,0.04,9.76,0.0,0.0,0.0,0.01,-0.0,0.84,0.54,1.0624007606920627e-14,6.270092254057634e-14,-6.8231034372824035e-15
5.294973611831665,0.23,0.04,9.76,0.0,0.0,0.0,0.01,-0.0,0.84,0.54,1.0624007606920627e-14,6.270092254057634e-14,-6.8231034372824035e-15
5.29580545425415,0.23,0.04,9.76,0.0,0.0,0.0,0.01,-0.0,0.84,0.54,1.0624007606920627e-14,6.270092254057634e-14,-6.8231034372824035e-15
5.296533107757568,0.23,0.04,9.76,0.0,0.0,0.0,0.01,-0.0,0.84,0.54,1.0624007606920627e-14,6.270092254057634e-14,-6.8231034372824035e-15
5.297408580780029,0.23,0.04,9.76,0.0,0.0,0.0,0.01,-0.0,0.84,0.54,1.0624007606920627e-14,6.270092254057634e-14,-6.8231034372824035e-15
5.298008918762207,0.23,0.04,9.76,0.0,0.0,0.0,0.01,-0.0,0.84,0.54,1.0624007606920627e-14,6.270092254057634e-14,-6.8231034372824035e-15
5.298486232757568,0.23,0.04,9.76,0.0,0.0,0.0,0.01,-0.0,0.84,0.54,1.0624007606920627e-14,6.270092254057634e-14,-6.8231034372824035e-15
5.2989583015441895,0.23,0.04,9.76,0.0,0.0,0.0,0.01,-0.0,0.84,0.54,1.0624007606920627e-14,6.270092254057634e-14,-6.8231034372824035e-15
5.299592018127441,0.23,0.04,9.76,0.0,0.0,0.0,0.01,-0.0,0.84,0.54,1.0624007606920627e-14,6.270092254057634e-14,-6.8231034372824035e-15
5.300105333328247,0.23,0.07,9.76,0.0,0.0,0.0,0.01,-0.0,0.84,0.54,1.0624007606920627e-14,6.270092254057634e-14,-6.8231034372824035e-15
5.300590991973877,0.23,0.07,9.76,0.0,0.0,0.0,0.01,-0.0,0.84,0.54,1.0624007606920627e-14,6.270092254057634e-14,-6.8231034372824035e-15
5.301074504852295,0.23,0.07,9.76,0.0,0.0,0.0,0.01,-0.0,0.84,0.54,1.0624007606920627e-14,6.270092254057634e-14,-6.8231034372824035e-15
5.301565885543823,0.23,0.07,9.76,0.0,0.0,0.0,0.01,-0.0,0.84,0.54,1.0624007606920627e-14,6.270092254057634e-14,-6.8231034372824035e-15
5.302389860153198,0.23,0.07,9.76,0.0,0.0,0.0,0.01,-0.0,0.84,0.54,1.0624007606920627e-14,6.270092254057634e-14,-6.8231034372824035e-15
5.3028647899627686,0.23,0.07,9.76,0.0,0.0,0.0,0.01,-0.0,0.84,0.54,1.0624007606920627e-14,6.270092254057634e-14,-6.8231034372824035e-15
5.303349733352661,0.23,0.07,9.76,0.0,0.0,0.0,0.01,-0.0,0.84,0.54,1.0624007606920627e-14,6.270092254057634e-14,-6.8231034372824035e-15
5.303926944732666,0.23,0.07,9.76,0.0,0.0,0.0,0.01,-0.0,0.84,0.54,1.0624007606920627e-14,6.270092254057634e-14,-6.8231034372824035e-15
5.304455995559692,0.19,0.04,9.84,0.0,0.0,0.0,0.01,-0.0,0.84,0.54,1.0624007606920627e-14,6.270092254057634e-14,-6.8231034372824035e-15
5.305342435836792,0.19,0.04,9.84,0.0,0.0,0.0,0.01,-0.0,0.84,0.54,1.0624007606920627e-14,6.270092254057634e-14,-6.8231034372824035e-15
5.306223630905151,0.19,0.04,9.84,0.0,0.0,0.0,0.01,-0.0,0.84,0.54,1.0624007606920627e-14,6.270092254057634e-14,-6.8231034372824035e-15
5.306700944900513,0.19,0.04,9.84,0.0,0.0,0.0,0.01,-0.0,0.84,0.54,1.0624007606920627e-14,6.270092254057634e-14,-6.8231034372824035e-15
5.3072590827941895,0.19,0.04,9.84,0.0,0.0,0.0,0.01,-0.0,0.84,0.54,1.0624007606920627e-14,6.270092254057634e-14,-6.8231034372824035e-15
5.3078789710998535,0.19,0.04,9.84,0.0,0.0,0.0,0.01,-0.0,0.84,0.54,1.0624007606920627e-14,6.270092254057634e-14,-6.8231034372824035e-15
5.393896102905273,0.19,0.04,9.84,0.0,0.0,0.0,0.01,-0.0,0.84,0.54,1.0624007606920627e-14,6.270092254057634e-14,-6.8231034372824035e-15
5.394714593887329,0.19,0.04,9.84,0.0,0.0,0.0,0.01,-0.0,0.84,0.54,1.0624007606920627e-14,6.270092254057634e-14,-6.8231034372824035e-15
5.395296096801758,0.19,0.04,9.84,0.0,0.0,0.0,0.01,-0.0,0.84,0.54,1.0624007606920627e-14,6.270092254057634e-14,-6.8231034372824035e-15
5.395878553390503,0.19,0.04,9.84,0.0,0.0,0.0,0.01,-0.0,0.84,0.54,1.0624007606920627e-14,6.270092254057634e-14,-6.8231034372824035e-15
5.396501064300537,0.19,0.04,9.84,0.0,0.0,0.0,0.01,-0.0,0.84,0.54,1.0624007606920627e-14,6.270092254057634e-14,-6.8231034372824035e-15
5.397181749343872,0.19,0.04,9.84,0.0,0.0,0.0,0.01,-0.0,0.84,0.54,1.0624007606920627e-14,6.270092254057634e-14,-6.8231034372824035e-15
5.397791385650635,0.23,0.04,9.76,0.0,0.0,0.0,0.01,-0.0,0.84,0.54,1.0624007606920627e-14,6.270092254057634e-14,-6.8231034372824035e-15
5.398280382156372,0.23,0.04,9.76,0.0,0.0,0.0,0.01,-0.0,0.84,0.54,1.0624007606920627e-14,6.270092254057634e-14,-6.8231034372824035e-15
5.398771047592163,0.23,0.04,9.76,0.0,0.0,0.0,0.01,-0.0,0.84,0.54,1.0624007606920627e-14,6.270092254057634e-14,-6.8231034372824035e-15
5.399308443069458,0.23,0.04,9.76,0.0,0.0,0.0,0.01,-0.0,0.84,0.54,1.0624007606920627e-14,6.270092254057634e-14,-6.8231034372824035e-15
5.39978289604187,0.23,0.04,9.76,0.0,0.0,0.0,0.01,-0.0,0.84,0.54,1.0624007606920627e-14,6.270092254057634e-14,-6.8231034372824035e-15
5.400251865386963,0.23,0.04,9.76,0.0,0.0,0.0,0.01,-0.0,0.84,0.54,1.0624007606920627e-14,6.270092254057634e-14,-6.8231034372824035e-15
5.400781631469727,0.23,0.04,9.76,0.0,0.0,0.0,0.01,-0.0,0.84,0.54,1.0624007606920627e-14,6.270092254057634e-14,-6.8231034372824035e-15
5.401383638381958,0.23,0.04,9.76,0.0,0.0,0.0,0.01,-0.0,0.84,0.54,1.0624007606920627e-14,6.270092254057634e-14,-6.8231034372824035e-15
5.401919364929199,0.27,0.04,9.84,0.0,0.0,0.0,0.01,-0.0,0.84,0.54,1.0624007606920627e-14,6.270092254057634e-14,-6.8231034372824035e-15
5.402510404586792,0.27,0.04,9.84,0.0,0.0,0.0,0.01,-0.0,0.84,0.54,1.0624007606920627e-14,6.270092254057634e-14,-6.8231034372824035e-15
5.402986764907837,0.27,0.04,9.84,0.0,0.0,0.0,0.01,-0.0,0.84,0.54,1.0624007606920627e-14,6.270092254057634e-14,-6.8231034372824035e-15
5.403448104858398,0.27,0.04,9.84,0.0,0.0,0.0,0.01,-0.0,0.84,0.54,1.0624007606920627e-14,6.270092254057634e-14,-6.8231034372824035e-15
5.403905868530273,0.27,0.04,9.84,0.0,0.0,0.0,0.01,-0.0,0.84,0.54,1.0624007606920627e-14,6.270092254057634e-14,-6.8231034372824035e-15
5.404367685317993,0.27,0.04,9.84,0.0,0.0,0.0,0.01,-0.0,0.84,0.54,1.0624007606920627e-14,6.270092254057634e-14,-6.8231034372824035e-15
5.4823899269104,0.23,-0.08,9.8,0.0,0.0,0.0,0.01,-0.0,0.84,0.54,1.0624007606920627e-14,6.270092254057634e-14,-6.8231034372824035e-15
5.483611106872559,0.23,-0.08,9.8,0.0,0.0,0.0,0.01,-0.0,0.84,0.54,1.0624007606920627e-14,6.270092254057634e-14,-6.8231034372824035e-15
5.484399795532227,0.23,-0.08,9.8,0.0,0.0,0.0,0.01,-0.0,0.84,0.54,1.0624007606920627e-14,6.270092254057634e-14,-6.8231034372824035e-15
5.48507833480835,0.23,-0.08,9.8,0.0,0.0,0.0,0.01,-0.0,0.84,0.54,1.0624007606920627e-14,6.270092254057634e-14,-6.8231034372824035e-15
5.485874176025391,0.23,-0.08,9.8,0.0,0.0,0.0,0.01,-0.0,0.84,0.54,1.0624007606920627e-14,6.270092254057634e-14,-6.8231034372824035e-15
5.486663579940796,0.23,-0.08,9.8,0.0,0.0,0.0,0.01,-0.0,0.84,0.54,1.0624007606920627e-14,6.270092254057634e-14,-6.8231034372824035e-15
5.487183094024658,0.23,-0.08,9.8,0.0,0.0,0.0,0.01,-0.0,0.84,0.54,1.0624007606920627e-14,6.270092254057634e-14,-6.8231034372824035e-15
5.487688064575195,0.23,-0.08,9.8,0.0,0.0,0.0,0.01,-0.0,0.84,0.54,1.0624007606920627e-14,6.270092254057634e-14,-6.8231034372824035e-15
5.488126993179321,0.23,-0.08,9.8,0.0,0.0,0.0,0.01,-0.0,0.84,0.54,1.0624007606920627e-14,6.270092254057634e-14,-6.8231034372824035e-15
5.488659858703613,0.23,-0.08,9.8,0.0,0.0,0.0,0.01,-0.0,0.84,0.54,1.0624007606920627e-14,6.270092254057634e-14,-6.8231034372824035e-15
5.489284038543701,0.27,-0.04,9.76,0.0,0.0,0.0,0.01,-0.0,0.84,0.54,1.0624007606920627e-14,6.270092254057634e-14,-6.8231034372824035e-15
5.489827394485474,0.27,-0.04,9.76,0.0,0.0,0.0,0.01,-0.0,0.84,0.54,1.0624007606920627e-14,6.270092254057634e-14,-6.8231034372824035e-15
5.490351915359497,0.27,-0.04,9.76,0.0,0.0,0.0,0.01,-0.0,0.84,0.54,1.0624007606920627e-14,6.270092254057634e-14,-6.8231034372824035e-15
5.490930557250977,0.27,-0.04,9.76,0.0,0.0,0.0,0.01,-0.0,0.84,0.54,1.0624007606920627e-14,6.270092254057634e-14,-6.8231034372824035e-15
5.491455793380737,0.27,-0.04,9.76,0.0,0.0,0.0,0.01,-0.0,0.84,0.54,1.0624007606920627e-14,6.270092254057634e-14,-6.8231034372824035e-15
5.49190092086792,0.27,-0.04,9.76,0.0,0.0,0.0,0.01,-0.0,0.84,0.54,1.0624007606920627e-14,6.270092254057634e-14,-6.8231034372824035e-15
5.589895248413086,0.19,-0.0,9.72,0.0,0.0,0.0,0.01,-0.0,0.84,0.54,1.0624007606920627e-14,6.270092254057634e-14,-6.8231034372824035e-15
5.590759038925171,0.19,-0.0,9.72,0.0,0.0,0.0,0.01,-0.0,0.84,0.54,1.0624007606920627e-14,6.270092254057634e-14,-6.8231034372824035e-15
5.591252565383911,0.19,-0.0,9.72,0.0,0.0,0.0,0.01,-0.0,0.84,0.54,1.0624007606920627e-14,6.270092254057634e-14,-6.8231034372824035e-15
5.59200119972229,0.19,-0.0,9.72,0.0,0.0,0.0,0.01,-0.0,0.84,0.54,1.0624007606920627e-14,6.270092254057634e-14,-6.8231034372824035e-15
5.592743396759033,0.19,-0.0,9.72,0.0,0.0,0.0,0.01,-0.0,0.84,0.54,1.0624007606920627e-14,6.270092254057634e-14,-6.8231034372824035e-15
5.593576431274414,0.19,-0.0,9.72,0.0,0.0,0.0,0.01,-0.0,0.84,0.54,1.0624007606920627e-14,6.270092254057634e-14,-6.8231034372824035e-15
5.594256639480591,0.19,-0.0,9.72,0.0,0.0,0.0,0.01,-0.0,0.84,0.54,1.0624007606920627e-14,6.270092254057634e-14,-6.8231034372824035e-15
5.59503436088562,0.19,-0.0,9.72,0.0,0.0,0.0,0.01,-0.0,0.84,0.54,1.0624007606920627e-14,6.270092254057634e-14,-6.8231034372824035e-15
5.595751047134399,0.19,-0.0,9.72,0.0,0.0,0.0,0.01,-0.0,0.84,0.54,1.0624007606920627e-14,6.270092254057634e-14,-6.8231034372824035e-15
5.59648060798645,0.19,-0.0,9.72,0.0,0.0,0.0,0.01,-0.0,0.84,0.54,1.0624007606920627e-14,6.270092254057634e-14,-6.8231034372824035e-15
5.597204923629761,0.19,-0.0,9.72,0.0,0.0,0.0,0.01,-0.0,0.84,0.54,1.0624007606920627e-14,6.270092254057634e-14,-6.8231034372824035e-15
5.597982883453369,0.19,-0.0,9.72,0.0,0.0,0.0,0.01,-0.0,0.84,0.54,1.0624007606920627e-14,6.270092254057634e-14,-6.8231034372824035e-15
5.598665714263916,0.27,0.04,9.76,0.0,0.0,0.0,0.01,-0.0,0.84,0.54,1.0624007606920627e-14,6.270092254057634e-14,-6.8231034372824035e-15
5.599367380142212,0.27,0.04,9.76,0.0,0.0,0.0,0.01,-0.0,0.84,0.54,1.0624007606920627e-14,6.270092254057634e-14,-6.8231034372824035e-15
5.600077867507935,0.27,0.04,9.76,0.0,0.0,0.0,0.01,-0.0,0.84,0.54,1.0624007606920627e-14,6.270092254057634e-14,-6.8231034372824035e-15
5.600799322128296,0.27,0.04,9.76,0.0,0.0,0.0,0.01,-0.0,0.84,0.54,1.0624007606920627e-14,6.270092254057634e-14,-6.8231034372824035e-15
5.601511478424072,0.27,0.04,9.76,0.0,0.0,0.0,0.01,-0.0,0.84,0.54,1.0624007606920627e-14,6.270092254057634e-14,-6.8231034372824035e-15
5.602216005325317,0.27,0.04,9.76,0.0,0.0,0.0,0.01,-0.0,0.84,0.54,1.0624007606920627e-14,6.270092254057634e-14,-6.8231034372824035e-15
5.6028735637664795,0.27,0.04,9.76,0.0,0.0,0.0,0.01,-0.0,0.84,0.54,1.0624007606920627e-14,6.270092254057634e-14,-6.8231034372824035e-15
5.603591442108154,0.27,0.04,9.76,0.0,0.0,0.0,0.01,-0.0,0.84,0.54,1.0624007606920627e-14,6.270092254057634e-14,-6.8231034372824035e-15
5.604338645935059,0.27,0.04,9.76,0.0,0.0,0.0,0.01,-0.0,0.84,0.54,1.0624007606920627e-14,6.270092254057634e-14,-6.8231034372824035e-15
5.6050848960876465,0.27,0.04,9.76,0.0,0.0,0.0,0.01,-0.0,0.84,0.54,1.0624007606920627e-14,6.270092254057634e-14,-6.8231034372824035e-15
5.605759859085083,0.27,-0.08,9.88,0.0,0.0,0.0,0.01,-0.0,0.84,0.54,1.0624007606920627e-14,6.270092254057634e-14,-6.8231034372824035e-15
5.606414794921875,0.27,-0.08,9.88,0.0,0.0,0.0,0.01,-0.0,0.84,0.54,1.0624007606920627e-14,6.270092254057634e-14,-6.8231034372824035e-15
5.60709547996521,0.27,-0.08,9.88,0.0,0.0,0.0,0.01,-0.0,0.84,0.54,1.0624007606920627e-14,6.270092254057634e-14,-6.8231034372824035e-15
5.6865622997283936,0.27,-0.08,9.88,0.0,0.0,0.0,0.01,-0.0,0.84,0.54,1.0624007606920627e-14,6.270092254057634e-14,-6.8231034372824035e-15
5.687838315963745,0.27,-0.08,9.88,0.0,0.0,0.0,0.01,-0.0,0.84,0.54,1.0624007606920627e-14,6.270092254057634e-14,-6.8231034372824035e-15
5.688463926315308,0.27,-0.08,9.88,0.0,0.0,0.0,0.01,-0.0,0.84,0.54,1.0624007606920627e-14,6.270092254057634e-14,-6.8231034372824035e-15
5.6889402866363525,0.27,-0.08,9.88,0.0,0.0,0.0,0.01,-0.0,0.84,0.54,1.0624007606920627e-14,6.270092254057634e-14,-6.8231034372824035e-15
5.6894145011901855,0.27,-0.08,9.88,0.0,0.0,0.0,0.01,-0.0,0.84,0.54,1.0624007606920627e-14,6.270092254057634e-14,-6.8231034372824035e-15
5.689939975738525,0.27,-0.08,9.88,0.0,0.0,0.0,0.01,-0.0,0.84,0.54,1.0624007606920627e-14,6.270092254057634e-14,-6.8231034372824035e-15
5.690458059310913,0.27,-0.08,9.88,0.0,0.0,0.0,0.01,-0.0,0.84,0.54,1.0624007606920627e-14,6.270092254057634e-14,-6.8231034372824035e-15
5.690969467163086,0.23,0.04,9.84,0.0,0.0,0.0,0.01,-0.0,0.84,0.54,1.0624007606920627e-14,6.270092254057634e-14,-6.8231034372824035e-15
5.691492795944214,0.23,0.04,9.84,0.0,0.0,0.0,0.01,-0.0,0.84,0.54,1.0624007606920627e-14,6.270092254057634e-14,-6.8231034372824035e-15
5.691959857940674,0.23,0.04,9.84,0.0,0.0,0.0,0.01,-0.0,0.84,0.54,1.0624007606920627e-14,6.270092254057634e-14,-6.8231034372824035e-15
5.692474842071533,0.23,0.04,9.84,0.0,0.0,0.0,0.01,-0.0,0.84,0.54,1.0624007606920627e-14,6.270092254057634e-14,-6.8231034372824035e-15
5.692982196807861,0.23,0.04,9.84,0.0,0.0,0.0,0.01,-0.0,0.84,0.54,1.0624007606920627e-14,6.270092254057634e-14,-6.8231034372824035e-15
5.693486452102661,0.23,0.04,9.84,0.0,0.0,0.0,0.01,-0.0,0.84,0.54,1.0624007606920627e-14,6.270092254057634e-14,-6.8231034372824035e-15
5.6939897537231445,0.23,0.04,9.84,0.0,0.0,0.0,0.01,-0.0,0.84,0.54,1.0624007606920627e-14,6.270092254057634e-14,-6.8231034372824035e-15
5.694472312927246,0.23,0.04,9.84,0.0,0.0,0.0,0.01,-0.0,0.84,0.54,1.0624007606920627e-14,6.270092254057634e-14,-6.8231034372824035e-15
5.694972515106201,0.23,0.04,9.84,0.0,0.0,0.0,0.01,-0.0,0.84,0.54,1.0624007606920627e-14,6.270092254057634e-14,-6.8231034372824035e-15
5.695536851882935,0.23,0.04,9.84,0.0,0.0,0.0,0.01,-0.0,0.84,0.54,1.0624007606920627e-14,6.270092254057634e-14,-6.8231034372824035e-15
5.696016550064087,0.19,0.04,9.84,0.0,0.0,0.0,0.01,-0.0,0.84,0.54,1.0624007606920627e-14,6.270092254057634e-14,-6.8231034372824035e-15
5.696471214294434,0.19,0.04,9.84,0.0,0.0,0.0,0.01,-0.0,0.84,0.54,1.0624007606920627e-14,6.270092254057634e-14,-6.8231034372824035e-15
5.696951866149902,0.19,0.04,9.84,0.0,0.0,0.0,0.01,-0.0,0.84,0.54,1.0624007606920627e-14,6.270092254057634e-14,-6.8231034372824035e-15
5.784266948699951,0.19,0.04,9.84,0.0,0.0,0.0,0.01,-0.0,0.84,0.54,1.0624007606920627e-14,6.270092254057634e-14,-6.8231034372824035e-15
5.785758972167969,0.19,0.04,9.84,0.0,0.0,0.0,0.01,-0.0,0.84,0.54,1.0624007606920627e-14,6.270092254057634e-14,-6.8231034372824035e-15
5.7865989208221436,0.19,0.04,9.84,0.0,0.0,0.0,0.01,-0.0,0.84,0.54,1.0624007606920627e-14,6.270092254057634e-14,-6.8231034372824035e-15
5.787910461425781,0.19,0.04,9.84,0.0,0.0,0.0,0.01,-0.0,0.84,0.54,1.0624007606920627e-14,6.270092254057634e-14,-6.8231034372824035e-15
5.7892372608184814,0.19,0.04,9.84,0.0,0.0,0.0,0.01,-0.0,0.84,0.54,1.0624007606920627e-14,6.270092254057634e-14,-6.8231034372824035e-15
5.789993047714233,0.23,0.07,9.8,0.0,0.0,0.0,0.01,-0.0,0.84,0.54,1.0624007606920627e-14,6.270092254057634e-14,-6.8231034372824035e-15
5.790738582611084,0.23,0.07,9.8,0.0,0.0,0.0,0.01,-0.0,0.84,0.54,1.0624007606920627e-14,6.270092254057634e-14,-6.8231034372824035e-15
5.791516542434692,0.23,0.07,9.8,0.0,0.0,0.0,0.01,-0.0,0.84,0.54,1.0624007606920627e-14,6.270092254057634e-14,-6.8231034372824035e-15
5.792522668838501,0.23,0.07,9.8,0.0,0.0,0.0,0.01,-0.0,0.84,0.54,1.0624007606920627e-14,6.270092254057634e-14,-6.8231034372824035e-15
5.793355464935303,0.23,0.07,9.8,0.0,0.0,0.0,0.01,-0.0,0.84,0.54,1.0624007606920627e-14,6.270092254057634e-14,-6.8231034372824035e-15
5.79415488243103,0.23,0.07,9.8,0.0,0.0,0.0,0.01,-0.0,0.84,0.54,1.0624007606920627e-14,6.270092254057634e-14,-6.8231034372824035e-15
5.794872522354126,0.23,0.07,9.8,0.0,0.0,0.0,0.01,-0.0,0.84,0.54,1.0624007606920627e-14,6.270092254057634e-14,-6.8231034372824035e-15
5.795575141906738,0.23,0.07,9.8,0.0,0.0,0.0,0.01,-0.0,0.84,0.54,1.0624007606920627e-14,6.270092254057634e-14,-6.8231034372824035e-15
5.796287298202515,0.23,0.07,9.8,0.0,0.0,0.0,0.01,-0.0,0.84,0.54,1.0624007606920627e-14,6.270092254057634e-14,-6.8231034372824035e-15
5.79701828956604,0.23,0.07,9.8,0.0,0.0,0.0,0.01,-0.0,0.84,0.54,1.0624007606920627e-14,6.270092254057634e-14,-6.8231034372824035e-15
5.7976975440979,0.23,0.07,9.8,0.0,0.0,0.0,0.01,-0.0,0.84,0.54,1.0624007606920627e-14,6.270092254057634e-14,-6.8231034372824035e-15
5.798393487930298,0.23,0.07,9.8,0.0,0.0,0.0,0.01,-0.0,0.84,0.54,1.0624007606920627e-14,6.270092254057634e-14,-6.8231034372824035e-15
5.79905891418457,0.23,0.07,9.8,0.0,0.0,0.0,0.01,-0.0,0.84,0.54,1.0624007606920627e-14,6.270092254057634e-14,-6.8231034372824035e-15
5.7998106479644775,0.23,0.07,9.8,0.0,0.0,0.0,0.01,-0.0,0.84,0.54,1.0624007606920627e-14,6.270092254057634e-14,-6.8231034372824035e-15
5.800302028656006,0.23,0.07,9.8,0.0,0.0,0.0,0.01,-0.0,0.84,0.54,1.0624007606920627e-14,6.270092254057634e-14,-6.8231034372824035e-15
5.800825834274292,0.23,0.07,9.8,0.0,0.0,0.0,0.01,-0.0,0.84,0.54,1.0624007606920627e-14,6.270092254057634e-14,-6.8231034372824035e-15
5.801507234573364,0.23,0.11,9.76,0.0,0.0,0.0,0.01,-0.0,0.84,0.54,1.0624007606920627e-14,6.270092254057634e-14,-6.8231034372824035e-15
5.801950693130493,0.23,0.11,9.76,0.0,0.0,0.0,0.01,-0.0,0.84,0.54,1.0624007606920627e-14,6.270092254057634e-14,-6.8231034372824035e-15
5.888977527618408,0.23,0.11,9.76,0.0,0.0,0.0,0.01,-0.0,0.84,0.54,1.0624007606920627e-14,6.270092254057634e-14,-6.8231034372824035e-15
5.889751195907593,0.23,0.11,9.76,0.0,0.0,0.0,0.01,-0.0,0.84,0.54,1.0624007606920627e-14,6.270092254057634e-14,-6.8231034372824035e-15
5.890375137329102,0.23,0.11,9.76,0.0,0.0,0.0,0.01,-0.0,0.84,0.54,1.0624007606920627e-14,6.270092254057634e-14,-6.8231034372824035e-15
5.89087176322937,0.23,0.11,9.76,0.0,0.0,0.0,0.01,-0.0,0.84,0.54,1.0624007606920627e-14,6.270092254057634e-14,-6.8231034372824035e-15
5.891452789306641,0.23,0.11,9.76,0.0,0.0,0.0,0.01,-0.0,0.84,0.54,1.0624007606920627e-14,6.270092254057634e-14,-6.8231034372824035e-15
5.892091751098633,0.23,0.11,9.76,0.0,0.0,0.0,0.01,-0.0,0.84,0.54,1.0624007606920627e-14,6.270092254057634e-14,-6.8231034372824035e-15
5.892595291137695,0.23,0.04,9.84,0.0,0.0,0.0,0.01,-0.0,0.84,0.54,1.0624007606920627e-14,6.270092254057634e-14,-6.8231034372824035e-15
5.893109321594238,0.23,0.04,9.84,0.0,0.0,0.0,0.01,-0.0,0.84,0.54,1.0624007606920627e-14,6.270092254057634e-14,-6.8231034372824035e-15
5.8935582637786865,0.23,0.04,9.84,0.0,0.0,0.0,0.01,-0.0,0.84,0.54,1.0624007606920627e-14,6.270092254057634e-14,-6.8231034372824035e-15
5.894234895706177,0.23,0.04,9.84,0.0,0.0,0.0,0.01,-0.0,0.84,0.54,1.0624007606920627e-14,6.270092254057634e-14,-6.8231034372824035e-15
5.894693851470947,0.23,0.04,9.84,0.0,0.0,0.0,0.01,-0.0,0.84,0.54,1.0624007606920627e-14,6.270092254057634e-14,-6.8231034372824035e-15
5.895214080810547,0.23,0.04,9.84,0.0,0.0,0.0,0.01,-0.0,0.84,0.54,1.0624007606920627e-14,6.270092254057634e-14,-6.8231034372824035e-15
5.895663261413574,0.23,0.04,9.84,0.0,0.0,0.0,0.01,-0.0,0.84,0.54,1.0624007606920627e-14,6.270092254057634e-14,-6.8231034372824035e-15
5.896124362945557,0.23,0.04,9.84,0.0,0.0,0.0,0.01,-0.0,0.84,0.54,1.0624007606920627e-14,6.270092254057634e-14,-6.8231034372824035e-15
5.896639823913574,0.23,0.04,9.84,0.0,0.0,0.0,0.01,-0.0,0.84,0.54,1.0624007606920627e-14,6.270092254057634e-14,-6.8231034372824035e-15
5.8971357345581055,0.23,0.04,9.84,0.0,0.0,0.0,0.01,-0.0,0.84,0.54,1.0624007606920627e-14,6.270092254057634e-14,-6.8231034372824035e-15
5.897694110870361,0.23,0.04,9.84,0.0,0.0,0.0,0.01,-0.0,0.84,0.54,1.0624007606920627e-14,6.270092254057634e-14,-6.8231034372824035e-15
5.898457050323486,0.23,0.04,9.84,0.0,0.0,0.0,0.01,-0.0,0.84,0.54,1.0624007606920627e-14,6.270092254057634e-14,-6.8231034372824035e-15
5.899604558944702,0.23,0.04,9.84,0.0,0.0,0.0,0.01,-0.0,0.84,0.54,1.0624007606920627e-14,6.270092254057634e-14,-6.8231034372824035e-15
5.900102376937866,0.23,0.04,9.84,0.0,0.0,0.0,0.01,-0.0,0.84,0.54,1.0624007606920627e-14,6.270092254057634e-14,-6.8231034372824035e-15
5.900511980056763,0.23,0.04,9.84,0.0,0.0,0.0,0.01,-0.0,0.84,0.54,1.0624007606920627e-14,6.270092254057634e-14,-6.8231034372824035e-15
5.901203393936157,0.23,0.04,9.84,0.0,0.0,0.0,0.01,-0.0,0.84,0.54,1.0624007606920627e-14,6.270092254057634e-14,-6.8231034372824035e-15
5.902242660522461,0.27,0.07,9.8,0.0,0.0,0.0,0.01,-0.0,0.84,0.54,1.0624007606920627e-14,6.270092254057634e-14,-6.8231034372824035e-15
5.903075933456421,0.27,0.07,9.8,0.0,0.0,0.0,0.01,-0.0,0.84,0.54,1.0624007606920627e-14,6.270092254057634e-14,-6.8231034372824035e-15
5.991527080535889,0.27,0.07,9.8,0.0,0.0,0.0,0.01,-0.0,0.84,0.54,1.0624007606920627e-14,6.270092254057634e-14,-6.8231034372824035e-15
5.992316722869873,0.27,0.07,9.8,0.0,0.0,0.0,0.01,-0.0,0.84,0.54,1.0624007606920627e-14,6.270092254057634e-14,-6.8231034372824035e-15
5.992871046066284,0.27,0.07,9.8,0.0,0.0,0.0,0.01,-0.0,0.84,0.54,1.0624007606920627e-14,6.270092254057634e-14,-6.8231034372824035e-15
5.993382215499878,0.27,0.07,9.8,0.0,0.0,0.0,0.01,-0.0,0.84,0.54,1.0624007606920627e-14,6.270092254057634e-14,-6.8231034372824035e-15
5.993860960006714,0.27,0.07,9.8,0.0,0.0,0.0,0.01,-0.0,0.84,0.54,1.0624007606920627e-14,6.270092254057634e-14,-6.8231034372824035e-15
5.994302272796631,0.27,0.07,9.8,0.0,0.0,0.0,0.01,-0.0,0.84,0.54,1.0624007606920627e-14,6.270092254057634e-14,-6.8231034372824035e-15
5.99472713470459,0.27,0.07,9.8,0.0,0.0,0.0,0.01,-0.0,0.84,0.54,1.0624007606920627e-14,6.270092254057634e-14,-6.8231034372824035e-15
5.995446681976318,0.27,0.07,9.8,0.0,0.0,0.0,0.01,-0.0,0.84,0.54,1.0624007606920627e-14,6.270092254057634e-14,-6.8231034372824035e-15
5.996087312698364,0.27,0.07,9.8,0.0,0.0,0.0,0.01,-0.0,0.84,0.54,1.0624007606920627e-14,6.270092254057634e-14,-6.8231034372824035e-15
5.996697902679443,0.27,0.07,9.8,0.0,0.0,0.0,0.01,-0.0,0.84,0.54,1.0624007606920627e-14,6.270092254057634e-14,-6.8231034372824035e-15
5.9973649978637695,0.27,0.07,9.8,0.0,0.0,0.0,0.01,-0.0,0.84,0.54,1.0624007606920627e-14,6.270092254057634e-14,-6.8231034372824035e-15
5.9979870319366455,0.27,0.07,9.8,0.0,0.0,0.0,0.01,-0.0,0.84,0.54,1.0624007606920627e-14,6.270092254057634e-14,-6.8231034372824035e-15
5.9985973834991455,0.27,0.07,9.8,0.0,0.0,0.0,0.01,-0.0,0.84,0.54,1.0624007606920627e-14,6.270092254057634e-14,-6.8231034372824035e-15
5.999265193939209,0.27,0.07,9.8,0.0,0.0,0.0,0.01,-0.0,0.84,0.54,1.0624007606920627e-14,6.270092254057634e-14,-6.8231034372824035e-15
6.000180959701538,0.27,0.07,9.8,0.0,0.0,0.0,0.01,-0.0,0.84,0.54,1.0624007606920627e-14,6.270092254057634e-14,-6.8231034372824035e-15
6.000826835632324,0.27,0.07,9.8,0.0,0.0,0.0,0.01,-0.0,0.84,0.54,1.0624007606920627e-14,6.270092254057634e-14,-6.8231034372824035e-15
6.001404762268066,0.27,0.07,9.8,0.0,0.0,0.0,0.01,-0.0,0.84,0.54,1.0624007606920627e-14,6.270092254057634e-14,-6.8231034372824035e-15
6.001944303512573,0.27,0.07,9.8,0.0,0.0,0.0,0.01,-0.0,0.84,0.54,1.0624007606920627e-14,6.270092254057634e-14,-6.8231034372824035e-15
6.0024213790893555,0.27,0.07,9.8,0.0,0.0,0.0,0.01,-0.0,0.84,0.54,1.0624007606920627e-14,6.270092254057634e-14,-6.8231034372824035e-15
6.002934217453003,0.27,0.07,9.8,0.0,0.0,0.0,0.01,-0.0,0.84,0.54,1.0624007606920627e-14,6.270092254057634e-14,-6.8231034372824035e-15
6.082087993621826,0.19,0.04,9.8,0.0,0.0,0.0,0.01,-0.0,0.84,0.54,1.0624007606920627e-14,6.270092254057634e-14,-6.8231034372824035e-15
6.082913637161255,0.19,0.04,9.8,0.0,0.0,0.0,0.01,-0.0,0.84,0.54,1.0624007606920627e-14,6.270092254057634e-14,-6.8231034372824035e-15
6.083471775054932,0.19,0.04,9.8,0.0,0.0,0.0,0.01,-0.0,0.84,0.54,1.0624007606920627e-14,6.270092254057634e-14,-6.8231034372824035e-15
6.084008455276489,0.19,0.04,9.8,0.0,0.0,0.0,0.01,-0.0,0.84,0.54,1.0624007606920627e-14,6.270092254057634e-14,-6.8231034372824035e-15
6.084495544433594,0.19,0.04,9.8,0.0,0.0,0.0,0.01,-0.0,0.84,0.54,1.0624007606920627e-14,6.270092254057634e-14,-6.8231034372824035e-15
6.084996938705444,0.19,0.04,9.8,0.0,0.0,0.0,0.01,-0.0,0.84,0.54,1.0624007606920627e-14,6.270092254057634e-14,-6.8231034372824035e-15
6.085524320602417,0.19,0.04,9.8,0.0,0.0,0.0,0.01,-0.0,0.84,0.54,1.0624007606920627e-14,6.270092254057634e-14,-6.8231034372824035e-15
6.086029529571533,0.19,0.04,9.8,0.0,0.0,0.0,0.01,-0.0,0.84,0.54,1.0624007606920627e-14,6.270092254057634e-14,-6.8231034372824035e-15
6.086555004119873,0.19,0.07,9.76,0.0,0.0,0.0,0.01,-0.0,0.84,0.54,1.0624007606920627e-14,6.270092254057634e-14,-6.8231034372824035e-15
6.087049961090088,0.19,0.07,9.76,0.0,0.0,0.0,0.01,-0.0,0.84,0.54,1.0624007606920627e-14,6.270092254057634e-14,-6.8231034372824035e-15
6.08754825592041,0.19,0.07,9.76,0.0,0.0,0.0,0.01,-0.0,0.84,0.54,1.0624007606920627e-14,6.270092254057634e-14,-6.8231034372824035e-15
6.088327407836914,0.19,0.07,9.76,0.0,0.0,0.0,0.01,-0.0,0.84,0.54,1.0624007606920627e-14,6.270092254057634e-14,-6.8231034372824035e-15
6.089051723480225,0.19,0.07,9.76,0.0,0.0,0.0,0.01,-0.0,0.84,0.54,1.0624007606920627e-14,6.270092254057634e-14,-6.8231034372824035e-15
6.089718580245972,0.19,0.07,9.76,0.0,0.0,0.0,0.01,-0.0,0.84,0.54,1.0624007606920627e-14,6.270092254057634e-14,-6.8231034372824035e-15
6.090341806411743,0.19,0.07,9.76,0.0,0.0,0.0,0.01,-0.0,0.84,0.54,1.0624007606920627e-14,6.270092254057634e-14,-6.8231034372824035e-15
6.09084677696228,0.19,0.07,9.76,0.0,0.0,0.0,0.01,-0.0,0.84,0.54,1.0624007606920627e-14,6.270092254057634e-14,-6.8231034372824035e-15
6.091353416442871,0.19,0.04,9.8,0.0,0.0,0.0,0.01,-0.0,0.84,0.54,1.0624007606920627e-14,6.270092254057634e-14,-6.8231034372824035e-15
6.091931104660034,0.19,0.04,9.8,0.0,0.0,0.0,0.01,-0.0,0.84,0.54,1.0624007606920627e-14,6.270092254057634e-14,-6.8231034372824035e-15
6.0924389362335205,0.19,0.04,9.8,0.0,0.0,0.0,0.01,-0.0,0.84,0.54,1.0624007606920627e-14,6.270092254057634e-14,-6.8231034372824035e-15
6.0932581424713135,0.19,0.04,9.8,0.0,0.0,0.0,0.01,-0.0,0.84,0.54,1.0624007606920627e-14,6.270092254057634e-14,-6.8231034372824035e-15
6.179564476013184,0.19,0.04,9.8,0.0,0.0,0.0,0.01,-0.0,0.84,0.54,1.0624007606920627e-14,6.270092254057634e-14,-6.8231034372824035e-15
6.180480480194092,0.19,0.04,9.8,0.0,0.0,0.0,0.01,-0.0,0.84,0.54,1.0624007606920627e-14,6.270092254057634e-14,-6.8231034372824035e-15
6.181108236312866,0.23,0.04,9.76,0.0,0.0,0.0,0.01,-0.0,0.84,0.54,1.0624007606920627e-14,6.270092254057634e-14,-6.8231034372824035e-15
6.181604623794556,0.23,0.04,9.76,0.0,0.0,0.0,0.01,-0.0,0.84,0.54,1.0624007606920627e-14,6.270092254057634e-14,-6.8231034372824035e-15
6.1820807456970215,0.23,0.04,9.76,0.0,0.0,0.0,0.01,-0.0,0.84,0.54,1.0624007606920627e-14,6.270092254057634e-14,-6.8231034372824035e-15
6.182639122009277,0.23,0.04,9.76,0.0,0.0,0.0,0.01,-0.0,0.84,0.54,1.0624007606920627e-14,6.270092254057634e-14,-6.8231034372824035e-15
6.183116436004639,0.23,0.04,9.76,0.0,0.0,0.0,0.01,-0.0,0.84,0.54,1.0624007606920627e-14,6.270092254057634e-14,-6.8231034372824035e-15
6.183683633804321,0.23,0.04,9.76,0.0,0.0,0.0,0.01,-0.0,0.84,0.54,1.0624007606920627e-14,6.270092254057634e-14,-6.8231034372824035e-15
6.184210538864136,0.23,0.04,9.76,0.0,0.0,0.0,0.01,-0.0,0.84,0.54,1.0624007606920627e-14,6.270092254057634e-14,-6.8231034372824035e-15
6.184733152389526,0.23,0.04,9.76,0.0,0.0,0.0,0.01,-0.0,0.84,0.54,1.0624007606920627e-14,6.270092254057634e-14,-6.8231034372824035e-15
6.185238361358643,0.23,0.04,9.76,0.0,0.0,0.0,0.01,-0.0,0.84,0.54,1.0624007606920627e-14,6.270092254057634e-14,-6.8231034372824035e-15
6.185774564743042,0.23,0.04,9.76,0.0,0.0,0.0,0.01,-0.0,0.84,0.54,1.0624007606920627e-14,6.270092254057634e-14,-6.8231034372824035e-15
6.1862499713897705,0.19,0.04,9.76,0.0,0.0,0.0,0.01,-0.0,0.84,0.54,1.0624007606920627e-14,6.270092254057634e-14,-6.8231034372824035e-15
6.186807632446289,0.19,0.04,9.76,0.0,0.0,0.0,0.01,-0.0,0.84,0.54,1.0624007606920627e-14,6.270092254057634e-14,-6.8231034372824035e-15
6.18748927116394,0.19,0.04,9.76,0.0,0.0,0.0,0.01,-0.0,0.84,0.54,1.0624007606920627e-14,6.270092254057634e-14,-6.8231034372824035e-15
6.188004970550537,0.19,0.04,9.76,0.0,0.0,0.0,0.01,-0.0,0.84,0.54,1.0624007606920627e-14,6.270092254057634e-14,-6.8231034372824035e-15
6.188526630401611,0.19,0.04,9.76,0.0,0.0,0.0,0.01,-0.0,0.84,0.54,1.0624007606920627e-14,6.270092254057634e-14,-6.8231034372824035e-15
6.189074993133545,0.19,0.04,9.76,0.0,0.0,0.0,0.01,-0.0,0.84,0.54,1.0624007606920627e-14,6.270092254057634e-14,-6.8231034372824035e-15
6.1895318031311035,0.23,0.04,9.8,0.0,0.0,0.0,0.01,-0.0,0.84,0.54,1.0624007606920627e-14,6.270092254057634e-14,-6.8231034372824035e-15
6.190000295639038,0.23,0.04,9.8,0.0,0.0,0.0,0.01,-0.0,0.84,0.54,1.0624007606920627e-14,6.270092254057634e-14,-6.8231034372824035e-15
6.190464735031128,0.23,0.04,9.8,0.0,0.0,0.0,0.01,-0.0,0.84,0.54,1.0624007606920627e-14,6.270092254057634e-14,-6.8231034372824035e-15
6.267838716506958,0.23,0.04,9.8,0.0,0.0,0.0,0.01,-0.0,0.84,0.54,1.0624007606920627e-14,6.270092254057634e-14,-6.8231034372824035e-15
6.268935918807983,0.23,0.04,9.8,0.0,0.0,0.0,0.01,-0.0,0.84,0.54,1.0624007606920627e-14,6.270092254057634e-14,-6.8231034372824035e-15
6.269686937332153,0.23,0.04,9.8,0.0,0.0,0.0,0.01,-0.0,0.84,0.54,1.0624007606920627e-14,6.270092254057634e-14,-6.8231034372824035e-15
6.270300626754761,0.23,0.04,9.8,0.0,0.0,0.0,0.01,-0.0,0.84,0.54,1.0624007606920627e-14,6.270092254057634e-14,-6.8231034372824035e-15
6.270897388458252,0.23,0.04,9.8,0.0,0.0,0.0,0.01,-0.0,0.84,0.54,1.0624007606920627e-14,6.270092254057634e-14,-6.8231034372824035e-15
6.271807432174683,0.23,0.04,9.8,0.0,0.0,0.0,0.01,-0.0,0.84,0.54,1.0624007606920627e-14,6.270092254057634e-14,-6.8231034372824035e-15
6.273325681686401,0.23,0.04,9.8,0.0,0.0,0.0,0.01,-0.0,0.84,0.54,1.0624007606920627e-14,6.270092254057634e-14,-6.8231034372824035e-15
6.273990631103516,0.23,0.04,9.8,0.0,0.0,0.0,0.01,-0.0,0.84,0.54,1.0624007606920627e-14,6.270092254057634e-14,-6.8231034372824035e-15
6.274475574493408,0.23,0.04,9.8,0.0,0.0,0.0,0.01,-0.0,0.84,0.54,1.0624007606920627e-14,6.270092254057634e-14,-6.8231034372824035e-15
6.2749552726745605,0.23,0.04,9.76,0.0,0.0,0.0,0.01,-0.0,0.84,0.54,1.0624007606920627e-14,6.270092254057634e-14,-6.8231034372824035e-15
6.275432586669922,0.23,0.04,9.76,0.0,0.0,0.0,0.01,-0.0,0.84,0.54,1.0624007606920627e-14,6.270092254057634e-14,-6.8231034372824035e-15
6.276036024093628,0.23,0.04,9.76,0.0,0.0,0.0,0.01,-0.0,0.84,0.54,1.0624007606920627e-14,6.270092254057634e-14,-6.8231034372824035e-15
6.2766828536987305,0.23,0.04,9.76,0.0,0.0,0.0,0.01,-0.0,0.84,0.54,1.0624007606920627e-14,6.270092254057634e-14,-6.8231034372824035e-15
6.277331829071045,0.23,0.04,9.76,0.0,0.0,0.0,0.01,-0.0,0.84,0.54,1.0624007606920627e-14,6.270092254057634e-14,-6.8231034372824035e-15
6.277986288070679,0.23,0.04,9.76,0.0,0.0,0.0,0.01,-0.0,0.84,0.54,1.0624007606920627e-14,6.270092254057634e-14,-6.8231034372824035e-15
6.278600454330444,0.23,0.04,9.76,0.0,0.0,0.0,0.01,-0.0,0.84,0.54,1.0624007606920627e-14,6.270092254057634e-14,-6.8231034372824035e-15
6.279083728790283,0.23,0.04,9.76,0.0,0.0,0.0,0.01,-0.0,0.84,0.54,1.0624007606920627e-14,6.270092254057634e-14,-6.8231034372824035e-15
6.279639005661011,0.23,0.04,9.76,0.0,0.0,0.0,0.01,-0.0,0.84,0.54,1.0624007606920627e-14,6.270092254057634e-14,-6.8231034372824035e-15
6.280127048492432,0.23,0.04,9.76,0.0,0.0,0.0,0.01,-0.0,0.84,0.54,1.0624007606920627e-14,6.270092254057634e-14,-6.8231034372824035e-15
6.365861892700195,0.23,0.04,9.84,0.0,0.0,0.0,0.01,-0.0,0.84,0.54,1.0624007606920627e-14,6.270092254057634e-14,-6.8231034372824035e-15
6.366929769515991,0.23,0.04,9.84,0.0,0.0,0.0,0.01,-0.0,0.84,0.54,1.0624007606920627e-14,6.270092254057634e-14,-6.8231034372824035e-15
6.367652654647827,0.23,0.04,9.84,0.0,0.0,0.0,0.01,-0.0,0.84,0.54,1.0624007606920627e-14,6.270092254057634e-14,-6.8231034372824035e-15
6.368312358856201,0.23,0.04,9.84,0.0,0.0,0.0,0.01,-0.0,0.84,0.54,1.0624007606920627e-14,6.270092254057634e-14,-6.8231034372824035e-15
6.368893623352051,0.23,0.04,9.84,0.0,0.0,0.0,0.01,-0.0,0.84,0.54,1.0624007606920627e-14,6.270092254057634e-14,-6.8231034372824035e-15
6.36945652961731,0.23,0.04,9.84,0.0,0.0,0.0,0.01,-0.0,0.84,0.54,1.0624007606920627e-14,6.270092254057634e-14,-6.8231034372824035e-15
6.369988203048706,0.23,-0.0,9.84,0.0,0.0,0.0,0.01,-0.0,0.84,0.54,1.0624007606920627e-14,6.270092254057634e-14,-6.8231034372824035e-15
6.3705079555511475,0.23,-0.0,9.84,0.0,0.0,0.0,0.01,-0.0,0.84,0.54,1.0624007606920627e-14,6.270092254057634e-14,-6.8231034372824035e-15
6.371018886566162,0.23,-0.0,9.84,0.0,0.0,0.0,0.01,-0.0,0.84,0.54,1.0624007606920627e-14,6.270092254057634e-14,-6.8231034372824035e-15
6.371542453765869,0.23,-0.0,9.84,0.0,0.0,0.0,0.01,-0.0,0.84,0.54,1.0624007606920627e-14,6.270092254057634e-14,-6.8231034372824035e-15
6.372026205062866,0.23,-0.0,9.84,0.0,0.0,0.0,0.01,-0.0,0.84,0.54,1.0624007606920627e-14,6.270092254057634e-14,-6.8231034372824035e-15
6.372504234313965,0.23,-0.0,9.84,0.0,0.0,0.0,0.01,-0.0,0.84,0.54,1.0624007606920627e-14,6.270092254057634e-14,-6.8231034372824035e-15
6.3730292320251465,0.23,-0.0,9.84,0.0,0.0,0.0,0.01,-0.0,0.84,0.54,1.0624007606920627e-14,6.270092254057634e-14,-6.8231034372824035e-15
6.373612642288208,0.23,-0.0,9.84,0.0,0.0,0.0,0.01,-0.0,0.84,0.54,1.0624007606920627e-14,6.270092254057634e-14,-6.8231034372824035e-15
6.37426233291626,0.23,-0.0,9.8,0.0,0.0,0.0,0.01,-0.0,0.84,0.54,1.0624007606920627e-14,6.270092254057634e-14,-6.8231034372824035e-15
6.374945640563965,0.23,-0.0,9.8,0.0,0.0,0.0,0.01,-0.0,0.84,0.54,1.0624007606920627e-14,6.270092254057634e-14,-6.8231034372824035e-15
6.375476837158203,0.23,-0.0,9.8,0.0,0.0,0.0,0.01,-0.0,0.84,0.54,1.0624007606920627e-14,6.270092254057634e-14,-6.8231034372824035e-15
6.376034259796143,0.23,-0.0,9.8,0.0,0.0,0.0,0.01,-0.0,0.84,0.54,1.0624007606920627e-14,6.270092254057634e-14,-6.8231034372824035e-15
6.376487493515015,0.23,-0.0,9.8,0.0,0.0,0.0,0.01,-0.0,0.84,0.54,1.0624007606920627e-14,6.270092254057634e-14,-6.8231034372824035e-15
6.376967668533325,0.23,-0.0,9.8,0.0,0.0,0.0,0.01,-0.0,0.84,0.54,1.0624007606920627e-14,6.270092254057634e-14,-6.8231034372824035e-15
6.377416133880615,0.23,-0.0,9.8,0.0,0.0,0.0,0.01,-0.0,0.84,0.54,1.0624007606920627e-14,6.270092254057634e-14,-6.8231034372824035e-15
6.457176923751831,0.23,-0.0,9.8,0.0,0.0,0.0,0.01,-0.0,0.84,0.54,1.0624007606920627e-14,6.270092254057634e-14,-6.8231034372824035e-15
6.457915306091309,0.23,-0.0,9.8,0.0,0.0,0.0,0.01,-0.0,0.84,0.54,1.0624007606920627e-14,6.270092254057634e-14,-6.8231034372824035e-15
6.458625078201294,0.23,-0.0,9.8,0.0,0.0,0.0,0.01,-0.0,0.84,0.54,1.0624007606920627e-14,6.270092254057634e-14,-6.8231034372824035e-15
6.4591710567474365,0.23,-0.0,9.8,0.0,0.0,0.0,0.01,-0.0,0.84,0.54,1.0624007606920627e-14,6.270092254057634e-14,-6.8231034372824035e-15
6.459933042526245,0.23,-0.0,9.8,0.0,0.0,0.0,0.01,-0.0,0.84,0.54,1.0624007606920627e-14,6.270092254057634e-14,-6.8231034372824035e-15
6.460750341415405,0.23,-0.0,9.8,0.0,0.0,0.0,0.01,-0.0,0.84,0.54,1.0624007606920627e-14,6.270092254057634e-14,-6.8231034372824035e-15
6.461465358734131,0.23,-0.0,9.8,0.0,0.0,0.0,0.01,-0.0,0.84,0.54,1.0624007606920627e-14,6.270092254057634e-14,-6.8231034372824035e-15
6.462002754211426,0.23,-0.0,9.8,0.0,0.0,0.0,0.01,-0.0,0.84,0.54,1.0624007606920627e-14,6.270092254057634e-14,-6.8231034372824035e-15
6.462684631347656,0.23,-0.0,9.8,0.0,0.0,0.0,0.01,-0.0,0.84,0.54,1.0624007606920627e-14,6.270092254057634e-14,-6.8231034372824035e-15
6.463444471359253,0.23,-0.0,9.8,0.0,0.0,0.0,0.01,-0.0,0.84,0.54,1.0624007606920627e-14,6.270092254057634e-14,-6.8231034372824035e-15
6.464287996292114,0.23,-0.0,9.8,0.0,0.0,0.0,0.01,-0.0,0.84,0.54,1.0624007606920627e-14,6.270092254057634e-14,-6.8231034372824035e-15
6.4648895263671875,0.23,-0.0,9.84,0.0,0.0,0.0,0.01,-0.0,0.84,0.54,1.0624007606920627e-14,6.270092254057634e-14,-6.8231034372824035e-15
6.466055393218994,0.23,-0.0,9.84,0.0,0.0,0.0,0.01,-0.0,0.84,0.54,1.0624007606920627e-14,6.270092254057634e-14,-6.8231034372824035e-15
6.467121124267578,0.23,-0.0,9.84,0.0,0.0,0.0,0.01,-0.0,0.84,0.54,1.0624007606920627e-14,6.270092254057634e-14,-6.8231034372824035e-15
6.467647314071655,0.23,-0.0,9.84,0.0,0.0,0.0,0.01,-0.0,0.84,0.54,1.0624007606920627e-14,6.270092254057634e-14,-6.8231034372824035e-15
6.468180894851685,0.23,-0.0,9.84,0.0,0.0,0.0,0.01,-0.0,0.84,0.54,1.0624007606920627e-14,6.270092254057634e-14,-6.8231034372824035e-15
6.468687057495117,0.23,-0.0,9.84,0.0,0.0,0.0,0.01,-0.0,0.84,0.54,1.0624007606920627e-14,6.270092254057634e-14,-6.8231034372824035e-15
6.469171524047852,0.19,0.04,9.76,0.0,0.0,0.0,0.01,-0.0,0.84,0.54,1.0624007606920627e-14,6.270092254057634e-14,-6.8231034372824035e-15
6.550122976303101,0.19,0.04,9.76,0.0,0.0,0.0,0.01,-0.0,0.84,0.54,1.0624007606920627e-14,6.270092254057634e-14,-6.8231034372824035e-15
6.55109167098999,0.19,0.04,9.76,0.0,0.0,0.0,0.01,-0.0,0.84,0.54,1.0624007606920627e-14,6.270092254057634e-14,-6.8231034372824035e-15
6.551801443099976,0.19,0.04,9.76,0.0,0.0,0.0,0.01,-0.0,0.84,0.54,1.0624007606920627e-14,6.270092254057634e-14,-6.8231034372824035e-15
6.552691459655762,0.19,0.04,9.76,0.0,0.0,0.0,0.01,-0.0,0.84,0.54,1.0624007606920627e-14,6.270092254057634e-14,-6.8231034372824035e-15
6.553596258163452,0.19,0.04,9.76,0.0,0.0,0.0,0.01,-0.0,0.84,0.54,1.0624007606920627e-14,6.270092254057634e-14,-6.8231034372824035e-15
6.554319620132446,0.19,0.04,9.76,0.0,0.0,0.0,0.01,-0.0,0.84,0.54,1.0624007606920627e-14,6.270092254057634e-14,-6.8231034372824035e-15
6.554892301559448,0.19,0.04,9.76,0.0,0.0,0.0,0.01,-0.0,0.84,0.54,1.0624007606920627e-14,6.270092254057634e-14,-6.8231034372824035e-15
