Timestamp,AccelX,AccelY,AccelZ,GyroX,GyroY,GyroZ,QuatW,QuatX,QuatY,QuatZ,Tilt,Obliquity,Rotation
2.264272689819336,0.15,0.04,9.76,0.0,0.0,0.0,0.01,-0.0,0.79,0.61,-8.776144659020706e-15,-2.5322821523884808e-14,1.1796510206486741e-14
2.264685869216919,0.15,0.04,9.8,0.0,0.0,0.0,0.01,-0.0,0.79,0.61,-8.776144659020706e-15,-2.5322821523884808e-14,1.1796510206486741e-14
2.2649550437927246,0.15,0.04,9.8,0.0,0.0,0.0,0.01,-0.0,0.79,0.61,-8.776144659020706e-15,-2.5322821523884808e-14,1.1796510206486741e-14
2.2653567790985107,0.15,0.04,9.8,0.0,0.0,0.0,0.01,-0.0,0.79,0.61,-8.776144659020706e-15,-2.5322821523884808e-14,1.1796510206486741e-14
2.265543222427368,0.15,0.04,9.8,0.0,0.0,0.0,0.01,-0.0,0.79,0.61,-8.776144659020706e-15,-2.5322821523884808e-14,1.1796510206486741e-14
2.3311996459960938,0.15,0.04,9.8,0.0,0.0,0.0,0.01,-0.0,0.79,0.61,-8.776144659020706e-15,-2.5322821523884808e-14,1.1796510206486741e-14
2.3316311836242676,0.15,0.04,9.8,0.0,0.0,0.0,0.01,-0.0,0.79,0.61,-8.776144659020706e-15,-2.5322821523884808e-14,1.1796510206486741e-14
2.3319766521453857,0.15,0.04,9.8,0.0,0.0,0.0,0.01,-0.0,0.79,0.61,-8.776144659020706e-15,-2.5322821523884808e-14,1.1796510206486741e-14
2.3321454524993896,0.15,0.04,9.8,0.0,0.0,0.0,0.01,-0.0,0.79,0.61,-8.776144659020706e-15,-2.5322821523884808e-14,1.1796510206486741e-14
2.405679225921631,0.15,0.04,9.88,0.0,0.0,0.0,0.01,-0.0,0.79,0.61,-8.776144659020706e-15,-2.5322821523884808e-14,1.1796510206486741e-14
2.4059948921203613,0.15,0.04,9.88,0.0,0.0,0.0,0.01,-0.0,0.79,0.61,-8.776144659020706e-15,-2.5322821523884808e-14,1.1796510206486741e-14
2.4063127040863037,0.15,0.04,9.88,0.0,0.0,0.0,0.01,-0.0,0.79,0.61,-8.776144659020706e-15,-2.5322821523884808e-14,1.1796510206486741e-14
2.4065194129943848,0.15,0.04,9.88,0.0,0.0,0.0,0.01,-0.0,0.79,0.61,-8.776144659020706e-15,-2.5322821523884808e-14,1.1796510206486741e-14
2.406712293624878,0.15,0.04,9.88,0.0,0.0,0.0,0.01,-0.0,0.79,0.61,-8.776144659020706e-15,-2.5322821523884808e-14,1.1796510206486741e-14
2.4068996906280518,0.15,0.04,9.88,0.0,0.0,0.0,0.01,-0.0,0.79,0.61,-8.776144659020706e-15,-2.5322821523884808e-14,1.1796510206486741e-14
2.4070961475372314,0.15,0.04,9.88,0.0,0.0,0.0,0.01,-0.0,0.79,0.61,-8.776144659020706e-15,-2.5322821523884808e-14,1.1796510206486741e-14
2.4072673320770264,0.15,0.04,9.88,0.0,0.0,0.0,0.01,-0.0,0.79,0.61,-8.776144659020706e-15,-2.5322821523884808e-14,1.1796510206486741e-14
2.4074339866638184,0.11,-0.0,9.84,0.0,0.0,0.0,0.01,-0.0,0.79,0.61,-8.776144659020706e-15,-2.5322821523884808e-14,1.1796510206486741e-14
2.407621383666992,0.11,-0.0,9.84,0.0,0.0,0.0,0.01,-0.0,0.79,0.61,-8.776144659020706e-15,-2.5322821523884808e-14,1.1796510206486741e-14
2.4077911376953125,0.11,-0.0,9.84,0.0,0.0,0.0,0.01,-0.0,0.79,0.61,-8.776144659020706e-15,-2.5322821523884808e-14,1.1796510206486741e-14
2.408055305480957,0.11,-0.0,9.84,0.0,0.0,0.0,0.01,-0.0,0.79,0.61,-8.776144659020706e-15,-2.5322821523884808e-14,1.1796510206486741e-14
2.408266544342041,0.11,-0.0,9.84,0.0,0.0,0.0,0.01,-0.0,0.79,0.61,-8.776144659020706e-15,-2.5322821523884808e-14,1.1796510206486741e-14
2.4084725379943848,0.11,-0.0,9.84,0.0,0.0,0.0,0.01,-0.0,0.79,0.61,-8.776144659020706e-15,-2.5322821523884808e-14,1.1796510206486741e-14
2.4086527824401855,0.11,-0.0,9.84,0.0,0.0,0.0,0.01,-0.0,0.79,0.61,-8.776144659020706e-15,-2.5322821523884808e-14,1.1796510206486741e-14
2.4087934494018555,0.11,-0.0,9.84,0.0,0.0,0.0,0.01,-0.0,0.79,0.61,-8.776144659020706e-15,-2.5322821523884808e-14,1.1796510206486741e-14
2.408928871154785,0.11,-0.04,9.76,0.0,0.0,0.0,0.01,-0.0,0.79,0.61,-8.776144659020706e-15,-2.5322821523884808e-14,1.1796510206486741e-14
2.4090635776519775,0.11,-0.04,9.76,0.0,0.0,0.0,0.01,-0.0,0.79,0.61,-8.776144659020706e-15,-2.5322821523884808e-14,1.1796510206486741e-14
2.4091897010803223,0.11,-0.04,9.76,0.0,0.0,0.0,0.01,-0.0,0.79,0.61,-8.776144659020706e-15,-2.5322821523884808e-14,1.1796510206486741e-14
2.409313678741455,0.11,-0.04,9.76,0.0,0.0,0.0,0.01,-0.0,0.79,0.61,-8.776144659020706e-15,-2.5322821523884808e-14,1.1796510206486741e-14
2.4094462394714355,0.11,-0.04,9.76,0.0,0.0,0.0,0.01,-0.0,0.79,0.61,-8.776144659020706e-15,-2.5322821523884808e-14,1.1796510206486741e-14
2.409609079360962,0.11,-0.04,9.76,0.0,0.0,0.0,0.01,-0.0,0.79,0.61,-8.776144659020706e-15,-2.5322821523884808e-14,1.1796510206486741e-14
2.4097509384155273,0.11,-0.04,9.76,0.0,0.0,0.0,0.01,-0.0,0.79,0.61,-8.776144659020706e-15,-2.5322821523884808e-14,1.1796510206486741e-14
2.4098920822143555,0.11,-0.04,9.76,0.0,0.0,0.0,0.01,-0.0,0.79,0.61,-8.776144659020706e-15,-2.5322821523884808e-14,1.1796510206486741e-14
2.410047769546509,0.11,0.04,9.8,0.0,0.0,0.0,0.01,-0.0,0.79,0.61,-8.776144659020706e-15,-2.5322821523884808e-14,1.1796510206486741e-14
2.4102277755737305,0.11,0.04,9.8,0.0,0.0,0.0,0.01,-0.0,0.79,0.61,-8.776144659020706e-15,-2.5322821523884808e-14,1.1796510206486741e-14
2.4783992767333984,0.11,0.04,9.8,0.0,0.0,0.0,0.01,-0.0,0.79,0.61,-8.776144659020706e-15,-2.5322821523884808e-14,1.1796510206486741e-14
2.4787545204162598,0.11,0.04,9.8,0.0,0.0,0.0,0.01,-0.0,0.79,0.61,-8.776144659020706e-15,-2.5322821523884808e-14,1.1796510206486741e-14
2.6254591941833496,0.11,0.04,9.8,0.0,0.0,0.0,0.01,-0.0,0.79,0.61,-8.776144659020706e-15,-2.5322821523884808e-14,1.1796510206486741e-14
2.625882148742676,0.11,0.04,9.8,0.0,0.0,0.0,0.01,-0.0,0.79,0.61,-8.776144659020706e-15,-2.5322821523884808e-14,1.1796510206486741e-14
2.626155138015747,0.11,0.04,9.8,0.0,0.0,0.0,0.01,-0.0,0.79,0.61,-8.776144659020706e-15,-2.5322821523884808e-14,1.1796510206486741e-14
2.6264190673828125,0.11,0.04,9.8,0.0,0.0,0.0,0.01,-0.0,0.79,0.61,-8.776144659020706e-15,-2.5322821523884808e-14,1.1796510206486741e-14
2.626615285873413,0.11,0.04,9.8,0.0,0.0,0.0,0.01,-0.0,0.79,0.61,-8.776144659020706e-15,-2.5322821523884808e-14,1.1796510206486741e-14
2.6268699169158936,0.11,0.04,9.8,0.0,0.0,0.0,0.01,-0.0,0.79,0.61,-8.776144659020706e-15,-2.5322821523884808e-14,1.1796510206486741e-14
2.6270830631256104,0.11,0.04,9.8,0.0,0.0,0.0,0.01,-0.0,0.79,0.61,-8.776144659020706e-15,-2.5322821523884808e-14,1.1796510206486741e-14
2.627289295196533,0.11,0.04,9.8,0.0,0.0,0.0,0.01,-0.0,0.79,0.61,-8.776144659020706e-15,-2.5322821523884808e-14,1.1796510206486741e-14
2.627502679824829,0.11,-0.0,9.84,0.0,0.0,0.0,0.01,-0.0,0.79,0.61,-8.776144659020706e-15,-2.5322821523884808e-14,1.1796510206486741e-14
2.627702236175537,0.11,-0.0,9.84,0.0,0.0,0.0,0.01,-0.0,0.79,0.61,-8.776144659020706e-15,-2.5322821523884808e-14,1.1796510206486741e-14
2.627861499786377,0.11,-0.0,9.84,0.0,0.0,0.0,0.01,-0.0,0.79,0.61,-8.776144659020706e-15,-2.5322821523884808e-14,1.1796510206486741e-14
2.6281065940856934,0.11,-0.0,9.84,0.0,0.0,0.0,0.01,-0.0,0.79,0.61,-8.776144659020706e-15,-2.5322821523884808e-14,1.1796510206486741e-14
2.628324508666992,0.11,-0.0,9.84,0.0,0.0,0.0,0.01,-0.0,0.79,0.61,-8.776144659020706e-15,-2.5322821523884808e-14,1.1796510206486741e-14
2.6285533905029297,0.11,-0.0,9.84,0.0,0.0,0.0,0.01,-0.0,0.79,0.61,-8.776144659020706e-15,-2.5322821523884808e-14,1.1796510206486741e-14
2.6287553310394287,0.11,-0.0,9.84,0.0,0.0,0.0,0.01,-0.0,0.79,0.61,-8.776144659020706e-15,-2.5322821523884808e-14,1.1796510206486741e-14
2.6289608478546143,0.11,-0.0,9.84,0.0,0.0,0.0,0.01,-0.0,0.79,0.61,-8.776144659020706e-15,-2.5322821523884808e-14,1.1796510206486741e-14
2.6291661262512207,0.11,-0.0,9.84,0.0,0.0,0.0,0.01,-0.0,0.79,0.61,-8.776144659020706e-15,-2.5322821523884808e-14,1.1796510206486741e-14
2.6293599605560303,0.11,-0.0,9.84,0.0,0.0,0.0,0.01,-0.0,0.79,0.61,-8.776144659020706e-15,-2.5322821523884808e-14,1.1796510206486741e-14
2.629558801651001,0.11,-0.0,9.84,0.0,0.0,0.0,0.01,-0.0,0.79,0.61,-8.776144659020706e-15,-2.5322821523884808e-14,1.1796510206486741e-14
2.62976336479187,0.11,-0.0,9.84,0.0,0.0,0.0,0.01,-0.0,0.79,0.61,-8.776144659020706e-15,-2.5322821523884808e-14,1.1796510206486741e-14
2.629948139190674,0.11,-0.0,9.84,0.0,0.0,0.0,0.01,-0.0,0.79,0.61,-8.776144659020706e-15,-2.5322821523884808e-14,1.1796510206486741e-14
2.6301281452178955,0.11,-0.0,9.84,0.0,0.0,0.0,0.01,-0.0,0.79,0.61,-8.776144659020706e-15,-2.5322821523884808e-14,1.1796510206486741e-14
2.6304588317871094,0.15,-0.08,9.8,0.0,0.0,0.0,0.01,-0.0,0.79,0.61,-8.776144659020706e-15,-2.5322821523884808e-14,1.1796510206486741e-14
2.6308434009552,0.15,-0.08,9.8,0.0,0.0,0.0,0.01,-0.0,0.79,0.61,-8.776144659020706e-15,-2.5322821523884808e-14,1.1796510206486741e-14
2.6312122344970703,0.15,-0.08,9.8,0.0,0.0,0.0,0.01,-0.0,0.79,0.61,-8.776144659020706e-15,-2.5322821523884808e-14,1.1796510206486741e-14
2.631746292114258,0.15,-0.08,9.8,0.0,0.0,0.0,0.01,-0.0,0.79,0.61,-8.776144659020706e-15,-2.5322821523884808e-14,1.1796510206486741e-14
2.632413387298584,0.15,-0.08,9.8,0.0,0.0,0.0,0.01,-0.0,0.79,0.61,-8.776144659020706e-15,-2.5322821523884808e-14,1.1796510206486741e-14
2.632702589035034,0.15,-0.08,9.8,0.0,0.0,0.0,0.01,-0.0,0.79,0.61,-8.776144659020706e-15,-2.5322821523884808e-14,1.1796510206486741e-14
2.632929563522339,0.15,-0.08,9.8,0.0,0.0,0.0,0.01,-0.0,0.79,0.61,-8.776144659020706e-15,-2.5322821523884808e-14,1.1796510206486741e-14
2.633134126663208,0.15,-0.08,9.8,0.0,0.0,0.0,0.01,-0.0,0.79,0.61,-8.776144659020706e-15,-2.5322821523884808e-14,1.1796510206486741e-14
2.633321523666382,0.15,-0.08,9.8,0.0,0.0,0.0,0.01,-0.0,0.79,0.61,-8.776144659020706e-15,-2.5322821523884808e-14,1.1796510206486741e-14
2.633493661880493,0.15,-0.08,9.8,0.0,0.0,0.0,0.01,-0.0,0.79,0.61,-8.776144659020706e-15,-2.5322821523884808e-14,1.1796510206486741e-14
2.6336584091186523,0.11,0.07,9.84,0.0,0.0,0.0,0.01,-0.0,0.79,0.61,-8.776144659020706e-15,-2.5322821523884808e-14,1.1796510206486741e-14
2.6338188648223877,0.11,0.07,9.84,0.0,0.0,0.0,0.01,-0.0,0.79,0.61,-8.776144659020706e-15,-2.5322821523884808e-14,1.1796510206486741e-14
2.633981943130493,0.11,0.07,9.84,0.0,0.0,0.0,0.01,-0.0,0.79,0.61,-8.776144659020706e-15,-2.5322821523884808e-14,1.1796510206486741e-14
2.6341238021850586,0.11,0.07,9.84,0.0,0.0,0.0,0.01,-0.0,0.79,0.61,-8.776144659020706e-15,-2.5322821523884808e-14,1.1796510206486741e-14
2.634262800216675,0.11,0.07,9.84,0.0,0.0,0.0,0.01,-0.0,0.79,0.61,-8.776144659020706e-15,-2.5322821523884808e-14,1.1796510206486741e-14
2.634390354156494,0.11,0.07,9.84,0.0,0.0,0.0,0.01,-0.0,0.79,0.61,-8.776144659020706e-15,-2.5322821523884808e-14,1.1796510206486741e-14
2.7066664695739746,0.11,0.07,9.84,0.0,0.0,0.0,0.01,-0.0,0.79,0.61,-8.776144659020706e-15,-2.5322821523884808e-14,1.1796510206486741e-14
2.7072856426239014,0.11,0.07,9.84,0.0,0.0,0.0,0.01,-0.0,0.79,0.61,-8.776144659020706e-15,-2.5322821523884808e-14,1.1796510206486741e-14
2.70754075050354,0.11,0.07,9.84,0.0,0.0,0.0,0.01,-0.0,0.79,0.61,-8.776144659020706e-15,-2.5322821523884808e-14,1.1796510206486741e-14
2.707768201828003,0.11,0.07,9.84,0.0,0.0,0.0,0.01,-0.0,0.79,0.61,-8.776144659020706e-15,-2.5322821523884808e-14,1.1796510206486741e-14
2.708064556121826,0.19,-0.0,9.84,0.0,0.0,0.0,0.01,-0.0,0.79,0.61,-8.776144659020706e-15,-2.5322821523884808e-14,1.1796510206486741e-14
2.7083933353424072,0.19,-0.0,9.84,0.0,0.0,0.0,0.01,-0.0,0.79,0.61,-8.776144659020706e-15,-2.5322821523884808e-14,1.1796510206486741e-14
2.7086739540100098,0.19,-0.0,9.84,0.0,0.0,0.0,0.01,-0.0,0.79,0.61,-8.776144659020706e-15,-2.5322821523884808e-14,1.1796510206486741e-14
2.7089242935180664,0.19,-0.0,9.84,0.0,0.0,0.0,0.01,-0.0,0.79,0.61,-8.776144659020706e-15,-2.5322821523884808e-14,1.1796510206486741e-14
2.7090749740600586,0.19,-0.0,9.84,0.0,0.0,0.0,0.01,-0.0,0.79,0.61,-8.776144659020706e-15,-2.5322821523884808e-14,1.1796510206486741e-14
2.7092125415802,0.19,-0.0,9.84,0.0,0.0,0.0,0.01,-0.0,0.79,0.61,-8.776144659020706e-15,-2.5322821523884808e-14,1.1796510206486741e-14
2.709338903427124,0.19,-0.0,9.84,0.0,0.0,0.0,0.01,-0.0,0.79,0.61,-8.776144659020706e-15,-2.5322821523884808e-14,1.1796510206486741e-14
2.709458351135254,0.19,-0.0,9.84,0.0,0.0,0.0,0.01,-0.0,0.79,0.61,-8.776144659020706e-15,-2.5322821523884808e-14,1.1796510206486741e-14
2.709575653076172,0.07,0.15,9.76,0.0,0.0,0.0,0.01,-0.0,0.79,0.61,-8.776144659020706e-15,-2.5322821523884808e-14,1.1796510206486741e-14
2.7096915245056152,0.07,0.15,9.76,0.0,0.0,0.0,0.01,-0.0,0.79,0.61,-8.776144659020706e-15,-2.5322821523884808e-14,1.1796510206486741e-14
2.7098140716552734,0.07,0.15,9.76,0.0,0.0,0.0,0.01,-0.0,0.79,0.61,-8.776144659020706e-15,-2.5322821523884808e-14,1.1796510206486741e-14
2.7099506855010986,0.07,0.15,9.76,0.0,0.0,0.0,0.01,-0.0,0.79,0.61,-8.776144659020706e-15,-2.5322821523884808e-14,1.1796510206486741e-14
2.7100722789764404,0.07,0.15,9.76,0.0,0.0,0.0,0.01,-0.0,0.79,0.61,-8.776144659020706e-15,-2.5322821523884808e-14,1.1796510206486741e-14
2.773268461227417,0.07,0.15,9.76,0.0,0.0,0.0,0.01,-0.0,0.79,0.61,-8.776144659020706e-15,-2.5322821523884808e-14,1.1796510206486741e-14
2.7736871242523193,0.07,0.15,9.76,0.0,0.0,0.0,0.01,-0.0,0.79,0.61,-8.776144659020706e-15,-2.5322821523884808e-14,1.1796510206486741e-14
2.773984909057617,0.07,0.15,9.76,0.0,0.0,0.0,0.01,-0.0,0.79,0.61,-8.776144659020706e-15,-2.5322821523884808e-14,1.1796510206486741e-14
2.7741951942443848,0.07,0.15,9.76,0.0,0.0,0.0,0.01,-0.0,0.79,0.61,-8.776144659020706e-15,-2.5322821523884808e-14,1.1796510206486741e-14
2.774345636367798,0.07,0.15,9.76,0.0,0.0,0.0,0.01,-0.0,0.79,0.61,-8.776144659020706e-15,-2.5322821523884808e-14,1.1796510206486741e-14
2.774481773376465,0.07,0.15,9.76,0.0,0.0,0.0,0.01,-0.0,0.79,0.61,-8.776144659020706e-15,-2.5322821523884808e-14,1.1796510206486741e-14
2.774606466293335,0.07,0.15,9.76,0.0,0.0,0.0,0.01,-0.0,0.79,0.61,-8.776144659020706e-15,-2.5322821523884808e-14,1.1796510206486741e-14
2.7747294902801514,0.15,-0.08,9.88,0.0,0.0,0.0,0.01,-0.0,0.79,0.61,-8.776144659020706e-15,-2.5322821523884802e-14,1.1796510206486735e-14
2.775752305984497,0.15,-0.08,9.88,0.0,0.0,0.0,0.01,-0.0,0.79,0.61,-8.776144659020706e-15,-2.5322821523884802e-14,1.1796510206486735e-14
2.776426076889038,0.15,-0.08,9.88,0.0,0.0,0.0,0.01,-0.0,0.79,0.61,-8.776144659020706e-15,-2.5322821523884802e-14,1.1796510206486735e-14
2.7769052982330322,0.15,-0.08,9.88,0.0,0.0,0.0,0.01,-0.0,0.79,0.61,-8.776144659020706e-15,-2.5322821523884802e-14,1.1796510206486735e-14
2.7774319648742676,0.15,-0.08,9.88,0.0,0.0,0.0,0.01,-0.0,0.79,0.61,-8.776144659020706e-15,-2.5322821523884802e-14,1.1796510206486735e-14
2.7779338359832764,0.15,-0.08,9.88,0.0,0.0,0.0,0.01,-0.0,0.79,0.61,-8.776144659020706e-15,-2.5322821523884802e-14,1.1796510206486735e-14
2.7787344455718994,0.15,-0.08,9.88,0.0,0.0,0.0,0.01,-0.0,0.79,0.61,-8.776144659020706e-15,-2.5322821523884802e-14,1.1796510206486735e-14
2.779237985610962,0.15,-0.08,9.88,0.0,0.0,0.0,0.01,-0.0,0.79,0.61,-8.776144659020706e-15,-2.5322821523884802e-14,1.1796510206486735e-14
2.779751777648926,0.15,-0.08,9.88,0.0,0.0,0.0,0.01,-0.0,0.79,0.61,-8.776144659020706e-15,-2.5322821523884802e-14,1.1796510206486735e-14
2.7802114486694336,0.15,-0.08,9.88,0.0,0.0,0.0,0.01,-0.0,0.79,0.61,-8.776144659020706e-15,-2.5322821523884802e-14,1.1796510206486735e-14
2.7806344032287598,0.11,0.04,9.76,0.0,0.0,0.0,0.01,-0.0,0.79,0.61,-8.776144659020706e-15,-2.5322821523884802e-14,1.1796510206486735e-14
2.7810654640197754,0.11,0.04,9.76,0.0,0.0,0.0,0.01,-0.0,0.79,0.61,-8.776144659020706e-15,-2.5322821523884802e-14,1.1796510206486735e-14
2.7815351486206055,0.11,0.04,9.76,0.0,0.0,0.0,0.01,-0.0,0.79,0.61,-8.776144659020706e-15,-2.5322821523884802e-14,1.1796510206486735e-14
2.782043695449829,0.11,0.04,9.76,0.0,0.0,0.0,0.01,-0.0,0.79,0.61,-8.776144659020706e-15,-2.5322821523884802e-14,1.1796510206486735e-14
2.7825238704681396,0.11,0.04,9.76,0.0,0.0,0.0,0.01,-0.0,0.79,0.61,-8.776144659020706e-15,-2.5322821523884802e-14,1.1796510206486735e-14
2.7829713821411133,0.11,0.04,9.76,0.0,0.0,0.0,0.01,-0.0,0.79,0.61,-8.776144659020706e-15,-2.5322821523884802e-14,1.1796510206486735e-14
2.7833924293518066,0.11,0.04,9.76,0.0,0.0,0.0,0.01,-0.0,0.79,0.61,-8.776144659020706e-15,-2.5322821523884802e-14,1.1796510206486735e-14
2.7838456630706787,0.11,0.04,9.76,0.0,0.0,0.0,0.01,-0.0,0.79,0.61,-8.776144659020706e-15,-2.5322821523884802e-14,1.1796510206486735e-14
2.844437599182129,0.11,0.04,9.76,0.0,0.0,0.0,0.01,-0.0,0.79,0.61,-8.776144659020706e-15,-2.5322821523884802e-14,1.1796510206486735e-14
2.8451719284057617,0.11,0.04,9.76,0.0,0.0,0.0,0.01,-0.0,0.79,0.61,-8.776144659020706e-15,-2.5322821523884802e-14,1.1796510206486735e-14
2.8456828594207764,0.15,0.07,9.88,0.0,0.0,0.0,0.01,-0.0,0.79,0.61,-8.776144659020706e-15,-2.5322821523884802e-14,1.1796510206486735e-14
2.8462600708007812,0.15,0.07,9.88,0.0,0.0,0.0,0.01,-0.0,0.79,0.61,-8.776144659020706e-15,-2.5322821523884802e-14,1.1796510206486735e-14
2.8468480110168457,0.15,0.07,9.88,0.0,0.0,0.0,0.01,-0.0,0.79,0.61,-8.776144659020706e-15,-2.5322821523884802e-14,1.1796510206486735e-14
2.847316026687622,0.15,0.07,9.88,0.0,0.0,0.0,0.01,-0.0,0.79,0.61,-8.776144659020706e-15,-2.5322821523884802e-14,1.1796510206486735e-14
2.847773551940918,0.15,0.07,9.88,0.0,0.0,0.0,0.01,-0.0,0.79,0.61,-8.776144659020706e-15,-2.5322821523884802e-14,1.1796510206486735e-14
2.9066574573516846,0.15,0.07,9.88,0.0,0.0,0.0,0.01,-0.0,0.79,0.61,-8.776144659020706e-15,-2.5322821523884802e-14,1.1796510206486735e-14
2.907367467880249,0.15,0.07,9.88,0.0,0.0,0.0,0.01,-0.0,0.79,0.61,-8.776144659020706e-15,-2.5322821523884802e-14,1.1796510206486735e-14
2.907844066619873,0.15,0.07,9.88,0.0,0.0,0.0,0.01,-0.0,0.79,0.61,-8.776144659020706e-15,-2.5322821523884802e-14,1.1796510206486735e-14
2.9082789421081543,0.15,0.04,9.84,0.0,0.0,0.0,0.01,-0.0,0.79,0.61,-8.776144659020706e-15,-2.5322821523884802e-14,1.1796510206486735e-14
2.908682107925415,0.15,0.04,9.84,0.0,0.0,0.0,0.01,-0.0,0.79,0.61,-8.776144659020706e-15,-2.5322821523884802e-14,1.1796510206486735e-14
2.9091148376464844,0.15,0.04,9.84,0.0,0.0,0.0,0.01,-0.0,0.79,0.61,-8.776144659020706e-15,-2.5322821523884802e-14,1.1796510206486735e-14
2.909588098526001,0.15,0.04,9.84,0.0,0.0,0.0,0.01,-0.0,0.79,0.61,-8.776144659020706e-15,-2.5322821523884802e-14,1.1796510206486735e-14
2.910111665725708,0.15,0.04,9.84,0.0,0.0,0.0,0.01,-0.0,0.79,0.61,-8.776144659020706e-15,-2.5322821523884802e-14,1.1796510206486735e-14
2.9106101989746094,0.15,0.04,9.84,0.0,0.0,0.0,0.01,-0.0,0.79,0.61,-8.776144659020706e-15,-2.5322821523884802e-14,1.1796510206486735e-14
2.9110190868377686,0.15,0.04,9.84,0.0,0.0,0.0,0.01,-0.0,0.79,0.61,-8.776144659020706e-15,-2.5322821523884802e-14,1.1796510206486735e-14
2.9114108085632324,0.15,0.04,9.84,0.0,0.0,0.0,0.01,-0.0,0.79,0.61,-8.776144659020706e-15,-2.5322821523884802e-14,1.1796510206486735e-14
2.911879062652588,0.15,0.04,9.84,0.0,0.0,0.0,0.01,-0.0,0.79,0.61,-8.776144659020706e-15,-2.5322821523884802e-14,1.1796510206486735e-14
2.9122867584228516,0.15,0.04,9.84,0.0,0.0,0.0,0.01,-0.0,0.79,0.61,-8.776144659020706e-15,-2.5322821523884802e-14,1.1796510206486735e-14
2.91267991065979,0.11,0.04,9.72,0.0,0.0,0.0,0.01,-0.0,0.79,0.61,-8.776144659020706e-15,-2.5322821523884802e-14,1.1796510206486735e-14
2.9131150245666504,0.11,0.04,9.72,0.0,0.0,0.0,0.01,-0.0,0.79,0.61,-8.776144659020706e-15,-2.5322821523884802e-14,1.1796510206486735e-14
2.9753503799438477,0.11,0.04,9.72,0.0,0.0,0.0,0.01,-0.0,0.79,0.61,-8.776144659020706e-15,-2.5322821523884802e-14,1.1796510206486735e-14
2.9761953353881836,0.11,0.04,9.72,0.0,0.0,0.0,0.01,-0.0,0.79,0.61,-8.776144659020706e-15,-2.5322821523884802e-14,1.1796510206486735e-14
2.9767203330993652,0.11,0.04,9.72,0.0,0.0,0.0,0.01,-0.0,0.79,0.61,-8.776144659020706e-15,-2.5322821523884802e-14,1.1796510206486735e-14
2.977219581604004,0.11,0.04,9.72,0.0,0.0,0.0,0.01,-0.0,0.79,0.61,-8.776144659020706e-15,-2.5322821523884802e-14,1.1796510206486735e-14
2.9776246547698975,0.11,0.04,9.72,0.0,0.0,0.0,0.01,-0.0,0.79,0.61,-8.776144659020706e-15,-2.5322821523884802e-14,1.1796510206486735e-14
2.9780972003936768,0.11,0.04,9.72,0.0,0.0,0.0,0.01,-0.0,0.79,0.61,-8.776144659020706e-15,-2.5322821523884802e-14,1.1796510206486735e-14
2.978529930114746,0.15,-0.04,9.84,0.0,0.0,0.0,0.01,-0.0,0.79,0.61,-8.776144659020706e-15,-2.5322821523884802e-14,1.1796510206486735e-14
2.978973865509033,0.15,-0.04,9.84,0.0,0.0,0.0,0.01,-0.0,0.79,0.61,-8.776144659020706e-15,-2.5322821523884802e-14,1.1796510206486735e-14
2.9794466495513916,0.15,-0.04,9.84,0.0,0.0,0.0,0.01,-0.0,0.79,0.61,-8.776144659020706e-15,-2.5322821523884802e-14,1.1796510206486735e-14
2.9798669815063477,0.15,-0.04,9.84,0.0,0.0,0.0,0.01,-0.0,0.79,0.61,-8.776144659020706e-15,-2.5322821523884802e-14,1.1796510206486735e-14
2.9802794456481934,0.15,-0.04,9.84,0.0,0.0,0.0,0.01,-0.0,0.79,0.61,-8.776144659020706e-15,-2.5322821523884802e-14,1.1796510206486735e-14
2.9807639122009277,0.15,-0.04,9.84,0.0,0.0,0.0,0.01,-0.0,0.79,0.61,-8.776144659020706e-15,-2.5322821523884802e-14,1.1796510206486735e-14
2.9811899662017822,0.15,-0.04,9.84,0.0,0.0,0.0,0.01,-0.0,0.79,0.61,-8.776144659020706e-15,-2.5322821523884802e-14,1.1796510206486735e-14
2.9816455841064453,0.15,-0.04,9.84,0.0,0.0,0.0,0.01,-0.0,0.79,0.61,-8.776144659020706e-15,-2.5322821523884802e-14,1.1796510206486735e-14
2.982069730758667,0.07,0.04,9.8,0.0,0.0,0.0,0.01,-0.0,0.79,0.61,-8.776144659020706e-15,-2.5322821523884802e-14,1.1796510206486735e-14
2.9826321601867676,0.07,0.04,9.8,0.0,0.0,0.0,0.01,-0.0,0.79,0.61,-8.776144659020706e-15,-2.5322821523884802e-14,1.1796510206486735e-14
2.9830780029296875,0.07,0.04,9.8,0.0,0.0,0.0,0.01,-0.0,0.79,0.61,-8.776144659020706e-15,-2.5322821523884802e-14,1.1796510206486735e-14
2.9835336208343506,0.07,0.04,9.8,0.0,0.0,0.0,0.01,-0.0,0.79,0.61,-8.776144659020706e-15,-2.5322821523884802e-14,1.1796510206486735e-14
2.9839515686035156,0.07,0.04,9.8,0.0,0.0,0.0,0.01,-0.0,0.79,0.61,-8.776144659020706e-15,-2.5322821523884802e-14,1.1796510206486735e-14
2.984374761581421,0.07,0.04,9.8,0.0,0.0,0.0,0.01,-0.0,0.79,0.61,-8.776144659020706e-15,-2.5322821523884802e-14,1.1796510206486735e-14
2.9848315715789795,0.15,-0.0,9.8,0.0,0.0,0.0,0.01,-0.0,0.79,0.61,-8.776144659020706e-15,-2.5322821523884802e-14,1.1796510206486735e-14
3.0483970642089844,0.15,-0.0,9.8,0.0,0.0,0.0,0.01,-0.0,0.79,0.61,-8.776144659020706e-15,-2.5322821523884802e-14,1.1796510206486735e-14
3.0491013526916504,0.15,-0.0,9.8,0.0,0.0,0.0,0.01,-0.0,0.79,0.61,-8.776144659020706e-15,-2.5322821523884802e-14,1.1796510206486735e-14
3.0496699810028076,0.15,-0.0,9.8,0.0,0.0,0.0,0.01,-0.0,0.79,0.61,-8.776144659020706e-15,-2.5322821523884802e-14,1.1796510206486735e-14
3.0501177310943604,0.15,-0.0,9.8,0.0,0.0,0.0,0.01,-0.0,0.79,0.61,-8.776144659020706e-15,-2.5322821523884802e-14,1.1796510206486735e-14
3.0505917072296143,0.15,-0.0,9.8,0.0,0.0,0.0,0.01,-0.0,0.79,0.61,-8.776144659020706e-15,-2.5322821523884802e-14,1.1796510206486735e-14
3.0511298179626465,0.15,-0.0,9.8,0.0,0.0,0.0,0.01,-0.0,0.79,0.61,-8.776144659020706e-15,-2.5322821523884802e-14,1.1796510206486735e-14
3.189913034439087,0.15,-0.0,9.8,0.0,0.0,0.0,0.01,-0.0,0.79,0.61,-8.776144659020706e-15,-2.5322821523884802e-14,1.1796510206486735e-14
3.1910784244537354,0.15,0.07,9.76,0.0,0.0,0.0,0.01,-0.0,0.79,0.61,-8.776144659020706e-15,-2.5322821523884802e-14,1.1796510206486735e-14
3.191702127456665,0.15,0.07,9.76,0.0,0.0,0.0,0.01,-0.0,0.79,0.61,-8.776144659020706e-15,-2.5322821523884802e-14,1.1796510206486735e-14
3.1921448707580566,0.15,0.07,9.76,0.0,0.0,0.0,0.01,-0.0,0.79,0.61,-8.776144659020706e-15,-2.5322821523884802e-14,1.1796510206486735e-14
3.192570447921753,0.15,0.07,9.76,0.0,0.0,0.0,0.01,-0.0,0.79,0.61,-8.776144659020706e-15,-2.5322821523884802e-14,1.1796510206486735e-14
3.1929943561553955,0.15,0.07,9.76,0.0,0.0,0.0,0.01,-0.0,0.79,0.61,-8.776144659020706e-15,-2.5322821523884802e-14,1.1796510206486735e-14
3.1934127807617188,0.15,0.07,9.76,0.0,0.0,0.0,0.01,-0.0,0.79,0.61,-8.776144659020706e-15,-2.5322821523884802e-14,1.1796510206486735e-14
3.193829298019409,0.15,0.07,9.76,0.0,0.0,0.0,0.01,-0.0,0.79,0.61,-8.776144659020706e-15,-2.5322821523884802e-14,1.1796510206486735e-14
3.194232225418091,0.15,0.07,9.76,0.0,0.0,0.0,0.01,-0.0,0.79,0.61,-8.776144659020706e-15,-2.5322821523884802e-14,1.1796510206486735e-14
3.194672107696533,0.23,0.07,9.8,0.0,0.0,0.0,0.01,-0.0,0.79,0.61,-8.776144659020706e-15,-2.5322821523884802e-14,1.1796510206486735e-14
3.1953248977661133,0.23,0.07,9.8,0.0,0.0,0.0,0.01,-0.0,0.79,0.61,-8.776144659020706e-15,-2.5322821523884802e-14,1.1796510206486735e-14
3.195788860321045,0.23,0.07,9.8,0.0,0.0,0.0,0.01,-0.0,0.79,0.61,-8.776144659020706e-15,-2.5322821523884802e-14,1.1796510206486735e-14
3.196216106414795,0.23,0.07,9.8,0.0,0.0,0.0,0.01,-0.0,0.79,0.61,-8.776144659020706e-15,-2.5322821523884802e-14,1.1796510206486735e-14
3.1972439289093018,0.23,0.07,9.8,0.0,0.0,0.0,0.01,-0.0,0.79,0.61,-8.776144659020706e-15,-2.5322821523884802e-14,1.1796510206486735e-14
3.198399782180786,0.23,0.07,9.8,0.0,0.0,0.0,0.01,-0.0,0.79,0.61,-8.776144659020706e-15,-2.5322821523884802e-14,1.1796510206486735e-14
3.198895215988159,0.19,-0.0,9.76,0.0,0.0,0.0,0.01,-0.0,0.79,0.61,-8.776144659020706e-15,-2.5322821523884802e-14,1.1796510206486735e-14
3.199295997619629,0.19,-0.0,9.76,0.0,0.0,0.0,0.01,-0.0,0.79,0.61,-8.776144659020706e-15,-2.5322821523884802e-14,1.1796510206486735e-14
3.199723482131958,0.19,-0.0,9.76,0.0,0.0,0.0,0.01,-0.0,0.79,0.61,-8.776144659020706e-15,-2.5322821523884802e-14,1.1796510206486735e-14
3.200132369995117,0.19,-0.0,9.76,0.0,0.0,0.0,0.01,-0.0,0.79,0.61,-8.776144659020706e-15,-2.5322821523884802e-14,1.1796510206486735e-14
3.2005507946014404,0.19,-0.0,9.76,0.0,0.0,0.0,0.01,-0.0,0.79,0.61,-8.776144659020706e-15,-2.5322821523884802e-14,1.1796510206486735e-14
3.200977325439453,0.19,-0.0,9.76,0.0,0.0,0.0,0.01,-0.0,0.79,0.61,-8.776144659020706e-15,-2.5322821523884802e-14,1.1796510206486735e-14
3.2013871669769287,0.19,-0.0,9.76,0.0,0.0,0.0,0.01,-0.0,0.79,0.61,-8.776144659020706e-15,-2.5322821523884802e-14,1.1796510206486735e-14
3.2018239498138428,0.19,-0.0,9.76,0.0,0.0,0.0,0.01,-0.0,0.79,0.61,-8.776144659020706e-15,-2.5322821523884802e-14,1.1796510206486735e-14
3.202263355255127,0.11,0.04,9.8,0.0,0.0,0.0,0.01,-0.0,0.79,0.61,-8.776144659020706e-15,-2.5322821523884802e-14,1.1796510206486735e-14
3.202821731567383,0.11,0.04,9.8,0.0,0.0,0.0,0.01,-0.0,0.79,0.61,-8.776144659020706e-15,-2.5322821523884802e-14,1.1796510206486735e-14
3.20336651802063,0.11,0.04,9.8,0.0,0.0,0.0,0.01,-0.0,0.79,0.61,-8.776144659020706e-15,-2.5322821523884802e-14,1.1796510206486735e-14
3.204096555709839,0.11,0.04,9.8,0.0,0.0,0.0,0.01,-0.0,0.79,0.61,-8.776144659020706e-15,-2.5322821523884802e-14,1.1796510206486735e-14
3.204662322998047,0.11,0.04,9.8,0.0,0.0,0.0,0.01,-0.0,0.79,0.61,-8.776144659020706e-15,-2.5322821523884802e-14,1.1796510206486735e-14
3.2050797939300537,0.11,0.04,9.8,0.0,0.0,0.0,0.01,-0.0,0.79,0.61,-8.776144659020706e-15,-2.5322821523884802e-14,1.1796510206486735e-14
3.2055397033691406,0.15,0.04,9.76,0.0,0.0,0.0,0.01,-0.0,0.79,0.61,-8.776144659020706e-15,-2.5322821523884802e-14,1.1796510206486735e-14
3.2061703205108643,0.15,0.04,9.76,0.0,0.0,0.0,0.01,-0.0,0.79,0.61,-8.776144659020706e-15,-2.5322821523884802e-14,1.1796510206486735e-14
3.2065911293029785,0.15,0.04,9.76,0.0,0.0,0.0,0.01,-0.0,0.79,0.61,-8.776144659020706e-15,-2.5322821523884802e-14,1.1796510206486735e-14
3.2070133686065674,0.15,0.04,9.76,0.0,0.0,0.0,0.01,-0.0,0.79,0.61,-8.776144659020706e-15,-2.5322821523884802e-14,1.1796510206486735e-14
3.207454204559326,0.15,0.04,9.76,0.0,0.0,0.0,0.01,-0.0,0.79,0.61,-8.776144659020706e-15,-2.5322821523884802e-14,1.1796510206486735e-14
3.207988977432251,0.15,0.04,9.76,0.0,0.0,0.0,0.01,-0.0,0.79,0.61,-8.776144659020706e-15,-2.5322821523884802e-14,1.1796510206486735e-14
3.208502769470215,0.15,0.04,9.76,0.0,0.0,0.0,0.01,-0.0,0.79,0.61,-8.776144659020706e-15,-2.5322821523884802e-14,1.1796510206486735e-14
3.2089364528656006,0.19,-0.04,9.84,0.0,0.0,0.0,0.01,-0.0,0.79,0.61,-8.776144659020706e-15,-2.5322821523884802e-14,1.1796510206486735e-14
3.2093372344970703,0.19,-0.04,9.84,0.0,0.0,0.0,0.01,-0.0,0.79,0.61,-8.776144659020706e-15,-2.5322821523884802e-14,1.1796510206486735e-14
3.209764003753662,0.19,-0.04,9.84,0.0,0.0,0.0,0.01,-0.0,0.79,0.61,-8.776144659020706e-15,-2.5322821523884802e-14,1.1796510206486735e-14
3.2101633548736572,0.19,-0.04,9.84,0.0,0.0,0.0,0.01,-0.0,0.79,0.61,-8.776144659020706e-15,-2.5322821523884802e-14,1.1796510206486735e-14
3.2105653285980225,0.19,-0.04,9.84,0.0,0.0,0.0,0.01,-0.0,0.79,0.61,-8.776144659020706e-15,-2.5322821523884802e-14,1.1796510206486735e-14
3.211116075515747,0.19,-0.04,9.84,0.0,0.0,0.0,0.01,-0.0,0.79,0.61,-8.776144659020706e-15,-2.5322821523884802e-14,1.1796510206486735e-14
3.286623954772949,0.19,-0.04,9.84,0.0,0.0,0.0,0.01,-0.0,0.79,0.61,-8.776144659020706e-15,-2.5322821523884802e-14,1.1796510206486735e-14
3.287684679031372,0.19,-0.04,9.84,0.0,0.0,0.0,0.01,-0.0,0.79,0.61,-8.776144659020706e-15,-2.5322821523884802e-14,1.1796510206486735e-14
3.2884297370910645,0.11,0.04,9.76,0.0,0.0,0.0,0.01,-0.0,0.79,0.61,-8.776144659020706e-15,-2.5322821523884802e-14,1.1796510206486735e-14
3.2888553142547607,0.11,0.04,9.76,0.0,0.0,0.0,0.01,-0.0,0.79,0.61,-8.776144659020706e-15,-2.5322821523884802e-14,1.1796510206486735e-14
3.289367914199829,0.11,0.04,9.76,0.0,0.0,0.0,0.01,-0.0,0.79,0.61,-8.776144659020706e-15,-2.5322821523884802e-14,1.1796510206486735e-14
3.2899515628814697,0.11,0.04,9.76,0.0,0.0,0.0,0.01,-0.0,0.79,0.61,-8.776144659020706e-15,-2.5322821523884802e-14,1.1796510206486735e-14
3.2903971672058105,0.11,0.04,9.76,0.0,0.0,0.0,0.01,-0.0,0.79,0.61,-8.776144659020706e-15,-2.5322821523884802e-14,1.1796510206486735e-14
3.2908265590667725,0.11,0.04,9.76,0.0,0.0,0.0,0.01,-0.0,0.79,0.61,-8.776144659020706e-15,-2.5322821523884802e-14,1.1796510206486735e-14
3.291351318359375,0.15,0.04,9.8,0.0,0.0,0.0,0.01,-0.0,0.79,0.61,-8.776144659020706e-15,-2.5322821523884802e-14,1.1796510206486735e-14
3.2917728424072266,0.15,0.04,9.8,0.0,0.0,0.0,0.01,-0.0,0.79,0.61,-8.776144659020706e-15,-2.5322821523884802e-14,1.1796510206486735e-14
3.2922298908233643,0.15,0.04,9.8,0.0,0.0,0.0,0.01,-0.0,0.79,0.61,-8.776144659020706e-15,-2.5322821523884802e-14,1.1796510206486735e-14
3.292663812637329,0.15,0.04,9.8,0.0,0.0,0.0,0.01,-0.0,0.79,0.61,-8.776144659020706e-15,-2.5322821523884802e-14,1.1796510206486735e-14
3.2932090759277344,0.15,0.04,9.8,0.0,0.0,0.0,0.01,-0.0,0.79,0.61,-8.776144659020706e-15,-2.5322821523884802e-14,1.1796510206486735e-14
3.2936654090881348,0.15,0.04,9.8,0.0,0.0,0.0,0.01,-0.0,0.79,0.61,-8.776144659020706e-15,-2.5322821523884802e-14,1.1796510206486735e-14
3.294112205505371,0.11,-0.04,9.88,0.0,0.0,0.0,0.01,-0.0,0.79,0.61,-8.776144659020706e-15,-2.5322821523884802e-14,1.1796510206486735e-14
3.2946465015411377,0.11,-0.04,9.88,0.0,0.0,0.0,0.01,-0.0,0.79,0.61,-8.776144659020706e-15,-2.5322821523884802e-14,1.1796510206486735e-14
3.295081377029419,0.11,-0.04,9.88,0.0,0.0,0.0,0.01,-0.0,0.79,0.61,-8.776144659020706e-15,-2.5322821523884802e-14,1.1796510206486735e-14
3.2954747676849365,0.11,-0.04,9.88,0.0,0.0,0.0,0.01,-0.0,0.79,0.61,-8.776144659020706e-15,-2.5322821523884802e-14,1.1796510206486735e-14
3.295917272567749,0.11,-0.04,9.88,0.0,0.0,0.0,0.01,-0.0,0.79,0.61,-8.776144659020706e-15,-2.5322821523884802e-14,1.1796510206486735e-14
3.356234312057495,0.11,-0.04,9.88,0.0,0.0,0.0,0.01,-0.0,0.79,0.61,-8.776144659020706e-15,-2.5322821523884802e-14,1.1796510206486735e-14
3.4190618991851807,0.15,-0.0,9.72,0.0,0.0,0.0,0.01,-0.0,0.79,0.61,-8.776144659020706e-15,-2.5322821523884802e-14,1.1796510206486735e-14
3.4197475910186768,0.15,-0.0,9.72,0.0,0.0,0.0,0.01,-0.0,0.79,0.61,-8.776144659020706e-15,-2.5322821523884802e-14,1.1796510206486735e-14
3.420295476913452,0.15,-0.0,9.72,0.0,0.0,0.0,0.01,-0.0,0.79,0.61,-8.776144659020706e-15,-2.5322821523884802e-14,1.1796510206486735e-14
3.4206926822662354,0.15,-0.0,9.72,0.0,0.0,0.0,0.01,-0.0,0.79,0.61,-8.776144659020706e-15,-2.5322821523884802e-14,1.1796510206486735e-14
3.4211184978485107,0.15,-0.0,9.72,0.0,0.0,0.0,0.01,-0.0,0.79,0.61,-8.776144659020706e-15,-2.5322821523884802e-14,1.1796510206486735e-14
3.4215481281280518,0.15,-0.0,9.72,0.0,0.0,0.0,0.01,-0.0,0.79,0.61,-8.776144659020706e-15,-2.5322821523884802e-14,1.1796510206486735e-14
3.4220261573791504,0.15,-0.0,9.72,0.0,0.0,0.0,0.01,-0.0,0.79,0.61,-8.776144659020706e-15,-2.5322821523884802e-14,1.1796510206486735e-14
3.4224462509155273,0.15,-0.0,9.72,0.0,0.0,0.0,0.01,-0.0,0.79,0.61,-8.776144659020706e-15,-2.5322821523884802e-14,1.1796510206486735e-14
3.422865152359009,0.15,0.07,9.72,0.0,0.0,0.0,0.01,-0.0,0.79,0.61,-8.776144659020706e-15,-2.5322821523884802e-14,1.1796510206486735e-14
3.423275947570801,0.15,0.07,9.72,0.0,0.0,0.0,0.01,-0.0,0.79,0.61,-8.776144659020706e-15,-2.5322821523884802e-14,1.1796510206486735e-14
3.4237167835235596,0.15,0.07,9.72,0.0,0.0,0.0,0.01,-0.0,0.79,0.61,-8.776144659020706e-15,-2.5322821523884802e-14,1.1796510206486735e-14
3.42417311668396,0.15,0.07,9.72,0.0,0.0,0.0,0.01,-0.0,0.79,0.61,-8.776144659020706e-15,-2.5322821523884802e-14,1.1796510206486735e-14
3.4246938228607178,0.15,0.07,9.72,0.0,0.0,0.0,0.01,-0.0,0.79,0.61,-8.776144659020706e-15,-2.5322821523884802e-14,1.1796510206486735e-14
3.4252631664276123,0.15,0.07,9.72,0.0,0.0,0.0,0.01,-0.0,0.79,0.61,-8.776144659020706e-15,-2.5322821523884802e-14,1.1796510206486735e-14
3.4256601333618164,0.15,0.07,9.72,0.0,0.0,0.0,0.01,-0.0,0.79,0.61,-8.776144659020706e-15,-2.5322821523884802e-14,1.1796510206486735e-14
3.4260661602020264,0.15,0.07,9.72,0.0,0.0,0.0,0.01,-0.0,0.79,0.61,-8.776144659020706e-15,-2.5322821523884802e-14,1.1796510206486735e-14
3.426486015319824,0.15,0.07,9.72,0.0,0.0,0.0,0.01,-0.0,0.79,0.61,-8.776144659020706e-15,-2.5322821523884802e-14,1.1796510206486735e-14
3.4269227981567383,0.15,0.07,9.72,0.0,0.0,0.0,0.01,-0.0,0.79,0.61,-8.776144659020706e-15,-2.5322821523884802e-14,1.1796510206486735e-14
3.4273390769958496,0.11,-0.04,9.72,0.0,0.0,0.0,0.01,-0.0,0.79,0.61,-8.776144659020706e-15,-2.5322821523884802e-14,1.1796510206486735e-14
3.4277453422546387,0.11,-0.04,9.72,0.0,0.0,0.0,0.01,-0.0,0.79,0.61,-8.776144659020706e-15,-2.5322821523884802e-14,1.1796510206486735e-14
3.4281442165374756,0.11,-0.04,9.72,0.0,0.0,0.0,0.01,-0.0,0.79,0.61,-8.776144659020706e-15,-2.5322821523884802e-14,1.1796510206486735e-14
3.4285523891448975,0.11,-0.04,9.72,0.0,0.0,0.0,0.01,-0.0,0.79,0.61,-8.776144659020706e-15,-2.5322821523884802e-14,1.1796510206486735e-14
3.428999900817871,0.11,-0.04,9.72,0.0,0.0,0.0,0.01,-0.0,0.79,0.61,-8.776144659020706e-15,-2.5322821523884802e-14,1.1796510206486735e-14
3.4294230937957764,0.11,-0.04,9.72,0.0,0.0,0.0,0.01,-0.0,0.79,0.61,-8.776144659020706e-15,-2.5322821523884802e-14,1.1796510206486735e-14
3.500359058380127,0.11,-0.04,9.72,0.0,0.0,0.0,0.01,-0.0,0.79,0.61,-8.776144659020706e-15,-2.5322821523884802e-14,1.1796510206486735e-14
3.501060724258423,0.11,-0.04,9.72,0.0,0.0,0.0,0.01,-0.0,0.79,0.61,-8.776144659020706e-15,-2.5322821523884802e-14,1.1796510206486735e-14
3.501542806625366,0.11,-0.04,9.72,0.0,0.0,0.0,0.01,-0.0,0.79,0.61,-8.776144659020706e-15,-2.5322821523884802e-14,1.1796510206486735e-14
3.502005100250244,0.11,-0.04,9.72,0.0,0.0,0.0,0.01,-0.0,0.79,0.61,-8.776144659020706e-15,-2.5322821523884802e-14,1.1796510206486735e-14
3.5024378299713135,0.11,-0.04,9.72,0.0,0.0,0.0,0.01,-0.0,0.79,0.61,-8.776144659020706e-15,-2.5322821523884802e-14,1.1796510206486735e-14
3.5028491020202637,0.11,-0.04,9.72,0.0,0.0,0.0,0.01,-0.0,0.79,0.61,-8.776144659020706e-15,-2.5322821523884802e-14,1.1796510206486735e-14
3.5032601356506348,0.15,0.07,9.88,0.0,0.0,0.0,0.01,-0.0,0.79,0.61,-8.776144659020706e-15,-2.5322821523884802e-14,1.1796510206486735e-14
3.5037128925323486,0.15,0.07,9.88,0.0,0.0,0.0,0.01,-0.0,0.79,0.61,-8.776144659020706e-15,-2.5322821523884802e-14,1.1796510206486735e-14
3.504318952560425,0.15,0.07,9.88,0.0,0.0,0.0,0.01,-0.0,0.79,0.61,-8.776144659020706e-15,-2.5322821523884802e-14,1.1796510206486735e-14
3.5048105716705322,0.15,0.07,9.88,0.0,0.0,0.0,0.01,-0.0,0.79,0.61,-8.776144659020706e-15,-2.5322821523884802e-14,1.1796510206486735e-14
3.5052428245544434,0.15,0.07,9.88,0.0,0.0,0.0,0.01,-0.0,0.79,0.61,-8.776144659020706e-15,-2.5322821523884802e-14,1.1796510206486735e-14
3.5056633949279785,0.15,0.07,9.88,0.0,0.0,0.0,0.01,-0.0,0.79,0.61,-8.776144659020706e-15,-2.5322821523884802e-14,1.1796510206486735e-14
3.5060813426971436,0.15,0.07,9.88,0.0,0.0,0.0,0.01,-0.0,0.79,0.61,-8.776144659020706e-15,-2.5322821523884802e-14,1.1796510206486735e-14
3.5065345764160156,0.15,0.07,9.88,0.0,0.0,0.0,0.01,-0.0,0.79,0.61,-8.776144659020706e-15,-2.5322821523884802e-14,1.1796510206486735e-14
3.5069546699523926,0.15,0.07,9.88,0.0,0.0,0.0,0.01,-0.0,0.79,0.61,-8.776144659020706e-15,-2.5322821523884802e-14,1.1796510206486735e-14
3.507408380508423,0.15,0.07,9.88,0.0,0.0,0.0,0.01,-0.0,0.79,0.61,-8.776144659020706e-15,-2.5322821523884802e-14,1.1796510206486735e-14
3.5078251361846924,0.15,0.07,9.88,0.0,0.0,0.0,0.01,-0.0,0.79,0.61,-8.776144659020706e-15,-2.5322821523884802e-14,1.1796510206486735e-14
3.5082457065582275,0.15,0.07,9.88,0.0,0.0,0.0,0.01,-0.0,0.79,0.61,-8.776144659020706e-15,-2.5322821523884802e-14,1.1796510206486735e-14
3.587197780609131,0.15,-0.0,9.84,0.0,0.0,0.0,0.01,-0.0,0.79,0.61,-8.776144659020706e-15,-2.5322821523884802e-14,1.1796510206486735e-14
3.5878987312316895,0.15,-0.0,9.84,0.0,0.0,0.0,0.01,-0.0,0.79,0.61,-8.776144659020706e-15,-2.5322821523884802e-14,1.1796510206486735e-14
3.5883944034576416,0.15,-0.0,9.84,0.0,0.0,0.0,0.01,-0.0,0.79,0.61,-8.776144659020706e-15,-2.5322821523884802e-14,1.1796510206486735e-14
3.588826894760132,0.15,-0.0,9.84,0.0,0.0,0.0,0.01,-0.0,0.79,0.61,-8.776144659020706e-15,-2.5322821523884802e-14,1.1796510206486735e-14
3.589240074157715,0.15,-0.0,9.84,0.0,0.0,0.0,0.01,-0.0,0.79,0.61,-8.776144659020706e-15,-2.5322821523884802e-14,1.1796510206486735e-14
3.5898115634918213,0.15,-0.0,9.84,0.0,0.0,0.0,0.01,-0.0,0.79,0.61,-8.776144659020706e-15,-2.5322821523884802e-14,1.1796510206486735e-14
3.590237617492676,0.15,-0.0,9.84,0.0,0.0,0.0,0.01,-0.0,0.79,0.61,-8.776144659020706e-15,-2.5322821523884802e-14,1.1796510206486735e-14
3.59073805809021,0.15,-0.0,9.84,0.0,0.0,0.0,0.01,-0.0,0.79,0.61,-8.776144659020706e-15,-2.5322821523884802e-14,1.1796510206486735e-14
3.5911502838134766,0.15,-0.0,9.84,0.0,0.0,0.0,0.01,-0.0,0.79,0.61,-8.776144659020706e-15,-2.5322821523884802e-14,1.1796510206486735e-14
3.591559886932373,0.15,-0.0,9.84,0.0,0.0,0.0,0.01,-0.0,0.79,0.61,-8.776144659020706e-15,-2.5322821523884802e-14,1.1796510206486735e-14
3.592099189758301,0.15,-0.0,9.84,0.0,0.0,0.0,0.01,-0.0,0.79,0.61,-8.776144659020706e-15,-2.5322821523884802e-14,1.1796510206486735e-14
3.5925168991088867,0.15,-0.0,9.84,0.0,0.0,0.0,0.01,-0.0,0.79,0.61,-8.776144659020706e-15,-2.5322821523884802e-14,1.1796510206486735e-14
3.5929582118988037,0.15,0.04,9.84,0.0,0.0,0.0,0.01,-0.0,0.79,0.61,-8.776144659020706e-15,-2.5322821523884802e-14,1.1796510206486735e-14
3.5933690071105957,0.15,0.04,9.84,0.0,0.0,0.0,0.01,-0.0,0.79,0.61,-8.776144659020706e-15,-2.5322821523884802e-14,1.1796510206486735e-14
3.5938899517059326,0.15,0.04,9.84,0.0,0.0,0.0,0.01,-0.0,0.79,0.61,-8.776144659020706e-15,-2.5322821523884802e-14,1.1796510206486735e-14
3.594332695007324,0.15,0.04,9.84,0.0,0.0,0.0,0.01,-0.0,0.79,0.61,-8.776144659020706e-15,-2.5322821523884802e-14,1.1796510206486735e-14
3.5950334072113037,0.15,0.04,9.84,0.0,0.0,0.0,0.01,-0.0,0.79,0.61,-8.776144659020706e-15,-2.5322821523884802e-14,1.1796510206486735e-14
3.595494508743286,0.15,0.04,9.84,0.0,0.0,0.0,0.01,-0.0,0.79,0.61,-8.776144659020706e-15,-2.5322821523884802e-14,1.1796510206486735e-14
3.5963592529296875,0.15,0.04,9.84,0.0,0.0,0.0,0.01,-0.0,0.79,0.61,-8.776144659020706e-15,-2.5322821523884802e-14,1.1796510206486735e-14
3.596836566925049,0.15,0.04,9.84,0.0,0.0,0.0,0.01,-0.0,0.79,0.61,-8.776144659020706e-15,-2.5322821523884802e-14,1.1796510206486735e-14
3.597254514694214,0.15,0.04,9.84,0.0,0.0,0.0,0.01,-0.0,0.79,0.61,-8.776144659020706e-15,-2.5322821523884802e-14,1.1796510206486735e-14
3.59877872467041,0.15,0.04,9.84,0.0,0.0,0.0,0.01,-0.0,0.79,0.61,-8.776144659020706e-15,-2.5322821523884802e-14,1.1796510206486735e-14
3.6725826263427734,0.15,0.04,9.84,0.0,0.0,0.0,0.01,-0.0,0.79,0.61,-8.776144659020706e-15,-2.5322821523884802e-14,1.1796510206486735e-14
3.7412097454071045,0.15,0.04,9.84,0.0,0.0,0.0,0.01,-0.0,0.79,0.61,-8.776144659020706e-15,-2.5322821523884802e-14,1.1796510206486735e-14
3.7419378757476807,0.15,0.11,9.8,0.0,0.0,0.0,0.01,-0.0,0.79,0.61,-8.776144659020706e-15,-2.5322821523884802e-14,1.1796510206486735e-14
3.7424843311309814,0.15,0.11,9.8,0.0,0.0,0.0,0.01,-0.0,0.79,0.61,-8.776144659020706e-15,-2.5322821523884802e-14,1.1796510206486735e-14
3.7429332733154297,0.15,0.11,9.8,0.0,0.0,0.0,0.01,-0.0,0.79,0.61,-8.776144659020706e-15,-2.5322821523884802e-14,1.1796510206486735e-14
3.7434158325195312,0.15,0.11,9.8,0.0,0.0,0.0,0.01,-0.0,0.79,0.61,-8.776144659020706e-15,-2.5322821523884802e-14,1.1796510206486735e-14
3.7438535690307617,0.15,0.11,9.8,0.0,0.0,0.0,0.01,-0.0,0.79,0.61,-8.776144659020706e-15,-2.5322821523884802e-14,1.1796510206486735e-14
3.7442805767059326,0.15,0.11,9.8,0.0,0.0,0.0,0.01,-0.0,0.79,0.61,-8.776144659020706e-15,-2.5322821523884802e-14,1.1796510206486735e-14
3.7448244094848633,0.15,0.11,9.8,0.0,0.0,0.0,0.01,-0.0,0.79,0.61,-8.776144659020706e-15,-2.5322821523884802e-14,1.1796510206486735e-14
3.7453391551971436,0.15,0.11,9.8,0.0,0.0,0.0,0.01,-0.0,0.79,0.61,-8.776144659020706e-15,-2.5322821523884802e-14,1.1796510206486735e-14
3.7457733154296875,0.15,0.11,9.8,0.0,0.0,0.0,0.01,-0.0,0.79,0.61,-8.776144659020706e-15,-2.5322821523884802e-14,1.1796510206486735e-14
3.7462639808654785,0.15,0.11,9.8,0.0,0.0,0.0,0.01,-0.0,0.79,0.61,-8.776144659020706e-15,-2.5322821523884802e-14,1.1796510206486735e-14
3.746783971786499,0.19,-0.0,9.88,0.0,0.0,0.0,0.01,-0.0,0.79,0.61,-8.776144659020706e-15,-2.5322821523884802e-14,1.1796510206486735e-14
3.7475779056549072,0.19,-0.0,9.88,0.0,0.0,0.0,0.01,-0.0,0.79,0.61,-8.776144659020706e-15,-2.5322821523884802e-14,1.1796510206486735e-14
3.7480223178863525,0.19,-0.0,9.88,0.0,0.0,0.0,0.01,-0.0,0.79,0.61,-8.776144659020706e-15,-2.5322821523884802e-14,1.1796510206486735e-14
3.748457193374634,0.19,-0.0,9.88,0.0,0.0,0.0,0.01,-0.0,0.79,0.61,-8.776144659020706e-15,-2.5322821523884802e-14,1.1796510206486735e-14
3.7488434314727783,0.19,-0.0,9.88,0.0,0.0,0.0,0.01,-0.0,0.79,0.61,-8.776144659020706e-15,-2.5322821523884802e-14,1.1796510206486735e-14
3.749216318130493,0.19,-0.0,9.88,0.0,0.0,0.0,0.01,-0.0,0.79,0.61,-8.776144659020706e-15,-2.5322821523884802e-14,1.1796510206486735e-14
3.7496562004089355,0.19,-0.0,9.88,0.0,0.0,0.0,0.01,-0.0,0.79,0.61,-8.776144659020706e-15,-2.5322821523884802e-14,1.1796510206486735e-14
3.7500829696655273,0.19,-0.0,9.88,0.0,0.0,0.0,0.01,-0.0,0.79,0.61,-8.776144659020706e-15,-2.5322821523884802e-14,1.1796510206486735e-14
3.7509586811065674,0.07,0.07,9.76,0.0,0.0,0.0,0.01,-0.0,0.79,0.61,-8.776144659020706e-15,-2.5322821523884802e-14,1.1796510206486735e-14
3.751614570617676,0.07,0.07,9.76,0.0,0.0,0.0,0.01,-0.0,0.79,0.61,-8.776144659020706e-15,-2.5322821523884802e-14,1.1796510206486735e-14
3.8153772354125977,0.07,0.07,9.76,0.0,0.0,0.0,0.01,-0.0,0.79,0.61,-8.776144659020706e-15,-2.5322821523884802e-14,1.1796510206486735e-14
3.816185474395752,0.07,0.07,9.76,0.0,0.0,0.0,0.01,-0.0,0.79,0.61,-8.776144659020706e-15,-2.5322821523884802e-14,1.1796510206486735e-14
3.8167343139648438,0.07,0.07,9.76,0.0,0.0,0.0,0.01,-0.0,0.79,0.61,-8.776144659020706e-15,-2.5322821523884802e-14,1.1796510206486735e-14
3.8172483444213867,0.07,0.07,9.76,0.0,0.0,0.0,0.01,-0.0,0.79,0.61,-8.776144659020706e-15,-2.5322821523884802e-14,1.1796510206486735e-14
3.8178842067718506,0.15,-0.0,9.84,0.0,0.0,0.0,0.01,-0.0,0.79,0.61,-8.776144659020706e-15,-2.5322821523884802e-14,1.1796510206486735e-14
3.818284749984741,0.15,-0.0,9.84,0.0,0.0,0.0,0.01,-0.0,0.79,0.61,-8.776144659020706e-15,-2.5322821523884802e-14,1.1796510206486735e-14
3.818925619125366,0.15,-0.0,9.84,0.0,0.0,0.0,0.01,-0.0,0.79,0.61,-8.776144659020706e-15,-2.5322821523884802e-14,1.1796510206486735e-14
3.8196582794189453,0.15,-0.0,9.84,0.0,0.0,0.0,0.01,-0.0,0.79,0.61,-8.776144659020706e-15,-2.5322821523884802e-14,1.1796510206486735e-14
3.820127010345459,0.15,-0.0,9.84,0.0,0.0,0.0,0.01,-0.0,0.79,0.61,-8.776144659020706e-15,-2.5322821523884802e-14,1.1796510206486735e-14
3.820549249649048,0.15,-0.0,9.84,0.0,0.0,0.0,0.01,-0.0,0.79,0.61,-8.776144659020706e-15,-2.5322821523884802e-14,1.1796510206486735e-14
3.821021318435669,0.15,-0.0,9.84,0.0,0.0,0.0,0.01,-0.0,0.79,0.61,-8.776144659020706e-15,-2.5322821523884802e-14,1.1796510206486735e-14
3.8214447498321533,0.15,-0.0,9.84,0.0,0.0,0.0,0.01,-0.0,0.79,0.61,-8.776144659020706e-15,-2.5322821523884802e-14,1.1796510206486735e-14
3.8218584060668945,0.15,-0.0,9.84,0.0,0.0,0.0,0.01,-0.0,0.79,0.61,-8.776144659020706e-15,-2.5322821523884802e-14,1.1796510206486735e-14
3.8224329948425293,0.15,-0.0,9.84,0.0,0.0,0.0,0.01,-0.0,0.79,0.61,-8.776144659020706e-15,-2.5322821523884802e-14,1.1796510206486735e-14
3.822838306427002,0.15,0.07,9.8,0.0,0.0,0.0,0.01,-0.0,0.79,0.61,-8.776144659020706e-15,-2.5322821523884802e-14,1.1796510206486735e-14
3.8232719898223877,0.15,0.07,9.8,0.0,0.0,0.0,0.01,-0.0,0.79,0.61,-8.776144659020706e-15,-2.5322821523884802e-14,1.1796510206486735e-14
3.823699474334717,0.15,0.07,9.8,0.0,0.0,0.0,0.01,-0.0,0.79,0.61,-8.776144659020706e-15,-2.5322821523884802e-14,1.1796510206486735e-14
3.824122905731201,0.15,0.07,9.8,0.0,0.0,0.0,0.01,-0.0,0.79,0.61,-8.776144659020706e-15,-2.5322821523884802e-14,1.1796510206486735e-14
3.8245649337768555,0.15,0.07,9.8,0.0,0.0,0.0,0.01,-0.0,0.79,0.61,-8.776144659020706e-15,-2.5322821523884802e-14,1.1796510206486735e-14
3.824984073638916,0.15,0.07,9.8,0.0,0.0,0.0,0.01,-0.0,0.79,0.61,-8.776144659020706e-15,-2.5322821523884802e-14,1.1796510206486735e-14
3.825455904006958,0.19,-0.0,9.8,0.0,0.0,0.0,0.01,-0.0,0.79,0.61,-8.776144659020706e-15,-2.5322821523884802e-14,1.1796510206486735e-14
3.8259291648864746,0.19,-0.0,9.8,0.0,0.0,0.0,0.01,-0.0,0.79,0.61,-8.776144659020706e-15,-2.5322821523884802e-14,1.1796510206486735e-14
3.8263919353485107,0.19,-0.0,9.8,0.0,0.0,0.0,0.01,-0.0,0.79,0.61,-8.776144659020706e-15,-2.5322821523884802e-14,1.1796510206486735e-14
3.8268585205078125,0.19,-0.0,9.8,0.0,0.0,0.0,0.01,-0.0,0.79,0.61,-8.776144659020706e-15,-2.5322821523884802e-14,1.1796510206486735e-14
3.827357769012451,0.19,-0.0,9.8,0.0,0.0,0.0,0.01,-0.0,0.79,0.61,-8.776144659020706e-15,-2.5322821523884802e-14,1.1796510206486735e-14
3.8279502391815186,0.19,-0.0,9.8,0.0,0.0,0.0,0.01,-0.0,0.79,0.61,-8.776144659020706e-15,-2.5322821523884802e-14,1.1796510206486735e-14
3.828554153442383,0.19,-0.0,9.8,0.0,0.0,0.0,0.01,-0.0,0.79,0.61,-8.776144659020706e-15,-2.5322821523884802e-14,1.1796510206486735e-14
3.8289718627929688,0.19,-0.0,9.8,0.0,0.0,0.0,0.01,-0.0,0.79,0.61,-8.776144659020706e-15,-2.5322821523884802e-14,1.1796510206486735e-14
3.900644063949585,0.15,-0.08,9.84,0.0,0.0,0.0,0.01,-0.0,0.79,0.61,-8.776144659020706e-15,-2.5322821523884802e-14,1.1796510206486735e-14
3.9016289710998535,0.15,-0.08,9.84,0.0,0.0,0.0,0.01,-0.0,0.79,0.61,-8.776144659020706e-15,-2.5322821523884802e-14,1.1796510206486735e-14
3.9025697708129883,0.15,-0.08,9.84,0.0,0.0,0.0,0.01,-0.0,0.79,0.61,-8.776144659020706e-15,-2.5322821523884802e-14,1.1796510206486735e-14
3.903416395187378,0.15,-0.08,9.84,0.0,0.0,0.0,0.01,-0.0,0.79,0.61,-8.776144659020706e-15,-2.5322821523884802e-14,1.1796510206486735e-14
3.9039463996887207,0.15,-0.08,9.84,0.0,0.0,0.0,0.01,-0.0,0.79,0.61,-8.776144659020706e-15,-2.5322821523884802e-14,1.1796510206486735e-14
3.90433931350708,0.15,-0.08,9.84,0.0,0.0,0.0,0.01,-0.0,0.79,0.61,-8.776144659020706e-15,-2.5322821523884802e-14,1.1796510206486735e-14
3.9050092697143555,0.15,-0.08,9.84,0.0,0.0,0.0,0.01,-0.0,0.79,0.61,-8.776144659020706e-15,-2.5322821523884802e-14,1.1796510206486735e-14
3.9057490825653076,0.15,-0.08,9.84,0.0,0.0,0.0,0.01,-0.0,0.79,0.61,-8.776144659020706e-15,-2.5322821523884802e-14,1.1796510206486735e-14
3.9064276218414307,0.15,0.04,9.72,0.0,0.0,0.0,0.01,-0.0,0.79,0.61,-8.776144659020706e-15,-2.5322821523884802e-14,1.1796510206486735e-14
3.9073681831359863,0.15,0.04,9.72,0.0,0.0,0.0,0.01,-0.0,0.79,0.61,-8.776144659020706e-15,-2.5322821523884802e-14,1.1796510206486735e-14
3.907853364944458,0.15,0.04,9.72,0.0,0.0,0.0,0.01,-0.0,0.79,0.61,-8.776144659020706e-15,-2.5322821523884802e-14,1.1796510206486735e-14
3.908254384994507,0.15,0.04,9.72,0.0,0.0,0.0,0.01,-0.0,0.79,0.61,-8.776144659020706e-15,-2.5322821523884802e-14,1.1796510206486735e-14
3.9087071418762207,0.15,0.04,9.72,0.0,0.0,0.0,0.01,-0.0,0.79,0.61,-8.776144659020706e-15,-2.5322821523884802e-14,1.1796510206486735e-14
3.9092857837677,0.15,0.04,9.72,0.0,0.0,0.0,0.01,-0.0,0.79,0.61,-8.776144659020706e-15,-2.5322821523884802e-14,1.1796510206486735e-14
3.909719467163086,0.15,0.04,9.72,0.0,0.0,0.0,0.01,-0.0,0.79,0.61,-8.776144659020706e-15,-2.5322821523884802e-14,1.1796510206486735e-14
3.910125970840454,0.15,0.04,9.72,0.0,0.0,0.0,0.01,-0.0,0.79,0.61,-8.776144659020706e-15,-2.5322821523884802e-14,1.1796510206486735e-14
3.9106833934783936,0.19,-0.0,9.8,0.0,0.0,0.0,0.01,-0.0,0.79,0.61,-8.776144659020706e-15,-2.5322821523884802e-14,1.1796510206486735e-14
3.9113247394561768,0.19,-0.0,9.8,0.0,0.0,0.0,0.01,-0.0,0.79,0.61,-8.776144659020706e-15,-2.5322821523884802e-14,1.1796510206486735e-14
3.912001609802246,0.19,-0.0,9.8,0.0,0.0,0.0,0.01,-0.0,0.79,0.61,-8.776144659020706e-15,-2.5322821523884802e-14,1.1796510206486735e-14
3.977304220199585,0.19,-0.0,9.8,0.0,0.0,0.0,0.01,-0.0,0.79,0.61,-8.776144659020706e-15,-2.5322821523884802e-14,1.1796510206486735e-14
3.978835344314575,0.19,-0.0,9.8,0.0,0.0,0.0,0.01,-0.0,0.79,0.61,-8.776144659020706e-15,-2.5322821523884802e-14,1.1796510206486735e-14
3.979480028152466,0.19,-0.0,9.8,0.0,0.0,0.0,0.01,-0.0,0.79,0.61,-8.776144659020706e-15,-2.5322821523884802e-14,1.1796510206486735e-14
3.9800238609313965,0.19,-0.0,9.8,0.0,0.0,0.0,0.01,-0.0,0.79,0.61,-8.776144659020706e-15,-2.5322821523884802e-14,1.1796510206486735e-14
3.980454921722412,0.19,-0.0,9.8,0.0,0.0,0.0,0.01,-0.0,0.79,0.61,-8.776144659020706e-15,-2.5322821523884802e-14,1.1796510206486735e-14
3.980909824371338,0.19,-0.04,9.84,0.0,0.0,0.0,0.01,-0.0,0.79,0.61,-8.776144659020706e-15,-2.5322821523884802e-14,1.1796510206486735e-14
4.049001932144165,0.19,-0.04,9.84,0.0,0.0,0.0,0.01,-0.0,0.79,0.61,-8.776144659020706e-15,-2.5322821523884802e-14,1.1796510206486735e-14
4.049858093261719,0.19,-0.04,9.84,0.0,0.0,0.0,0.01,-0.0,0.79,0.61,-8.776144659020706e-15,-2.5322821523884802e-14,1.1796510206486735e-14
4.050498723983765,0.19,-0.04,9.84,0.0,0.0,0.0,0.01,-0.0,0.79,0.61,-8.776144659020706e-15,-2.5322821523884802e-14,1.1796510206486735e-14
4.051028490066528,0.19,-0.04,9.84,0.0,0.0,0.0,0.01,-0.0,0.79,0.61,-8.776144659020706e-15,-2.5322821523884802e-14,1.1796510206486735e-14
4.051468849182129,0.19,-0.04,9.84,0.0,0.0,0.0,0.01,-0.0,0.79,0.61,-8.776144659020706e-15,-2.5322821523884802e-14,1.1796510206486735e-14
4.052124977111816,0.19,-0.04,9.84,0.0,0.0,0.0,0.01,-0.0,0.79,0.61,-8.776144659020706e-15,-2.5322821523884802e-14,1.1796510206486735e-14
4.052544832229614,0.19,-0.04,9.84,0.0,0.0,0.0,0.01,-0.0,0.79,0.61,-8.776144659020706e-15,-2.5322821523884802e-14,1.1796510206486735e-14
4.05296778678894,0.19,-0.04,9.84,0.0,0.0,0.0,0.01,-0.0,0.79,0.61,-8.776144659020706e-15,-2.5322821523884802e-14,1.1796510206486735e-14
4.053416728973389,0.19,-0.04,9.84,0.0,0.0,0.0,0.01,-0.0,0.79,0.61,-8.776144659020706e-15,-2.5322821523884802e-14,1.1796510206486735e-14
4.053886413574219,0.15,-0.08,9.84,0.0,0.0,0.0,0.01,-0.0,0.79,0.61,-8.776144659020706e-15,-2.5322821523884802e-14,1.1796510206486735e-14
4.05432653427124,0.15,-0.08,9.84,0.0,0.0,0.0,0.01,-0.0,0.79,0.61,-8.776144659020706e-15,-2.5322821523884802e-14,1.1796510206486735e-14
4.05475378036499,0.15,-0.08,9.84,0.0,0.0,0.0,0.01,-0.0,0.79,0.61,-8.776144659020706e-15,-2.5322821523884802e-14,1.1796510206486735e-14
4.0551581382751465,0.15,-0.08,9.84,0.0,0.0,0.0,0.01,-0.0,0.79,0.61,-8.776144659020706e-15,-2.5322821523884802e-14,1.1796510206486735e-14
4.055695533752441,0.15,-0.08,9.84,0.0,0.0,0.0,0.01,-0.0,0.79,0.61,-8.776144659020706e-15,-2.5322821523884802e-14,1.1796510206486735e-14
4.056183815002441,0.15,-0.08,9.84,0.0,0.0,0.0,0.01,-0.0,0.79,0.61,-8.776144659020706e-15,-2.5322821523884802e-14,1.1796510206486735e-14
4.056607723236084,0.15,-0.08,9.84,0.0,0.0,0.0,0.01,-0.0,0.79,0.61,-8.776144659020706e-15,-2.5322821523884802e-14,1.1796510206486735e-14
4.110746383666992,0.15,-0.08,9.84,0.0,0.0,0.0,0.01,-0.0,0.79,0.61,-8.776144659020706e-15,-2.5322821523884802e-14,1.1796510206486735e-14
4.111643552780151,0.15,-0.08,9.84,0.0,0.0,0.0,0.01,-0.0,0.79,0.61,-8.776144659020706e-15,-2.5322821523884802e-14,1.1796510206486735e-14
4.1121861934661865,0.15,-0.08,9.84,0.0,0.0,0.0,0.01,-0.0,0.79,0.61,-8.776144659020706e-15,-2.5322821523884802e-14,1.1796510206486735e-14
4.1126179695129395,0.15,-0.08,9.84,0.0,0.0,0.0,0.01,-0.0,0.79,0.61,-8.776144659020706e-15,-2.5322821523884802e-14,1.1796510206486735e-14
4.1130359172821045,0.15,-0.08,9.84,0.0,0.0,0.0,0.01,-0.0,0.79,0.61,-8.776144659020706e-15,-2.5322821523884802e-14,1.1796510206486735e-14
4.113511800765991,0.11,-0.0,9.84,0.0,0.0,0.0,0.01,-0.0,0.79,0.61,-8.776144659020706e-15,-2.5322821523884802e-14,1.1796510206486735e-14
4.1139161586761475,0.11,-0.0,9.84,0.0,0.0,0.0,0.01,-0.0,0.79,0.61,-8.776144659020706e-15,-2.5322821523884802e-14,1.1796510206486735e-14
4.114450693130493,0.11,-0.0,9.84,0.0,0.0,0.0,0.01,-0.0,0.79,0.61,-8.776144659020706e-15,-2.5322821523884802e-14,1.1796510206486735e-14
4.114850282669067,0.11,-0.0,9.84,0.0,0.0,0.0,0.01,-0.0,0.79,0.61,-8.776144659020706e-15,-2.5322821523884802e-14,1.1796510206486735e-14
4.172165155410767,0.11,-0.0,9.84,0.0,0.0,0.0,0.01,-0.0,0.79,0.61,-8.776144659020706e-15,-2.5322821523884802e-14,1.1796510206486735e-14
4.172846078872681,0.11,-0.0,9.84,0.0,0.0,0.0,0.01,-0.0,0.79,0.61,-8.776144659020706e-15,-2.5322821523884802e-14,1.1796510206486735e-14
4.173344135284424,0.15,0.04,9.84,0.0,0.0,0.0,0.01,-0.0,0.79,0.61,-8.776144659020706e-15,-2.5322821523884802e-14,1.1796510206486735e-14
4.17382025718689,0.15,0.04,9.84,0.0,0.0,0.0,0.01,-0.0,0.79,0.61,-8.776144659020706e-15,-2.5322821523884802e-14,1.1796510206486735e-14
4.174276351928711,0.15,0.04,9.84,0.0,0.0,0.0,0.01,-0.0,0.79,0.61,-8.776144659020706e-15,-2.5322821523884802e-14,1.1796510206486735e-14
4.174734115600586,0.15,0.04,9.84,0.0,0.0,0.0,0.01,-0.0,0.79,0.61,-8.776144659020706e-15,-2.5322821523884802e-14,1.1796510206486735e-14
4.175170660018921,0.15,0.04,9.84,0.0,0.0,0.0,0.01,-0.0,0.79,0.61,-8.776144659020706e-15,-2.5322821523884802e-14,1.1796510206486735e-14
4.1756298542022705,0.15,0.04,9.84,0.0,0.0,0.0,0.01,-0.0,0.79,0.61,-8.776144659020706e-15,-2.5322821523884802e-14,1.1796510206486735e-14
4.176168918609619,0.15,0.04,9.84,0.0,0.0,0.0,0.01,-0.0,0.79,0.61,-8.776144659020706e-15,-2.5322821523884802e-14,1.1796510206486735e-14
4.1766650676727295,0.15,0.04,9.84,0.0,0.0,0.0,0.01,-0.0,0.79,0.61,-8.776144659020706e-15,-2.5322821523884802e-14,1.1796510206486735e-14
4.177248477935791,0.15,0.04,9.84,0.0,0.0,0.0,0.01,-0.0,0.79,0.61,-8.776144659020706e-15,-2.5322821523884802e-14,1.1796510206486735e-14
4.178055047988892,0.15,0.04,9.84,0.0,0.0,0.0,0.01,-0.0,0.79,0.61,-8.776144659020706e-15,-2.5322821523884802e-14,1.1796510206486735e-14
4.178573369979858,0.11,0.04,9.84,0.0,0.0,0.0,0.01,-0.0,0.79,0.61,-8.776144659020706e-15,-2.5322821523884802e-14,1.1796510206486735e-14
4.233813524246216,0.11,0.04,9.84,0.0,0.0,0.0,0.01,-0.0,0.79,0.61,-8.776144659020706e-15,-2.5322821523884802e-14,1.1796510206486735e-14
4.234546184539795,0.11,0.04,9.84,0.0,0.0,0.0,0.01,-0.0,0.79,0.61,-8.776144659020706e-15,-2.5322821523884802e-14,1.1796510206486735e-14
4.235104322433472,0.11,0.04,9.84,0.0,0.0,0.0,0.01,-0.0,0.79,0.61,-8.776144659020706e-15,-2.5322821523884802e-14,1.1796510206486735e-14
4.235944747924805,0.11,0.04,9.84,0.0,0.0,0.0,0.01,-0.0,0.79,0.61,-8.776144659020706e-15,-2.5322821523884802e-14,1.1796510206486735e-14
4.236417055130005,0.11,0.04,9.84,0.0,0.0,0.0,0.01,-0.0,0.79,0.61,-8.776144659020706e-15,-2.5322821523884802e-14,1.1796510206486735e-14
4.236852645874023,0.11,0.04,9.84,0.0,0.0,0.0,0.01,-0.0,0.79,0.61,-8.776144659020706e-15,-2.5322821523884802e-14,1.1796510206486735e-14
4.237255334854126,0.11,0.04,9.84,0.0,0.0,0.0,0.01,-0.0,0.79,0.61,-8.776144659020706e-15,-2.5322821523884802e-14,1.1796510206486735e-14
4.237789869308472,0.11,0.04,9.84,0.0,0.0,0.0,0.01,-0.0,0.79,0.61,-8.776144659020706e-15,-2.5322821523884802e-14,1.1796510206486735e-14
4.238254547119141,0.11,0.04,9.84,0.0,0.0,0.0,0.01,-0.0,0.79,0.61,-8.776144659020706e-15,-2.5322821523884802e-14,1.1796510206486735e-14
4.238750457763672,0.11,0.04,9.84,0.0,0.0,0.0,0.01,-0.0,0.79,0.61,-8.776144659020706e-15,-2.5322821523884802e-14,1.1796510206486735e-14
4.239179611206055,0.11,0.04,9.84,0.0,0.0,0.0,0.01,-0.0,0.79,0.61,-8.776144659020706e-15,-2.5322821523884802e-14,1.1796510206486735e-14
4.239622116088867,0.19,-0.04,9.88,0.0,0.0,0.0,0.01,-0.0,0.79,0.61,-8.776144659020706e-15,-2.5322821523884802e-14,1.1796510206486735e-14
4.240027189254761,0.19,-0.04,9.88,0.0,0.0,0.0,0.01,-0.0,0.79,0.61,-8.776144659020706e-15,-2.5322821523884802e-14,1.1796510206486735e-14
4.240462064743042,0.19,-0.04,9.88,0.0,0.0,0.0,0.01,-0.0,0.79,0.61,-8.776144659020706e-15,-2.5322821523884802e-14,1.1796510206486735e-14
4.24093222618103,0.19,-0.04,9.88,0.0,0.0,0.0,0.01,-0.0,0.79,0.61,-8.776144659020706e-15,-2.5322821523884802e-14,1.1796510206486735e-14
4.2414586544036865,0.19,-0.04,9.88,0.0,0.0,0.0,0.01,-0.0,0.79,0.61,-8.776144659020706e-15,-2.5322821523884802e-14,1.1796510206486735e-14
4.241948127746582,0.19,-0.04,9.88,0.0,0.0,0.0,0.01,-0.0,0.79,0.61,-8.776144659020706e-15,-2.5322821523884802e-14,1.1796510206486735e-14
4.242386341094971,0.19,-0.04,9.88,0.0,0.0,0.0,0.01,-0.0,0.79,0.61,-8.776144659020706e-15,-2.5322821523884802e-14,1.1796510206486735e-14
4.2427942752838135,0.19,-0.04,9.88,0.0,0.0,0.0,0.01,-0.0,0.79,0.61,-8.776144659020706e-15,-2.5322821523884802e-14,1.1796510206486735e-14
4.243245363235474,0.15,-0.08,9.8,0.0,0.0,0.0,0.01,-0.0,0.79,0.61,-8.776144659020706e-15,-2.5322821523884802e-14,1.1796510206486735e-14
4.243897199630737,0.15,-0.08,9.8,0.0,0.0,0.0,0.01,-0.0,0.79,0.61,-8.776144659020706e-15,-2.5322821523884802e-14,1.1796510206486735e-14
4.30384373664856,0.15,-0.08,9.8,0.0,0.0,0.0,0.01,-0.0,0.79,0.61,-8.776144659020706e-15,-2.5322821523884802e-14,1.1796510206486735e-14
4.304550409317017,0.15,-0.08,9.8,0.0,0.0,0.0,0.01,-0.0,0.79,0.61,-8.776144659020706e-15,-2.5322821523884802e-14,1.1796510206486735e-14
4.305041074752808,0.15,-0.08,9.8,0.0,0.0,0.0,0.01,-0.0,0.79,0.61,-8.776144659020706e-15,-2.5322821523884802e-14,1.1796510206486735e-14
4.3054890632629395,0.15,-0.08,9.8,0.0,0.0,0.0,0.01,-0.0,0.79,0.61,-8.776144659020706e-15,-2.5322821523884802e-14,1.1796510206486735e-14
4.305910348892212,0.15,-0.08,9.8,0.0,0.0,0.0,0.01,-0.0,0.79,0.61,-8.776144659020706e-15,-2.5322821523884802e-14,1.1796510206486735e-14
4.306342363357544,0.15,-0.08,9.8,0.0,0.0,0.0,0.01,-0.0,0.79,0.61,-8.776144659020706e-15,-2.5322821523884802e-14,1.1796510206486735e-14
4.306783437728882,0.19,-0.04,9.88,0.0,0.0,0.0,0.01,-0.0,0.79,0.61,-8.776144659020706e-15,-2.5322821523884802e-14,1.1796510206486735e-14
4.307175159454346,0.19,-0.04,9.88,0.0,0.0,0.0,0.01,-0.0,0.79,0.61,-8.776144659020706e-15,-2.5322821523884802e-14,1.1796510206486735e-14
4.307732105255127,0.19,-0.04,9.88,0.0,0.0,0.0,0.01,-0.0,0.79,0.61,-8.776144659020706e-15,-2.5322821523884802e-14,1.1796510206486735e-14
4.308145523071289,0.19,-0.04,9.88,0.0,0.0,0.0,0.01,-0.0,0.79,0.61,-8.776144659020706e-15,-2.5322821523884802e-14,1.1796510206486735e-14
4.308546781539917,0.19,-0.04,9.88,0.0,0.0,0.0,0.01,-0.0,0.79,0.61,-8.776144659020706e-15,-2.5322821523884802e-14,1.1796510206486735e-14
4.309008359909058,0.19,-0.04,9.88,0.0,0.0,0.0,0.01,-0.0,0.79,0.61,-8.776144659020706e-15,-2.5322821523884802e-14,1.1796510206486735e-14
4.309418201446533,0.15,-0.0,9.76,0.0,0.0,0.0,0.01,-0.0,0.79,0.61,-8.776144659020706e-15,-2.5322821523884802e-14,1.1796510206486735e-14
4.309859275817871,0.15,-0.0,9.76,0.0,0.0,0.0,0.01,-0.0,0.79,0.61,-8.776144659020706e-15,-2.5322821523884802e-14,1.1796510206486735e-14
4.310584783554077,0.15,-0.0,9.76,0.0,0.0,0.0,0.01,-0.0,0.79,0.61,-8.776144659020706e-15,-2.5322821523884802e-14,1.1796510206486735e-14
4.311605930328369,0.15,-0.0,9.76,0.0,0.0,0.0,0.01,-0.0,0.79,0.61,-8.776144659020706e-15,-2.5322821523884802e-14,1.1796510206486735e-14
4.312273740768433,0.15,-0.0,9.76,0.0,0.0,0.0,0.01,-0.0,0.79,0.61,-8.776144659020706e-15,-2.5322821523884802e-14,1.1796510206486735e-14
4.313095808029175,0.15,-0.0,9.76,0.0,0.0,0.0,0.01,-0.0,0.79,0.61,-8.776144659020706e-15,-2.5322821523884802e-14,1.1796510206486735e-14
4.313507080078125,0.15,-0.0,9.76,0.0,0.0,0.0,0.01,-0.0,0.79,0.61,-8.776144659020706e-15,-2.5322821523884802e-14,1.1796510206486735e-14
4.3766303062438965,0.15,-0.0,9.76,0.0,0.0,0.0,0.01,-0.0,0.79,0.61,-8.776144659020706e-15,-2.5322821523884802e-14,1.1796510206486735e-14
4.377730131149292,0.15,-0.0,9.76,0.0,0.0,0.0,0.01,-0.0,0.79,0.61,-8.776144659020706e-15,-2.5322821523884802e-14,1.1796510206486735e-14
4.378328084945679,0.15,-0.0,9.76,0.0,0.0,0.0,0.01,-0.0,0.79,0.61,-8.776144659020706e-15,-2.5322821523884802e-14,1.1796510206486735e-14
4.378807067871094,0.11,-0.0,9.76,0.0,0.0,0.0,0.01,-0.0,0.79,0.61,-8.776144659020706e-15,-2.5322821523884802e-14,1.1796510206486735e-14
4.37931227684021,0.11,-0.0,9.76,0.0,0.0,0.0,0.01,-0.0,0.79,0.61,-8.776144659020706e-15,-2.5322821523884802e-14,1.1796510206486735e-14
4.379766225814819,0.11,-0.0,9.76,0.0,0.0,0.0,0.01,-0.0,0.79,0.61,-8.776144659020706e-15,-2.5322821523884802e-14,1.1796510206486735e-14
4.434048175811768,0.11,-0.0,9.76,0.0,0.0,0.0,0.01,-0.0,0.79,0.61,-8.776144659020706e-15,-2.5322821523884802e-14,1.1796510206486735e-14
4.434811115264893,0.11,-0.0,9.76,0.0,0.0,0.0,0.01,-0.0,0.79,0.61,-8.776144659020706e-15,-2.5322821523884802e-14,1.1796510206486735e-14
4.435408353805542,0.11,-0.0,9.76,0.0,0.0,0.0,0.01,-0.0,0.79,0.61,-8.776144659020706e-15,-2.5322821523884802e-14,1.1796510206486735e-14
4.435869216918945,0.11,-0.0,9.76,0.0,0.0,0.0,0.01,-0.0,0.79,0.61,-8.776144659020706e-15,-2.5322821523884802e-14,1.1796510206486735e-14
4.436328172683716,0.11,-0.0,9.76,0.0,0.0,0.0,0.01,-0.0,0.79,0.61,-8.776144659020706e-15,-2.5322821523884802e-14,1.1796510206486735e-14
4.436775207519531,0.11,-0.0,9.76,0.0,0.0,0.0,0.01,-0.0,0.79,0.61,-8.776144659020706e-15,-2.5322821523884802e-14,1.1796510206486735e-14
4.43719744682312,0.11,-0.0,9.76,0.0,0.0,0.0,0.01,-0.0,0.79,0.61,-8.776144659020706e-15,-2.5322821523884802e-14,1.1796510206486735e-14
4.437622308731079,0.11,-0.0,9.76,0.0,0.0,0.0,0.01,-0.0,0.79,0.61,-8.776144659020706e-15,-2.5322821523884802e-14,1.1796510206486735e-14
4.438094139099121,0.11,-0.0,9.76,0.0,0.0,0.0,0.01,-0.0,0.79,0.61,-8.776144659020706e-15,-2.5322821523884802e-14,1.1796510206486735e-14
4.438673734664917,0.15,-0.0,9.88,0.0,0.0,0.0,0.01,-0.0,0.79,0.61,-8.776144659020706e-15,-2.5322821523884802e-14,1.1796510206486735e-14
4.439118146896362,0.15,-0.0,9.88,0.0,0.0,0.0,0.01,-0.0,0.79,0.61,-8.776144659020706e-15,-2.5322821523884802e-14,1.1796510206486735e-14
4.43953013420105,0.15,-0.0,9.88,0.0,0.0,0.0,0.01,-0.0,0.79,0.61,-8.776144659020706e-15,-2.5322821523884802e-14,1.1796510206486735e-14
4.440003871917725,0.15,-0.0,9.88,0.0,0.0,0.0,0.01,-0.0,0.79,0.61,-8.776144659020706e-15,-2.5322821523884802e-14,1.1796510206486735e-14
4.440417289733887,0.15,-0.0,9.88,0.0,0.0,0.0,0.01,-0.0,0.79,0.61,-8.776144659020706e-15,-2.5322821523884802e-14,1.1796510206486735e-14
4.440860271453857,0.15,-0.0,9.88,0.0,0.0,0.0,0.01,-0.0,0.79,0.61,-8.776144659020706e-15,-2.5322821523884802e-14,1.1796510206486735e-14
4.441292762756348,0.15,-0.0,9.88,0.0,0.0,0.0,0.01,-0.0,0.79,0.61,-8.776144659020706e-15,-2.5322821523884802e-14,1.1796510206486735e-14
4.441739559173584,0.15,-0.0,9.88,0.0,0.0,0.0,0.01,-0.0,0.79,0.61,-8.776144659020706e-15,-2.5322821523884802e-14,1.1796510206486735e-14
4.500817537307739,0.15,-0.04,9.84,0.0,0.0,0.0,0.01,-0.0,0.79,0.61,-8.776144659020706e-15,-2.5322821523884802e-14,1.1796510206486735e-14
4.501553535461426,0.15,-0.04,9.84,0.0,0.0,0.0,0.01,-0.0,0.79,0.61,-8.776144659020706e-15,-2.5322821523884802e-14,1.1796510206486735e-14
4.502127647399902,0.15,-0.04,9.84,0.0,0.0,0.0,0.01,-0.0,0.79,0.61,-8.776144659020706e-15,-2.5322821523884802e-14,1.1796510206486735e-14
4.50255560874939,0.15,-0.04,9.84,0.0,0.0,0.0,0.01,-0.0,0.79,0.61,-8.776144659020706e-15,-2.5322821523884802e-14,1.1796510206486735e-14
4.503060817718506,0.15,-0.04,9.84,0.0,0.0,0.0,0.01,-0.0,0.79,0.61,-8.776144659020706e-15,-2.5322821523884802e-14,1.1796510206486735e-14
4.503510236740112,0.15,-0.04,9.84,0.0,0.0,0.0,0.01,-0.0,0.79,0.61,-8.776144659020706e-15,-2.5322821523884802e-14,1.1796510206486735e-14
4.50394082069397,0.15,0.04,9.8,0.0,0.0,0.0,0.01,-0.0,0.79,0.61,-8.776144659020706e-15,-2.5322821523884802e-14,1.1796510206486735e-14
4.504424333572388,0.15,0.04,9.8,0.0,0.0,0.0,0.01,-0.0,0.79,0.61,-8.776144659020706e-15,-2.5322821523884802e-14,1.1796510206486735e-14
4.5048604011535645,0.15,0.04,9.8,0.0,0.0,0.0,0.01,-0.0,0.79,0.61,-8.776144659020706e-15,-2.5322821523884802e-14,1.1796510206486735e-14
4.505270957946777,0.15,0.04,9.8,0.0,0.0,0.0,0.01,-0.0,0.79,0.61,-8.776144659020706e-15,-2.5322821523884802e-14,1.1796510206486735e-14
4.505714654922485,0.15,0.04,9.8,0.0,0.0,0.0,0.01,-0.0,0.79,0.61,-8.776144659020706e-15,-2.5322821523884802e-14,1.1796510206486735e-14
4.506275415420532,0.15,0.04,9.8,0.0,0.0,0.0,0.01,-0.0,0.79,0.61,-8.776144659020706e-15,-2.5322821523884802e-14,1.1796510206486735e-14
4.506855010986328,0.11,0.07,9.76,0.0,0.0,0.0,0.01,-0.0,0.79,0.61,-8.776144659020706e-15,-2.5322821523884802e-14,1.1796510206486735e-14
4.507396936416626,0.11,0.07,9.76,0.0,0.0,0.0,0.01,-0.0,0.79,0.61,-8.776144659020706e-15,-2.5322821523884802e-14,1.1796510206486735e-14
4.507807970046997,0.11,0.07,9.76,0.0,0.0,0.0,0.01,-0.0,0.79,0.61,-8.776144659020706e-15,-2.5322821523884802e-14,1.1796510206486735e-14
4.508212327957153,0.11,0.07,9.76,0.0,0.0,0.0,0.01,-0.0,0.79,0.61,-8.776144659020706e-15,-2.5322821523884802e-14,1.1796510206486735e-14
4.5086588859558105,0.11,0.07,9.76,0.0,0.0,0.0,0.01,-0.0,0.79,0.61,-8.776144659020706e-15,-2.5322821523884802e-14,1.1796510206486735e-14
4.509077548980713,0.11,0.07,9.76,0.0,0.0,0.0,0.01,-0.0,0.79,0.61,-8.776144659020706e-15,-2.5322821523884802e-14,1.1796510206486735e-14
4.509487867355347,0.11,0.07,9.76,0.0,0.0,0.0,0.01,-0.0,0.79,0.61,-8.776144659020706e-15,-2.5322821523884802e-14,1.1796510206486735e-14
4.50993800163269,0.11,0.07,9.76,0.0,0.0,0.0,0.01,-0.0,0.79,0.61,-8.776144659020706e-15,-2.5322821523884802e-14,1.1796510206486735e-14
4.511091947555542,0.11,0.07,9.76,0.0,0.0,0.0,0.01,-0.0,0.79,0.61,-8.776144659020706e-15,-2.5322821523884802e-14,1.1796510206486735e-14
4.5683276653289795,0.11,0.07,9.76,0.0,0.0,0.0,0.01,-0.0,0.79,0.61,-8.776144659020706e-15,-2.5322821523884802e-14,1.1796510206486735e-14
4.569093942642212,0.19,0.07,9.76,0.0,0.0,0.0,0.01,-0.0,0.79,0.61,-8.776144659020706e-15,-2.5322821523884802e-14,1.1796510206486735e-14
4.569642066955566,0.19,0.07,9.76,0.0,0.0,0.0,0.01,-0.0,0.79,0.61,-8.776144659020706e-15,-2.5322821523884802e-14,1.1796510206486735e-14
4.570122003555298,0.19,0.07,9.76,0.0,0.0,0.0,0.01,-0.0,0.79,0.61,-8.776144659020706e-15,-2.5322821523884802e-14,1.1796510206486735e-14
4.5706117153167725,0.19,0.07,9.76,0.0,0.0,0.0,0.01,-0.0,0.79,0.61,-8.776144659020706e-15,-2.5322821523884802e-14,1.1796510206486735e-14
4.629469394683838,0.19,0.07,9.76,0.0,0.0,0.0,0.01,-0.0,0.79,0.61,-8.776144659020706e-15,-2.5322821523884802e-14,1.1796510206486735e-14
4.630235910415649,0.19,0.07,9.76,0.0,0.0,0.0,0.01,-0.0,0.79,0.61,-8.776144659020706e-15,-2.5322821523884802e-14,1.1796510206486735e-14
4.63108491897583,0.19,0.07,9.76,0.0,0.0,0.0,0.01,-0.0,0.79,0.61,-8.776144659020706e-15,-2.5322821523884802e-14,1.1796510206486735e-14
4.631809234619141,0.19,0.07,9.76,0.0,0.0,0.0,0.01,-0.0,0.79,0.61,-8.776144659020706e-15,-2.5322821523884802e-14,1.1796510206486735e-14
4.632320165634155,0.19,0.07,9.76,0.0,0.0,0.0,0.01,-0.0,0.79,0.61,-8.776144659020706e-15,-2.5322821523884802e-14,1.1796510206486735e-14
4.632842540740967,0.19,0.07,9.76,0.0,0.0,0.0,0.01,-0.0,0.79,0.61,-8.776144659020706e-15,-2.5322821523884802e-14,1.1796510206486735e-14
4.633381605148315,0.19,0.07,9.76,0.0,0.0,0.0,0.01,-0.0,0.79,0.61,-8.776144659020706e-15,-2.5322821523884802e-14,1.1796510206486735e-14
4.633868455886841,0.19,0.07,9.76,0.0,0.0,0.0,0.01,-0.0,0.79,0.61,-8.776144659020706e-15,-2.5322821523884802e-14,1.1796510206486735e-14
4.6344664096832275,0.11,0.04,9.76,0.0,0.0,0.0,0.01,-0.0,0.79,0.61,-8.776144659020706e-15,-2.5322821523884802e-14,1.1796510206486735e-14
4.635075807571411,0.11,0.04,9.76,0.0,0.0,0.0,0.01,-0.0,0.79,0.61,-8.776144659020706e-15,-2.5322821523884802e-14,1.1796510206486735e-14
4.635880708694458,0.11,0.04,9.76,0.0,0.0,0.0,0.01,-0.0,0.79,0.61,-8.776144659020706e-15,-2.5322821523884802e-14,1.1796510206486735e-14
4.636345624923706,0.11,0.04,9.76,0.0,0.0,0.0,0.01,-0.0,0.79,0.61,-8.776144659020706e-15,-2.5322821523884802e-14,1.1796510206486735e-14
4.63685154914856,0.11,0.04,9.76,0.0,0.0,0.0,0.01,-0.0,0.79,0.61,-8.776144659020706e-15,-2.5322821523884802e-14,1.1796510206486735e-14
4.637340545654297,0.11,0.04,9.76,0.0,0.0,0.0,0.01,-0.0,0.79,0.61,-8.776144659020706e-15,-2.5322821523884802e-14,1.1796510206486735e-14
4.63776707649231,0.11,-0.0,9.8,0.0,0.0,0.0,0.01,-0.0,0.79,0.61,-8.776144659020706e-15,-2.5322821523884802e-14,1.1796510206486735e-14
4.638349294662476,0.11,-0.0,9.8,0.0,0.0,0.0,0.01,-0.0,0.79,0.61,-8.776144659020706e-15,-2.5322821523884802e-14,1.1796510206486735e-14
4.638798952102661,0.11,-0.0,9.8,0.0,0.0,0.0,0.01,-0.0,0.79,0.61,-8.776144659020706e-15,-2.5322821523884802e-14,1.1796510206486735e-14
4.639240026473999,0.11,-0.0,9.8,0.0,0.0,0.0,0.01,-0.0,0.79,0.61,-8.776144659020706e-15,-2.5322821523884802e-14,1.1796510206486735e-14
4.639889240264893,0.11,-0.0,9.8,0.0,0.0,0.0,0.01,-0.0,0.79,0.61,-8.776144659020706e-15,-2.5322821523884802e-14,1.1796510206486735e-14
4.640331983566284,0.11,-0.0,9.8,0.0,0.0,0.0,0.01,-0.0,0.79,0.61,-8.776144659020706e-15,-2.5322821523884802e-14,1.1796510206486735e-14
4.640758275985718,0.11,-0.0,9.8,0.0,0.0,0.0,0.01,-0.0,0.79,0.61,-8.776144659020706e-15,-2.5322821523884802e-14,1.1796510206486735e-14
4.641230821609497,0.11,-0.0,9.8,0.0,0.0,0.0,0.01,-0.0,0.79,0.61,-8.776144659020706e-15,-2.5322821523884802e-14,1.1796510206486735e-14
4.641675233840942,0.11,-0.0,9.8,0.0,0.0,0.0,0.01,-0.0,0.79,0.61,-8.776144659020706e-15,-2.5322821523884802e-14,1.1796510206486735e-14
4.6420979499816895,0.11,-0.0,9.8,0.0,0.0,0.0,0.01,-0.0,0.79,0.61,-8.776144659020706e-15,-2.5322821523884802e-14,1.1796510206486735e-14
4.7021825313568115,0.15,-0.04,9.88,0.0,0.0,0.0,0.01,-0.0,0.79,0.61,-8.776144659020706e-15,-2.5322821523884802e-14,1.1796510206486735e-14
4.702929258346558,0.15,-0.04,9.88,0.0,0.0,0.0,0.01,-0.0,0.79,0.61,-8.776144659020706e-15,-2.5322821523884802e-14,1.1796510206486735e-14
4.703558444976807,0.15,-0.04,9.88,0.0,0.0,0.0,0.01,-0.0,0.79,0.61,-8.776144659020706e-15,-2.5322821523884802e-14,1.1796510206486735e-14
4.70408034324646,0.15,-0.04,9.88,0.0,0.0,0.0,0.01,-0.0,0.79,0.61,-8.776144659020706e-15,-2.5322821523884802e-14,1.1796510206486735e-14
4.704495906829834,0.15,-0.04,9.88,0.0,0.0,0.0,0.01,-0.0,0.79,0.61,-8.776144659020706e-15,-2.5322821523884802e-14,1.1796510206486735e-14
4.7049431800842285,0.15,-0.04,9.88,0.0,0.0,0.0,0.01,-0.0,0.79,0.61,-8.776144659020706e-15,-2.5322821523884802e-14,1.1796510206486735e-14
4.7627809047698975,0.19,-0.04,9.8,0.0,0.0,0.0,0.01,-0.0,0.79,0.61,-8.776144659020706e-15,-2.5322821523884802e-14,1.1796510206486735e-14
4.7637927532196045,0.19,-0.04,9.8,0.0,0.0,0.0,0.01,-0.0,0.79,0.61,-8.776144659020706e-15,-2.5322821523884802e-14,1.1796510206486735e-14
4.764409065246582,0.19,-0.04,9.8,0.0,0.0,0.0,0.01,-0.0,0.79,0.61,-8.776144659020706e-15,-2.5322821523884802e-14,1.1796510206486735e-14
4.765111923217773,0.19,-0.04,9.8,0.0,0.0,0.0,0.01,-0.0,0.79,0.61,-8.776144659020706e-15,-2.5322821523884802e-14,1.1796510206486735e-14
4.766907453536987,0.19,-0.04,9.8,0.0,0.0,0.0,0.01,-0.0,0.79,0.61,-8.776144659020706e-15,-2.5322821523884802e-14,1.1796510206486735e-14
4.7687084674835205,0.19,-0.04,9.8,0.0,0.0,0.0,0.01,-0.0,0.79,0.61,-8.776144659020706e-15,-2.5322821523884802e-14,1.1796510206486735e-14
4.770359516143799,0.19,-0.04,9.8,0.0,0.0,0.0,0.01,-0.0,0.79,0.61,-8.776144659020706e-15,-2.5322821523884802e-14,1.1796510206486735e-14
4.771837949752808,0.19,-0.04,9.8,0.0,0.0,0.0,0.01,-0.0,0.79,0.61,-8.776144659020706e-15,-2.5322821523884802e-14,1.1796510206486735e-14
4.773229598999023,0.19,0.04,9.8,0.0,0.0,0.0,0.01,-0.0,0.79,0.61,-8.776144659020706e-15,-2.5322821523884802e-14,1.1796510206486735e-14
4.774094581604004,0.19,0.04,9.8,0.0,0.0,0.0,0.01,-0.0,0.79,0.61,-8.776144659020706e-15,-2.5322821523884802e-14,1.1796510206486735e-14
4.774785757064819,0.19,0.04,9.8,0.0,0.0,0.0,0.01,-0.0,0.79,0.61,-8.776144659020706e-15,-2.5322821523884802e-14,1.1796510206486735e-14
4.775803565979004,0.19,0.04,9.8,0.0,0.0,0.0,0.01,-0.0,0.79,0.61,-8.776144659020706e-15,-2.5322821523884802e-14,1.1796510206486735e-14
4.776605844497681,0.19,0.04,9.8,0.0,0.0,0.0,0.01,-0.0,0.79,0.61,-8.776144659020706e-15,-2.5322821523884802e-14,1.1796510206486735e-14
4.777533769607544,0.19,0.04,9.8,0.0,0.0,0.0,0.01,-0.0,0.79,0.61,-8.776144659020706e-15,-2.5322821523884802e-14,1.1796510206486735e-14
4.900708913803101,0.19,0.04,9.8,0.0,0.0,0.0,0.01,-0.0,0.79,0.61,-8.776144659020706e-15,-2.5322821523884802e-14,1.1796510206486735e-14
4.901461601257324,0.19,0.04,9.8,0.0,0.0,0.0,0.01,-0.0,0.79,0.61,-8.776144659020706e-15,-2.5322821523884802e-14,1.1796510206486735e-14
4.902135610580444,0.15,-0.04,9.84,0.0,0.0,0.0,0.01,-0.0,0.79,0.61,-8.776144659020706e-15,-2.5322821523884802e-14,1.1796510206486735e-14
4.902766704559326,0.15,-0.04,9.84,0.0,0.0,0.0,0.01,-0.0,0.79,0.61,-8.776144659020706e-15,-2.5322821523884802e-14,1.1796510206486735e-14
4.903188467025757,0.15,-0.04,9.84,0.0,0.0,0.0,0.01,-0.0,0.79,0.61,-8.776144659020706e-15,-2.5322821523884802e-14,1.1796510206486735e-14
4.90359354019165,0.15,-0.04,9.84,0.0,0.0,0.0,0.01,-0.0,0.79,0.61,-8.776144659020706e-15,-2.5322821523884802e-14,1.1796510206486735e-14
4.9040234088897705,0.15,-0.04,9.84,0.0,0.0,0.0,0.01,-0.0,0.79,0.61,-8.776144659020706e-15,-2.5322821523884802e-14,1.1796510206486735e-14
4.9044272899627686,0.15,-0.04,9.84,0.0,0.0,0.0,0.01,-0.0,0.79,0.61,-8.776144659020706e-15,-2.5322821523884802e-14,1.1796510206486735e-14
4.905170202255249,0.15,-0.04,9.84,0.0,0.0,0.0,0.01,-0.0,0.79,0.61,-8.776144659020706e-15,-2.5322821523884802e-14,1.1796510206486735e-14
4.9056010246276855,0.15,-0.04,9.84,0.0,0.0,0.0,0.01,-0.0,0.79,0.61,-8.776144659020706e-15,-2.5322821523884802e-14,1.1796510206486735e-14
4.906002759933472,0.15,-0.04,9.84,0.0,0.0,0.0,0.01,-0.0,0.79,0.61,-8.776144659020706e-15,-2.5322821523884802e-14,1.1796510206486735e-14
4.906445741653442,0.15,-0.04,9.84,0.0,0.0,0.0,0.01,-0.0,0.79,0.61,-8.776144659020706e-15,-2.5322821523884802e-14,1.1796510206486735e-14
4.906841516494751,0.15,-0.04,9.84,0.0,0.0,0.0,0.01,-0.0,0.79,0.61,-8.776144659020706e-15,-2.5322821523884802e-14,1.1796510206486735e-14
4.907267332077026,0.15,-0.04,9.84,0.0,0.0,0.0,0.01,-0.0,0.79,0.61,-8.776144659020706e-15,-2.5322821523884802e-14,1.1796510206486735e-14
4.907670021057129,0.15,0.11,9.76,0.0,0.0,0.0,0.01,-0.0,0.79,0.61,-8.776144659020706e-15,-2.5322821523884802e-14,1.1796510206486735e-14
4.908054828643799,0.15,0.11,9.76,0.0,0.0,0.0,0.01,-0.0,0.79,0.61,-8.776144659020706e-15,-2.5322821523884802e-14,1.1796510206486735e-14
4.908487796783447,0.15,0.11,9.76,0.0,0.0,0.0,0.01,-0.0,0.79,0.61,-8.776144659020706e-15,-2.5322821523884802e-14,1.1796510206486735e-14
4.908874750137329,0.15,0.11,9.76,0.0,0.0,0.0,0.01,-0.0,0.79,0.61,-8.776144659020706e-15,-2.5322821523884802e-14,1.1796510206486735e-14
4.909250974655151,0.15,0.11,9.76,0.0,0.0,0.0,0.01,-0.0,0.79,0.61,-8.776144659020706e-15,-2.5322821523884802e-14,1.1796510206486735e-14
4.909642457962036,0.15,0.11,9.76,0.0,0.0,0.0,0.01,-0.0,0.79,0.61,-8.776144659020706e-15,-2.5322821523884802e-14,1.1796510206486735e-14
4.910025119781494,0.15,0.11,9.76,0.0,0.0,0.0,0.01,-0.0,0.79,0.61,-8.776144659020706e-15,-2.5322821523884802e-14,1.1796510206486735e-14
4.910401344299316,0.15,0.11,9.76,0.0,0.0,0.0,0.01,-0.0,0.79,0.61,-8.776144659020706e-15,-2.5322821523884802e-14,1.1796510206486735e-14
4.910869598388672,0.11,0.07,9.76,0.0,0.0,0.0,0.01,-0.0,0.79,0.61,-8.776144659020706e-15,-2.5322821523884802e-14,1.1796510206486735e-14
4.911552906036377,0.11,0.07,9.76,0.0,0.0,0.0,0.01,-0.0,0.79,0.61,-8.776144659020706e-15,-2.5322821523884802e-14,1.1796510206486735e-14
4.912273645401001,0.11,0.07,9.76,0.0,0.0,0.0,0.01,-0.0,0.79,0.61,-8.776144659020706e-15,-2.5322821523884802e-14,1.1796510206486735e-14
4.912744760513306,0.11,0.07,9.76,0.0,0.0,0.0,0.01,-0.0,0.79,0.61,-8.776144659020706e-15,-2.5322821523884802e-14,1.1796510206486735e-14
4.913471221923828,0.11,0.07,9.76,0.0,0.0,0.0,0.01,-0.0,0.79,0.61,-8.776144659020706e-15,-2.5322821523884802e-14,1.1796510206486735e-14
4.9139323234558105,0.11,0.07,9.76,0.0,0.0,0.0,0.01,-0.0,0.79,0.61,-8.776144659020706e-15,-2.5322821523884802e-14,1.1796510206486735e-14
4.914347171783447,0.11,0.07,9.76,0.0,0.0,0.0,0.01,-0.0,0.79,0.61,-8.776144659020706e-15,-2.5322821523884802e-14,1.1796510206486735e-14
4.914855241775513,0.11,0.07,9.76,0.0,0.0,0.0,0.01,-0.0,0.79,0.61,-8.776144659020706e-15,-2.5322821523884802e-14,1.1796510206486735e-14
4.915536165237427,0.11,0.07,9.76,0.0,0.0,0.0,0.01,-0.0,0.79,0.61,-8.776144659020706e-15,-2.5322821523884802e-14,1.1796510206486735e-14
4.916090250015259,0.11,0.07,9.76,0.0,0.0,0.0,0.01,-0.0,0.79,0.61,-8.776144659020706e-15,-2.5322821523884802e-14,1.1796510206486735e-14
4.916625261306763,0.11,0.07,9.76,0.0,0.0,0.0,0.01,-0.0,0.79,0.61,-8.776144659020706e-15,-2.5322821523884802e-14,1.1796510206486735e-14
4.917058944702148,0.11,0.07,9.76,0.0,0.0,0.0,0.01,-0.0,0.79,0.61,-8.776144659020706e-15,-2.5322821523884802e-14,1.1796510206486735e-14
4.9175801277160645,0.11,0.07,9.76,0.0,0.0,0.0,0.01,-0.0,0.79,0.61,-8.776144659020706e-15,-2.5322821523884802e-14,1.1796510206486735e-14
4.918022394180298,0.11,0.07,9.76,0.0,0.0,0.0,0.01,-0.0,0.79,0.61,-8.776144659020706e-15,-2.5322821523884802e-14,1.1796510206486735e-14
4.918415069580078,0.15,-0.04,9.88,0.0,0.0,0.0,0.01,-0.0,0.79,0.61,-8.776144659020706e-15,-2.5322821523884802e-14,1.1796510206486735e-14
4.918946027755737,0.15,-0.04,9.88,0.0,0.0,0.0,0.01,-0.0,0.79,0.61,-8.776144659020706e-15,-2.5322821523884802e-14,1.1796510206486735e-14
4.980323076248169,0.15,-0.04,9.88,0.0,0.0,0.0,0.01,-0.0,0.79,0.61,-8.776144659020706e-15,-2.5322821523884802e-14,1.1796510206486735e-14
4.982454299926758,0.15,-0.04,9.88,0.0,0.0,0.0,0.01,-0.0,0.79,0.61,-8.776144659020706e-15,-2.5322821523884802e-14,1.1796510206486735e-14
4.983713626861572,0.15,-0.04,9.88,0.0,0.0,0.0,0.01,-0.0,0.79,0.61,-8.776144659020706e-15,-2.5322821523884802e-14,1.1796510206486735e-14
4.984319686889648,0.15,-0.04,9.88,0.0,0.0,0.0,0.01,-0.0,0.79,0.61,-8.776144659020706e-15,-2.5322821523884802e-14,1.1796510206486735e-14
4.985709190368652,0.15,-0.04,9.88,0.0,0.0,0.0,0.01,-0.0,0.79,0.61,-8.776144659020706e-15,-2.5322821523884802e-14,1.1796510206486735e-14
4.986295938491821,0.15,-0.04,9.88,0.0,0.0,0.0,0.01,-0.0,0.79,0.61,-8.776144659020706e-15,-2.5322821523884802e-14,1.1796510206486735e-14
4.986710786819458,0.15,-0.04,9.88,0.0,0.0,0.0,0.01,-0.0,0.79,0.61,-8.776144659020706e-15,-2.5322821523884802e-14,1.1796510206486735e-14
5.043094873428345,0.15,-0.04,9.88,0.0,0.0,0.0,0.01,-0.0,0.79,0.61,-8.776144659020706e-15,-2.5322821523884802e-14,1.1796510206486735e-14
5.044349908828735,0.15,-0.04,9.88,0.0,0.0,0.0,0.01,-0.0,0.79,0.61,-8.776144659020706e-15,-2.5322821523884802e-14,1.1796510206486735e-14
5.045091867446899,0.15,-0.04,9.88,0.0,0.0,0.0,0.01,-0.0,0.79,0.61,-8.776144659020706e-15,-2.5322821523884802e-14,1.1796510206486735e-14
5.0455663204193115,0.11,0.07,9.72,0.0,0.0,0.0,0.01,-0.0,0.79,0.61,-8.776144659020706e-15,-2.5322821523884802e-14,1.1796510206486735e-14
5.0460944175720215,0.11,0.07,9.72,0.0,0.0,0.0,0.01,-0.0,0.79,0.61,-8.776144659020706e-15,-2.5322821523884802e-14,1.1796510206486735e-14
5.047373533248901,0.11,0.07,9.72,0.0,0.0,0.0,0.01,-0.0,0.79,0.61,-8.776144659020706e-15,-2.5322821523884802e-14,1.1796510206486735e-14
5.049203872680664,0.11,0.07,9.72,0.0,0.0,0.0,0.01,-0.0,0.79,0.61,-8.776144659020706e-15,-2.5322821523884802e-14,1.1796510206486735e-14
5.05047345161438,0.11,0.07,9.72,0.0,0.0,0.0,0.01,-0.0,0.79,0.61,-8.776144659020706e-15,-2.5322821523884802e-14,1.1796510206486735e-14
5.051729917526245,0.11,0.07,9.72,0.0,0.0,0.0,0.01,-0.0,0.79,0.61,-8.776144659020706e-15,-2.5322821523884802e-14,1.1796510206486735e-14
5.052159070968628,0.11,0.07,9.72,0.0,0.0,0.0,0.01,-0.0,0.79,0.61,-8.776144659020706e-15,-2.5322821523884802e-14,1.1796510206486735e-14
5.052581548690796,0.11,0.07,9.72,0.0,0.0,0.0,0.01,-0.0,0.79,0.61,-8.776144659020706e-15,-2.5322821523884802e-14,1.1796510206486735e-14
5.052964925765991,0.11,0.07,9.8,0.0,0.0,0.0,0.01,-0.0,0.79,0.61,-8.776144659020706e-15,-2.5322821523884802e-14,1.1796510206486735e-14
5.0533435344696045,0.11,0.07,9.8,0.0,0.0,0.0,0.01,-0.0,0.79,0.61,-8.776144659020706e-15,-2.5322821523884802e-14,1.1796510206486735e-14
5.053779363632202,0.11,0.07,9.8,0.0,0.0,0.0,0.01,-0.0,0.79,0.61,-8.776144659020706e-15,-2.5322821523884802e-14,1.1796510206486735e-14
5.0541627407073975,0.11,0.07,9.8,0.0,0.0,0.0,0.01,-0.0,0.79,0.61,-8.776144659020706e-15,-2.5322821523884802e-14,1.1796510206486735e-14
5.054579496383667,0.11,0.07,9.8,0.0,0.0,0.0,0.01,-0.0,0.79,0.61,-8.776144659020706e-15,-2.5322821523884802e-14,1.1796510206486735e-14
5.054969310760498,0.11,0.07,9.8,0.0,0.0,0.0,0.01,-0.0,0.79,0.61,-8.776144659020706e-15,-2.5322821523884802e-14,1.1796510206486735e-14
5.055454254150391,0.19,-0.04,9.84,0.0,0.0,0.0,0.01,-0.0,0.79,0.61,-8.776144659020706e-15,-2.5322821523884802e-14,1.1796510206486735e-14
5.056001663208008,0.19,-0.04,9.84,0.0,0.0,0.0,0.01,-0.0,0.79,0.61,-8.776144659020706e-15,-2.5322821523884802e-14,1.1796510206486735e-14
5.056402921676636,0.19,-0.04,9.84,0.0,0.0,0.0,0.01,-0.0,0.79,0.61,-8.776144659020706e-15,-2.5322821523884802e-14,1.1796510206486735e-14
5.057191848754883,0.19,-0.04,9.84,0.0,0.0,0.0,0.01,-0.0,0.79,0.61,-8.776144659020706e-15,-2.5322821523884802e-14,1.1796510206486735e-14
5.112539768218994,0.19,-0.04,9.84,0.0,0.0,0.0,0.01,-0.0,0.79,0.61,-8.776144659020706e-15,-2.5322821523884802e-14,1.1796510206486735e-14
5.113197088241577,0.19,-0.04,9.84,0.0,0.0,0.0,0.01,-0.0,0.79,0.61,-8.776144659020706e-15,-2.5322821523884802e-14,1.1796510206486735e-14
5.113706111907959,0.15,-0.0,9.88,0.0,0.0,0.0,0.01,-0.0,0.79,0.61,-8.776144659020706e-15,-2.5322821523884802e-14,1.1796510206486735e-14
5.114140748977661,0.15,-0.0,9.88,0.0,0.0,0.0,0.01,-0.0,0.79,0.61,-8.776144659020706e-15,-2.5322821523884802e-14,1.1796510206486735e-14
5.114598989486694,0.15,-0.0,9.88,0.0,0.0,0.0,0.01,-0.0,0.79,0.61,-8.776144659020706e-15,-2.5322821523884802e-14,1.1796510206486735e-14
5.115020513534546,0.15,-0.0,9.88,0.0,0.0,0.0,0.01,-0.0,0.79,0.61,-8.776144659020706e-15,-2.5322821523884802e-14,1.1796510206486735e-14
5.115644454956055,0.15,-0.0,9.88,0.0,0.0,0.0,0.01,-0.0,0.79,0.61,-8.776144659020706e-15,-2.5322821523884802e-14,1.1796510206486735e-14
5.116088628768921,0.15,-0.0,9.88,0.0,0.0,0.0,0.01,-0.0,0.79,0.61,-8.776144659020706e-15,-2.5322821523884802e-14,1.1796510206486735e-14
5.116527318954468,0.15,-0.0,9.88,0.0,0.0,0.0,0.01,-0.0,0.79,0.61,-8.776144659020706e-15,-2.5322821523884802e-14,1.1796510206486735e-14
5.116973400115967,0.15,-0.0,9.88,0.0,0.0,0.0,0.01,-0.0,0.79,0.61,-8.776144659020706e-15,-2.5322821523884802e-14,1.1796510206486735e-14
5.1173601150512695,0.19,0.07,9.76,0.0,0.0,0.0,0.01,-0.0,0.79,0.61,-8.776144659020706e-15,-2.5322821523884802e-14,1.1796510206486735e-14
5.1177732944488525,0.19,0.07,9.76,0.0,0.0,0.0,0.01,-0.0,0.79,0.61,-8.776144659020706e-15,-2.5322821523884802e-14,1.1796510206486735e-14
5.118184566497803,0.19,0.07,9.76,0.0,0.0,0.0,0.01,-0.0,0.79,0.61,-8.776144659020706e-15,-2.5322821523884802e-14,1.1796510206486735e-14
5.118600368499756,0.19,0.07,9.76,0.0,0.0,0.0,0.01,-0.0,0.79,0.61,-8.776144659020706e-15,-2.5322821523884802e-14,1.1796510206486735e-14
5.119157075881958,0.19,0.07,9.76,0.0,0.0,0.0,0.01,-0.0,0.79,0.61,-8.776144659020706e-15,-2.5322821523884802e-14,1.1796510206486735e-14
5.119604587554932,0.19,0.07,9.76,0.0,0.0,0.0,0.01,-0.0,0.79,0.61,-8.776144659020706e-15,-2.5322821523884802e-14,1.1796510206486735e-14
5.183954477310181,0.19,0.07,9.76,0.0,0.0,0.0,0.01,-0.0,0.79,0.61,-8.776144659020706e-15,-2.5322821523884802e-14,1.1796510206486735e-14
5.184648752212524,0.19,0.07,9.76,0.0,0.0,0.0,0.01,-0.0,0.79,0.61,-8.776144659020706e-15,-2.5322821523884802e-14,1.1796510206486735e-14
5.185143947601318,0.19,-0.0,9.95,0.0,0.0,0.0,0.01,-0.0,0.79,0.61,-8.776144659020706e-15,-2.5322821523884802e-14,1.1796510206486735e-14
5.1855902671813965,0.19,-0.0,9.95,0.0,0.0,0.0,0.01,-0.0,0.79,0.61,-8.776144659020706e-15,-2.5322821523884802e-14,1.1796510206486735e-14
5.186010360717773,0.19,-0.0,9.95,0.0,0.0,0.0,0.01,-0.0,0.79,0.61,-8.776144659020706e-15,-2.5322821523884802e-14,1.1796510206486735e-14
5.186447381973267,0.19,-0.0,9.95,0.0,0.0,0.0,0.01,-0.0,0.79,0.61,-8.776144659020706e-15,-2.5322821523884802e-14,1.1796510206486735e-14
5.186874866485596,0.19,-0.0,9.95,0.0,0.0,0.0,0.01,-0.0,0.79,0.61,-8.776144659020706e-15,-2.5322821523884802e-14,1.1796510206486735e-14
5.1873087882995605,0.19,-0.0,9.95,0.0,0.0,0.0,0.01,-0.0,0.79,0.61,-8.776144659020706e-15,-2.5322821523884802e-14,1.1796510206486735e-14
5.187716722488403,0.19,-0.0,9.95,0.0,0.0,0.0,0.01,-0.0,0.79,0.61,-8.776144659020706e-15,-2.5322821523884802e-14,1.1796510206486735e-14
5.188241004943848,0.19,-0.0,9.95,0.0,0.0,0.0,0.01,-0.0,0.79,0.61,-8.776144659020706e-15,-2.5322821523884802e-14,1.1796510206486735e-14
5.188681602478027,0.15,0.07,9.8,0.0,0.0,0.0,0.01,-0.0,0.79,0.61,-8.776144659020706e-15,-2.5322821523884802e-14,1.1796510206486735e-14
5.189094305038452,0.15,0.07,9.8,0.0,0.0,0.0,0.01,-0.0,0.79,0.61,-8.776144659020706e-15,-2.5322821523884802e-14,1.1796510206486735e-14
5.189554691314697,0.15,0.07,9.8,0.0,0.0,0.0,0.01,-0.0,0.79,0.61,-8.776144659020706e-15,-2.5322821523884802e-14,1.1796510206486735e-14
5.189968109130859,0.15,0.07,9.8,0.0,0.0,0.0,0.01,-0.0,0.79,0.61,-8.776144659020706e-15,-2.5322821523884802e-14,1.1796510206486735e-14
5.249101638793945,0.15,0.07,9.8,0.0,0.0,0.0,0.01,-0.0,0.79,0.61,-8.776144659020706e-15,-2.5322821523884802e-14,1.1796510206486735e-14
5.249828577041626,0.15,0.07,9.8,0.0,0.0,0.0,0.01,-0.0,0.79,0.61,-8.776144659020706e-15,-2.5322821523884802e-14,1.1796510206486735e-14
5.250364303588867,0.15,0.07,9.8,0.0,0.0,0.0,0.01,-0.0,0.79,0.61,-8.776144659020706e-15,-2.5322821523884802e-14,1.1796510206486735e-14
5.2508625984191895,0.15,0.07,9.8,0.0,0.0,0.0,0.01,-0.0,0.79,0.61,-8.776144659020706e-15,-2.5322821523884802e-14,1.1796510206486735e-14
5.251333713531494,0.15,0.07,9.8,0.0,0.0,0.0,0.01,-0.0,0.79,0.61,-8.776144659020706e-15,-2.5322821523884802e-14,1.1796510206486735e-14
5.25178337097168,0.15,0.07,9.8,0.0,0.0,0.0,0.01,-0.0,0.79,0.61,-8.776144659020706e-15,-2.5322821523884802e-14,1.1796510206486735e-14
5.252270460128784,0.15,0.07,9.8,0.0,0.0,0.0,0.01,-0.0,0.79,0.61,-8.776144659020706e-15,-2.5322821523884802e-14,1.1796510206486735e-14
5.25308084487915,0.15,0.07,9.8,0.0,0.0,0.0,0.01,-0.0,0.79,0.61,-8.776144659020706e-15,-2.5322821523884802e-14,1.1796510206486735e-14
5.253529071807861,0.15,0.07,9.8,0.0,0.0,0.0,0.01,-0.0,0.79,0.61,-8.776144659020706e-15,-2.5322821523884802e-14,1.1796510206486735e-14
5.254002332687378,0.15,0.07,9.8,0.0,0.0,0.0,0.01,-0.0,0.79,0.61,-8.776144659020706e-15,-2.5322821523884802e-14,1.1796510206486735e-14
5.254443645477295,0.11,0.07,9.76,0.0,0.0,0.0,0.01,-0.0,0.79,0.61,-8.776144659020706e-15,-2.5322821523884802e-14,1.1796510206486735e-14
5.254899501800537,0.11,0.07,9.76,0.0,0.0,0.0,0.01,-0.0,0.79,0.61,-8.776144659020706e-15,-2.5322821523884802e-14,1.1796510206486735e-14
5.255303382873535,0.11,0.07,9.76,0.0,0.0,0.0,0.01,-0.0,0.79,0.61,-8.776144659020706e-15,-2.5322821523884802e-14,1.1796510206486735e-14
5.255743980407715,0.11,0.07,9.76,0.0,0.0,0.0,0.01,-0.0,0.79,0.61,-8.776144659020706e-15,-2.5322821523884802e-14,1.1796510206486735e-14
5.315066576004028,0.11,0.07,9.76,0.0,0.0,0.0,0.01,-0.0,0.79,0.61,-8.776144659020706e-15,-2.5322821523884802e-14,1.1796510206486735e-14
5.31589937210083,0.11,0.07,9.76,0.0,0.0,0.0,0.01,-0.0,0.79,0.61,-8.776144659020706e-15,-2.5322821523884802e-14,1.1796510206486735e-14
5.316943168640137,0.11,0.07,9.76,0.0,0.0,0.0,0.01,-0.0,0.79,0.61,-8.776144659020706e-15,-2.5322821523884802e-14,1.1796510206486735e-14
5.3176305294036865,0.11,0.07,9.76,0.0,0.0,0.0,0.01,-0.0,0.79,0.61,-8.776144659020706e-15,-2.5322821523884802e-14,1.1796510206486735e-14
5.3181188106536865,0.11,0.07,9.76,0.0,0.0,0.0,0.01,-0.0,0.79,0.61,-8.776144659020706e-15,-2.5322821523884802e-14,1.1796510206486735e-14
5.318532228469849,0.11,0.07,9.76,0.0,0.0,0.0,0.01,-0.0,0.79,0.61,-8.776144659020706e-15,-2.5322821523884802e-14,1.1796510206486735e-14
5.318928241729736,0.23,0.11,9.88,0.0,0.0,0.0,0.01,-0.0,0.79,0.61,-8.776144659020706e-15,-2.5322821523884802e-14,1.1796510206486735e-14
5.3194074630737305,0.23,0.11,9.88,0.0,0.0,0.0,0.01,-0.0,0.79,0.61,-8.776144659020706e-15,-2.5322821523884802e-14,1.1796510206486735e-14
5.3198065757751465,0.23,0.11,9.88,0.0,0.0,0.0,0.01,-0.0,0.79,0.61,-8.776144659020706e-15,-2.5322821523884802e-14,1.1796510206486735e-14
5.320194721221924,0.23,0.11,9.88,0.0,0.0,0.0,0.01,-0.0,0.79,0.61,-8.776144659020706e-15,-2.5322821523884802e-14,1.1796510206486735e-14
5.320589303970337,0.23,0.11,9.88,0.0,0.0,0.0,0.01,-0.0,0.79,0.61,-8.776144659020706e-15,-2.5322821523884802e-14,1.1796510206486735e-14
5.320967674255371,0.23,0.11,9.88,0.0,0.0,0.0,0.01,-0.0,0.79,0.61,-8.776144659020706e-15,-2.5322821523884802e-14,1.1796510206486735e-14
5.321454048156738,0.23,0.11,9.88,-0.0,0.0,0.0,0.01,-0.0,0.79,0.61,-8.776144659020706e-15,-2.5322821523884802e-14,1.1796510206486735e-14
5.3218889236450195,0.23,0.11,9.88,-0.0,0.0,0.0,0.01,-0.0,0.79,0.61,-8.776144659020706e-15,-2.5322821523884802e-14,1.1796510206486735e-14
5.322315692901611,0.15,0.04,9.88,-0.0,0.0,0.0,0.01,-0.0,0.79,0.61,-8.776144659020706e-15,-2.5322821523884802e-14,1.1796510206486735e-14
5.3226964473724365,0.15,0.04,9.88,-0.0,0.0,0.0,0.01,-0.0,0.79,0.61,-8.776144659020706e-15,-2.5322821523884802e-14,1.1796510206486735e-14
5.3761656284332275,0.15,0.04,9.88,-0.0,0.0,0.0,0.01,-0.0,0.79,0.61,-8.776144659020706e-15,-2.5322821523884802e-14,1.1796510206486735e-14
5.376901626586914,0.15,0.04,9.88,-0.0,0.0,0.0,0.01,-0.0,0.79,0.61,-8.776144659020706e-15,-2.5322821523884802e-14,1.1796510206486735e-14
5.377702951431274,0.15,0.04,9.88,0.0,0.0,0.0,0.01,-0.0,0.79,0.61,-8.776144659020706e-15,-2.5322821523884802e-14,1.1796510206486735e-14
5.378472805023193,0.15,0.04,9.88,0.0,0.0,0.0,0.01,-0.0,0.79,0.61,-8.776144659020706e-15,-2.5322821523884802e-14,1.1796510206486735e-14
5.379029035568237,0.15,0.04,9.88,0.0,-0.0,-0.0,0.01,-0.0,0.79,0.61,-8.776144659020706e-15,-2.5322821523884802e-14,1.1796510206486735e-14
5.379550457000732,0.15,0.04,9.88,0.0,-0.0,-0.0,0.01,-0.0,0.79,0.61,-8.776144659020706e-15,-2.5322821523884802e-14,1.1796510206486735e-14
5.379968643188477,0.11,-0.0,9.84,0.0,-0.0,-0.0,0.01,-0.0,0.79,0.61,-8.776144659020706e-15,-2.5322821523884802e-14,1.1796510206486735e-14
5.380480527877808,0.11,-0.0,9.84,0.0,-0.0,-0.0,0.01,-0.0,0.79,0.61,-8.776144659020706e-15,-2.5322821523884802e-14,1.1796510206486735e-14
5.38088321685791,0.11,-0.0,9.84,-0.0,-0.0,0.0,0.01,-0.0,0.79,0.61,-8.776144659020706e-15,-2.5322821523884802e-14,1.1796510206486735e-14
5.381270170211792,0.11,-0.0,9.84,-0.0,-0.0,0.0,0.01,-0.0,0.79,0.61,-8.776144659020706e-15,-2.5322821523884802e-14,1.1796510206486735e-14
5.381646156311035,0.11,-0.0,9.84,-0.0,0.0,-0.0,0.01,-0.0,0.79,0.61,-8.776144659020706e-15,-2.5322821523884802e-14,1.1796510206486735e-14
5.382052659988403,0.11,-0.0,9.84,-0.0,0.0,-0.0,0.01,-0.0,0.79,0.61,-8.776144659020706e-15,-2.5322821523884802e-14,1.1796510206486735e-14
5.382429599761963,0.11,-0.0,9.84,-0.01,0.0,-0.0,0.01,-0.0,0.79,0.61,-8.776144659020706e-15,-2.5322821523884802e-14,1.1796510206486735e-14
5.3828113079071045,0.11,-0.0,9.84,-0.01,0.0,-0.0,0.01,-0.0,0.79,0.61,-8.776144659020706e-15,-2.5322821523884802e-14,1.1796510206486735e-14
5.437944412231445,0.15,0.11,9.8,-0.01,0.0,-0.0,0.01,-0.0,0.79,0.61,-8.776144659020706e-15,-2.5322821523884802e-14,1.1796510206486735e-14
5.438852071762085,0.15,0.11,9.8,-0.01,0.0,-0.0,0.01,-0.0,0.79,0.61,-8.776144659020706e-15,-2.5322821523884802e-14,1.1796510206486735e-14
5.439460754394531,0.15,0.11,9.8,-0.0,0.0,-0.0,0.01,-0.0,0.79,0.61,-8.776144659020706e-15,-2.5322821523884802e-14,1.1796510206486735e-14
5.440169334411621,0.15,0.11,9.8,-0.0,0.0,-0.0,0.01,-0.0,0.79,0.61,-8.776144659020706e-15,-2.5322821523884802e-14,1.1796510206486735e-14
5.440617084503174,0.15,0.11,9.8,-0.0,-0.0,0.0,0.01,-0.0,0.79,0.61,-8.776144659020706e-15,-2.5322821523884802e-14,1.1796510206486735e-14
5.441070795059204,0.15,0.11,9.8,-0.0,-0.0,0.0,0.01,-0.0,0.79,0.61,-8.776144659020706e-15,-2.5322821523884802e-14,1.1796510206486735e-14
5.441503286361694,0.15,0.11,9.8,0.0,0.0,0.0,0.01,-0.0,0.79,0.61,-8.776144659020706e-15,-2.5322821523884802e-14,1.1796510206486735e-14
5.441946983337402,0.15,0.11,9.8,0.0,0.0,0.0,0.01,-0.0,0.79,0.61,-8.776144659020706e-15,-2.5322821523884802e-14,1.1796510206486735e-14
5.442429780960083,0.15,-0.0,9.84,0.0,0.0,0.0,0.01,-0.0,0.79,0.61,-8.776144659020706e-15,-2.5322821523884802e-14,1.1796510206486735e-14
5.44287896156311,0.15,-0.0,9.84,0.0,0.0,0.0,0.01,-0.0,0.79,0.61,-8.776144659020706e-15,-2.5322821523884802e-14,1.1796510206486735e-14
5.443288087844849,0.15,-0.0,9.84,0.0,-0.0,0.0,0.01,-0.0,0.79,0.61,-8.776144659020706e-15,-2.5322821523884802e-14,1.1796510206486735e-14
5.444137811660767,0.15,-0.0,9.84,0.0,-0.0,0.0,0.01,-0.0,0.79,0.61,-8.776144659020706e-15,-2.5322821523884802e-14,1.1796510206486735e-14
5.44460916519165,0.15,-0.0,9.84,0.0,0.0,-0.01,0.01,-0.0,0.79,0.61,-8.776144659020706e-15,-2.5322821523884802e-14,1.1796510206486735e-14
5.4450883865356445,0.15,-0.0,9.84,0.0,0.0,-0.01,0.01,-0.0,0.79,0.61,-8.776144659020706e-15,-2.5322821523884802e-14,1.1796510206486735e-14
5.497203350067139,0.15,-0.0,9.84,0.0,-0.0,0.0,0.01,-0.0,0.79,0.61,-8.776144659020706e-15,-2.5322821523884802e-14,1.1796510206486735e-14
5.54932713508606,0.15,-0.0,9.84,0.0,-0.0,0.0,0.01,-0.0,0.79,0.61,-8.776144659020706e-15,-2.5322821523884802e-14,1.1796510206486735e-14
5.55001425743103,0.15,-0.0,9.84,0.0,-0.0,-0.0,0.01,-0.0,0.79,0.61,-8.776144659020706e-15,-2.5322821523884802e-14,1.1796510206486735e-14
5.550844192504883,0.15,-0.0,9.84,0.0,-0.0,-0.0,0.01,-0.0,0.79,0.61,-8.776144659020706e-15,-2.5322821523884802e-14,1.1796510206486735e-14
5.551473379135132,0.11,0.04,9.8,0.0,-0.0,-0.0,0.01,-0.0,0.79,0.61,-8.776144659020706e-15,-2.5322821523884802e-14,1.1796510206486735e-14
5.55201530456543,0.11,0.04,9.8,0.0,-0.0,-0.0,0.01,-0.0,0.79,0.61,-8.776144659020706e-15,-2.5322821523884802e-14,1.1796510206486735e-14
5.552416801452637,0.11,0.04,9.8,-0.0,0.0,-0.01,0.01,-0.0,0.79,0.61,-8.776144659020706e-15,-2.5322821523884802e-14,1.1796510206486735e-14
5.552830457687378,0.11,0.04,9.8,-0.0,0.0,-0.01,0.01,-0.0,0.79,0.61,-8.776144659020706e-15,-2.5322821523884802e-14,1.1796510206486735e-14
5.553297996520996,0.11,0.04,9.8,0.0,0.0,0.0,0.01,-0.0,0.79,0.61,-8.776144659020706e-15,-2.5322821523884802e-14,1.1796510206486735e-14
5.553801774978638,0.11,0.04,9.8,0.0,0.0,0.0,0.01,-0.0,0.79,0.61,-8.776144659020706e-15,-2.5322821523884802e-14,1.1796510206486735e-14
5.554203033447266,0.11,0.04,9.8,-0.0,0.0,-0.0,0.01,-0.0,0.79,0.61,-8.776144659020706e-15,-2.5322821523884802e-14,1.1796510206486735e-14
5.554616212844849,0.11,0.04,9.8,-0.0,0.0,-0.0,0.01,-0.0,0.79,0.61,-8.776144659020706e-15,-2.5322821523884802e-14,1.1796510206486735e-14
5.555185794830322,0.11,0.04,9.8,0.0,0.0,0.0,0.01,-0.0,0.79,0.61,-8.776144659020706e-15,-2.5322821523884802e-14,1.1796510206486735e-14
5.555697202682495,0.11,0.04,9.8,0.0,0.0,0.0,0.01,-0.0,0.79,0.61,-8.776144659020706e-15,-2.5322821523884802e-14,1.1796510206486735e-14
5.556104421615601,0.15,0.04,9.8,0.0,0.0,0.0,0.01,-0.0,0.79,0.61,-8.776144659020706e-15,-2.5322821523884802e-14,1.1796510206486735e-14
5.556495428085327,0.15,0.04,9.8,-0.0,-0.0,-0.0,0.01,-0.0,0.79,0.61,-8.776144659020706e-15,-2.5322821523884802e-14,1.1796510206486735e-14
5.55701470375061,0.15,0.04,9.8,-0.0,-0.0,-0.0,0.01,-0.0,0.79,0.61,-8.776144659020706e-15,-2.5322821523884802e-14,1.1796510206486735e-14
5.557413101196289,0.15,0.04,9.8,-0.0,-0.0,-0.0,0.01,-0.0,0.79,0.61,-8.776144659020706e-15,-2.5322821523884802e-14,1.1796510206486735e-14
5.557822942733765,0.15,0.04,9.8,-0.0,-0.01,0.0,0.01,-0.0,0.79,0.61,-8.776144659020706e-15,-2.5322821523884802e-14,1.1796510206486735e-14
5.558207035064697,0.15,0.04,9.8,-0.0,-0.01,0.0,0.01,-0.0,0.79,0.61,-8.776144659020706e-15,-2.5322821523884802e-14,1.1796510206486735e-14
5.558586597442627,0.15,0.04,9.8,0.0,0.0,0.01,0.01,-0.0,0.79,0.61,-8.776144659020706e-15,-2.5322821523884802e-14,1.1796510206486735e-14
5.559040307998657,0.15,0.04,9.8,0.0,0.0,0.01,0.01,-0.0,0.79,0.61,-8.776144659020706e-15,-2.5322821523884802e-14,1.1796510206486735e-14
5.559417963027954,0.15,-0.04,9.84,0.0,0.0,0.01,0.01,-0.0,0.79,0.61,-8.776144659020706e-15,-2.5322821523884802e-14,1.1796510206486735e-14
5.559795618057251,0.15,-0.04,9.84,0.0,0.0,0.01,0.01,-0.0,0.79,0.61,-8.776144659020706e-15,-2.5322821523884802e-14,1.1796510206486735e-14
5.560202121734619,0.15,-0.04,9.84,-0.0,-0.0,0.0,0.01,-0.0,0.79,0.61,-8.776144659020706e-15,-2.5322821523884802e-14,1.1796510206486735e-14
5.662484645843506,0.15,-0.04,9.84,-0.0,-0.0,0.0,0.01,-0.0,0.79,0.61,-8.776144659020706e-15,-2.5322821523884802e-14,1.1796510206486735e-14
5.6632184982299805,0.15,-0.04,9.84,-0.0,-0.0,0.0,0.01,-0.0,0.79,0.61,-8.776144659020706e-15,-2.5322821523884802e-14,1.1796510206486735e-14
5.663722515106201,0.15,-0.04,9.84,-0.0,-0.0,0.0,0.01,-0.0,0.79,0.61,-8.776144659020706e-15,-2.5322821523884802e-14,1.1796510206486735e-14
5.664305210113525,0.15,-0.04,9.84,0.0,0.0,0.0,0.01,-0.0,0.79,0.61,-8.776144659020706e-15,-2.5322821523884802e-14,1.1796510206486735e-14
5.664851427078247,0.15,-0.04,9.84,0.0,0.0,0.0,0.01,-0.0,0.79,0.61,-8.776144659020706e-15,-2.5322821523884802e-14,1.1796510206486735e-14
5.665285348892212,0.19,0.04,9.8,0.0,0.0,0.0,0.01,-0.0,0.79,0.61,-8.776144659020706e-15,-2.5322821523884802e-14,1.1796510206486735e-14
5.665714263916016,0.19,0.04,9.8,-0.0,0.0,0.0,0.01,-0.0,0.79,0.61,-8.776144659020706e-15,-2.5322821523884802e-14,1.1796510206486735e-14
5.666131258010864,0.19,0.04,9.8,-0.0,0.0,0.0,0.01,-0.0,0.79,0.61,-8.776144659020706e-15,-2.5322821523884802e-14,1.1796510206486735e-14
5.666534185409546,0.19,0.04,9.8,-0.0,0.0,0.0,0.01,-0.0,0.79,0.61,-8.776144659020706e-15,-2.5322821523884802e-14,1.1796510206486735e-14
5.66697096824646,0.19,0.04,9.8,-0.0,0.0,0.0,0.01,-0.0,0.79,0.61,-8.776144659020706e-15,-2.5322821523884802e-14,1.1796510206486735e-14
5.667378664016724,0.19,0.04,9.8,-0.0,0.0,0.0,0.01,-0.0,0.79,0.61,-8.776144659020706e-15,-2.5322821523884802e-14,1.1796510206486735e-14
5.667805910110474,0.19,0.04,9.8,0.0,0.0,0.0,0.01,-0.0,0.79,0.61,-8.776144659020706e-15,-2.5322821523884802e-14,1.1796510206486735e-14
5.6682212352752686,0.19,0.04,9.8,0.0,0.0,0.0,0.01,-0.0,0.79,0.61,-8.776144659020706e-15,-2.5322821523884802e-14,1.1796510206486735e-14
5.668654441833496,0.19,0.04,9.8,0.0,0.0,0.0,0.01,-0.0,0.79,0.61,-8.776144659020706e-15,-2.5322821523884802e-14,1.1796510206486735e-14
5.669060468673706,0.19,0.04,9.8,0.0,0.0,0.0,0.01,-0.0,0.79,0.61,-8.776144659020706e-15,-2.5322821523884802e-14,1.1796510206486735e-14
5.669480562210083,0.15,0.07,9.76,0.0,0.0,0.0,0.01,-0.0,0.79,0.61,-8.776144659020706e-15,-2.5322821523884802e-14,1.1796510206486735e-14
5.6698832511901855,0.15,0.07,9.76,0.0,0.0,0.0,0.01,-0.0,0.79,0.61,-8.776144659020706e-15,-2.5322821523884802e-14,1.1796510206486735e-14
5.670409202575684,0.15,0.07,9.76,-0.0,0.0,0.0,0.01,-0.0,0.79,0.61,-8.776144659020706e-15,-2.5322821523884802e-14,1.1796510206486735e-14
5.670845985412598,0.15,0.07,9.76,-0.0,0.0,0.0,0.01,-0.0,0.79,0.61,-8.776144659020706e-15,-2.5322821523884802e-14,1.1796510206486735e-14
5.67130184173584,0.15,0.07,9.76,-0.0,-0.0,-0.0,0.01,-0.0,0.79,0.61,-8.776144659020706e-15,-2.5322821523884802e-14,1.1796510206486735e-14
5.740756988525391,0.15,0.07,9.76,-0.0,-0.0,-0.0,0.01,-0.0,0.79,0.61,-8.776144659020706e-15,-2.5322821523884802e-14,1.1796510206486735e-14
5.741928339004517,0.15,0.07,9.76,-0.0,0.0,-0.0,0.01,-0.0,0.79,0.61,-8.776144659020706e-15,-2.5322821523884802e-14,1.1796510206486735e-14
5.742515563964844,0.15,0.07,9.76,-0.0,0.0,-0.0,0.01,-0.0,0.79,0.61,-8.776144659020706e-15,-2.5322821523884802e-14,1.1796510206486735e-14
5.743022441864014,0.11,-0.0,9.8,-0.0,0.0,-0.0,0.01,-0.0,0.79,0.61,-8.776144659020706e-15,-2.5322821523884802e-14,1.1796510206486735e-14
5.743722915649414,0.11,-0.0,9.8,-0.0,0.0,-0.0,0.01,-0.0,0.79,0.61,-8.776144659020706e-15,-2.5322821523884802e-14,1.1796510206486735e-14
5.744388818740845,0.11,-0.0,9.8,0.0,0.0,0.0,0.01,-0.0,0.79,0.61,-8.776144659020706e-15,-2.5322821523884802e-14,1.1796510206486735e-14
5.74495530128479,0.11,-0.0,9.8,0.0,0.0,0.0,0.01,-0.0,0.79,0.61,-8.776144659020706e-15,-2.5322821523884802e-14,1.1796510206486735e-14
5.745471239089966,0.11,-0.0,9.8,-0.0,-0.0,0.0,0.01,-0.0,0.79,0.61,-8.776144659020706e-15,-2.5322821523884802e-14,1.1796510206486735e-14
5.7459399700164795,0.11,-0.0,9.8,-0.0,-0.0,0.0,0.01,-0.0,0.79,0.61,-8.776144659020706e-15,-2.5322821523884802e-14,1.1796510206486735e-14
5.746508598327637,0.11,-0.0,9.8,0.0,-0.0,0.0,0.01,-0.0,0.79,0.61,-8.776144659020706e-15,-2.5322821523884802e-14,1.1796510206486735e-14
5.747102499008179,0.11,-0.0,9.8,0.0,-0.0,0.0,0.01,-0.0,0.79,0.61,-8.776144659020706e-15,-2.5322821523884802e-14,1.1796510206486735e-14
5.7475574016571045,0.15,-0.0,9.8,0.0,-0.0,0.0,0.01,-0.0,0.79,0.61,-8.776144659020706e-15,-2.5322821523884802e-14,1.1796510206486735e-14
5.748020887374878,0.15,-0.0,9.8,0.0,-0.0,0.0,0.01,-0.0,0.79,0.61,-8.776144659020706e-15,-2.5322821523884802e-14,1.1796510206486735e-14
5.748499870300293,0.15,-0.0,9.8,0.0,0.0,-0.0,0.01,-0.0,0.79,0.61,-8.776144659020706e-15,-2.5322821523884802e-14,1.1796510206486735e-14
5.748940706253052,0.15,-0.0,9.8,0.0,0.0,-0.0,0.01,-0.0,0.79,0.61,-8.776144659020706e-15,-2.5322821523884802e-14,1.1796510206486735e-14
5.7493627071380615,0.15,-0.0,9.8,0.0,0.0,0.0,0.01,-0.0,0.79,0.61,-8.776144659020706e-15,-2.5322821523884802e-14,1.1796510206486735e-14
5.749759197235107,0.15,-0.0,9.8,0.0,0.0,0.0,0.01,-0.0,0.79,0.61,-8.776144659020706e-15,-2.5322821523884802e-14,1.1796510206486735e-14
5.750218391418457,0.11,-0.08,9.8,0.0,0.0,0.0,0.01,-0.0,0.79,0.61,-8.776144659020706e-15,-2.5322821523884802e-14,1.1796510206486735e-14
5.7506890296936035,0.11,-0.08,9.8,0.0,0.0,0.0,0.01,-0.0,0.79,0.61,-8.776144659020706e-15,-2.5322821523884802e-14,1.1796510206486735e-14
5.751262426376343,0.11,-0.08,9.8,-0.0,-0.0,0.0,0.01,-0.0,0.79,0.61,-8.776144659020706e-15,-2.5322821523884802e-14,1.1796510206486735e-14
5.7516748905181885,0.11,-0.08,9.8,-0.0,-0.0,0.0,0.01,-0.0,0.79,0.61,-8.776144659020706e-15,-2.5322821523884802e-14,1.1796510206486735e-14
5.752077102661133,0.11,-0.08,9.8,0.0,-0.0,-0.0,0.01,-0.0,0.79,0.61,-8.776144659020706e-15,-2.5322821523884802e-14,1.1796510206486735e-14
5.752535343170166,0.11,-0.08,9.8,0.0,-0.0,-0.0,0.01,-0.0,0.79,0.61,-8.776144659020706e-15,-2.5322821523884802e-14,1.1796510206486735e-14
5.752996921539307,0.11,-0.08,9.8,0.0,-0.0,0.0,0.01,-0.0,0.79,0.61,-8.776144659020706e-15,-2.5322821523884802e-14,1.1796510206486735e-14
5.804914236068726,0.11,-0.08,9.8,0.0,-0.0,0.0,0.01,-0.0,0.79,0.61,-8.776144659020706e-15,-2.5322821523884802e-14,1.1796510206486735e-14
5.857191801071167,0.19,0.11,9.8,0.0,-0.0,0.0,0.01,-0.0,0.79,0.61,-8.776144659020706e-15,-2.5322821523884802e-14,1.1796510206486735e-14
5.858072280883789,0.19,0.11,9.8,-0.0,0.0,0.0,0.01,-0.0,0.79,0.61,-8.776144659020706e-15,-2.5322821523884802e-14,1.1796510206486735e-14
5.8586626052856445,0.19,0.11,9.8,-0.0,0.0,0.0,0.01,-0.0,0.79,0.61,-8.776144659020706e-15,-2.5322821523884802e-14,1.1796510206486735e-14
5.859328746795654,0.19,0.11,9.8,-0.0,0.0,0.0,0.01,-0.0,0.79,0.61,-8.776144659020706e-15,-2.5322821523884802e-14,1.1796510206486735e-14
5.85988974571228,0.19,0.11,9.8,0.0,0.0,-0.0,0.01,-0.0,0.79,0.61,-8.776144659020706e-15,-2.5322821523884802e-14,1.1796510206486735e-14
5.860306739807129,0.19,0.11,9.8,0.0,0.0,-0.0,0.01,-0.0,0.79,0.61,-8.776144659020706e-15,-2.5322821523884802e-14,1.1796510206486735e-14
5.860735893249512,0.07,-0.04,9.8,0.0,0.0,-0.0,0.01,-0.0,0.79,0.61,-8.776144659020706e-15,-2.5322821523884802e-14,1.1796510206486735e-14
5.86112642288208,0.07,-0.04,9.8,0.0,0.0,-0.0,0.01,-0.0,0.79,0.61,-8.776144659020706e-15,-2.5322821523884802e-14,1.1796510206486735e-14
5.861549615859985,0.07,-0.04,9.8,0.0,-0.0,0.0,0.01,-0.0,0.79,0.61,-8.776144659020706e-15,-2.5322821523884802e-14,1.1796510206486735e-14
5.861955642700195,0.07,-0.04,9.8,0.0,-0.0,0.0,0.01,-0.0,0.79,0.61,-8.776144659020706e-15,-2.5322821523884802e-14,1.1796510206486735e-14
5.8623411655426025,0.07,-0.04,9.8,0.0,0.0,0.0,0.01,-0.0,0.79,0.61,-8.776144659020706e-15,-2.5322821523884802e-14,1.1796510206486735e-14
5.862719535827637,0.07,-0.04,9.8,0.0,0.0,0.0,0.01,-0.0,0.79,0.61,-8.776144659020706e-15,-2.5322821523884802e-14,1.1796510206486735e-14
5.86308741569519,0.19,0.04,9.72,0.0,0.0,0.0,0.01,-0.0,0.79,0.61,-8.776144659020706e-15,-2.5322821523884802e-14,1.1796510206486735e-14
5.863500356674194,0.19,0.04,9.72,0.0,0.0,0.0,0.01,-0.0,0.79,0.61,-8.776144659020706e-15,-2.5322821523884802e-14,1.1796510206486735e-14
5.863886117935181,0.19,0.04,9.72,0.0,0.0,-0.0,0.01,-0.0,0.79,0.61,-8.776144659020706e-15,-2.5322821523884802e-14,1.1796510206486735e-14
5.864256858825684,0.19,0.04,9.72,0.0,0.0,-0.0,0.01,-0.0,0.79,0.61,-8.776144659020706e-15,-2.5322821523884802e-14,1.1796510206486735e-14
5.864655017852783,0.19,0.04,9.72,-0.0,0.0,0.0,0.01,-0.0,0.79,0.61,-8.776144659020706e-15,-2.5322821523884802e-14,1.1796510206486735e-14
5.865032911300659,0.19,0.04,9.72,-0.0,0.0,0.0,0.01,-0.0,0.79,0.61,-8.776144659020706e-15,-2.5322821523884802e-14,1.1796510206486735e-14
5.865511178970337,0.19,0.04,9.72,0.0,0.0,0.0,0.01,-0.0,0.79,0.61,-8.776144659020706e-15,-2.5322821523884802e-14,1.1796510206486735e-14
5.8660924434661865,0.19,0.04,9.72,0.0,0.0,0.0,0.01,-0.0,0.79,0.61,-8.776144659020706e-15,-2.5322821523884802e-14,1.1796510206486735e-14
5.86654257774353,0.11,0.07,9.76,0.0,0.0,0.0,0.01,-0.0,0.79,0.61,-8.776144659020706e-15,-2.5322821523884802e-14,1.1796510206486735e-14
5.867076873779297,0.11,0.07,9.76,0.0,0.0,0.0,0.01,-0.0,0.79,0.61,-8.776144659020706e-15,-2.5322821523884802e-14,1.1796510206486735e-14
5.968951940536499,0.11,0.07,9.76,0.0,0.0,-0.0,0.01,-0.0,0.79,0.61,-8.776144659020706e-15,-2.5322821523884802e-14,1.1796510206486735e-14
5.969574928283691,0.11,0.07,9.76,0.0,0.0,-0.0,0.01,-0.0,0.79,0.61,-8.776144659020706e-15,-2.5322821523884802e-14,1.1796510206486735e-14
5.970089673995972,0.11,0.07,9.76,0.0,-0.0,0.0,0.01,-0.0,0.79,0.61,-8.776144659020706e-15,-2.5322821523884802e-14,1.1796510206486735e-14
5.970511198043823,0.11,0.07,9.76,0.0,-0.0,0.0,0.01,-0.0,0.79,0.61,-8.776144659020706e-15,-2.5322821523884802e-14,1.1796510206486735e-14
5.970994234085083,0.11,0.07,9.76,-0.0,0.0,0.0,0.01,-0.0,0.79,0.61,-8.776144659020706e-15,-2.5322821523884802e-14,1.1796510206486735e-14
5.971423625946045,0.11,0.07,9.76,-0.0,0.0,0.0,0.01,-0.0,0.79,0.61,-8.776144659020706e-15,-2.5322821523884802e-14,1.1796510206486735e-14
5.971834182739258,0.15,-0.0,9.84,-0.0,0.0,0.0,0.01,-0.0,0.79,0.61,-8.776144659020706e-15,-2.5322821523884802e-14,1.1796510206486735e-14
5.972273826599121,0.15,-0.0,9.84,0.0,0.0,0.0,0.01,-0.0,0.79,0.61,-8.776144659020706e-15,-2.5322821523884802e-14,1.1796510206486735e-14
5.972692012786865,0.15,-0.0,9.84,0.0,0.0,0.0,0.01,-0.0,0.79,0.61,-8.776144659020706e-15,-2.5322821523884802e-14,1.1796510206486735e-14
5.973087787628174,0.15,-0.0,9.84,0.0,0.0,0.0,0.01,-0.0,0.79,0.61,-8.776144659020706e-15,-2.5322821523884802e-14,1.1796510206486735e-14
5.973526954650879,0.15,-0.0,9.84,0.0,0.01,0.0,0.01,-0.0,0.79,0.61,-8.776144659020706e-15,-2.5322821523884802e-14,1.1796510206486735e-14
5.973944902420044,0.15,-0.0,9.84,0.0,0.01,0.0,0.01,-0.0,0.79,0.61,-8.776144659020706e-15,-2.5322821523884802e-14,1.1796510206486735e-14
5.974399566650391,0.15,-0.0,9.84,0.0,0.0,0.0,0.01,-0.0,0.79,0.61,-8.776144659020706e-15,-2.5322821523884802e-14,1.1796510206486735e-14
5.974804878234863,0.15,-0.0,9.84,0.0,0.0,0.0,0.01,-0.0,0.79,0.61,-8.776144659020706e-15,-2.5322821523884802e-14,1.1796510206486735e-14
6.0258636474609375,0.07,-0.04,9.8,0.0,0.0,0.0,0.01,-0.0,0.79,0.61,-8.776144659020706e-15,-2.5322821523884802e-14,1.1796510206486735e-14
6.026471376419067,0.07,-0.04,9.8,0.0,0.0,0.0,0.01,-0.0,0.79,0.61,-8.776144659020706e-15,-2.5322821523884802e-14,1.1796510206486735e-14
6.0270609855651855,0.07,-0.04,9.8,0.0,0.0,-0.0,0.01,-0.0,0.79,0.61,-8.776144659020706e-15,-2.5322821523884802e-14,1.1796510206486735e-14
6.027582883834839,0.07,-0.04,9.8,0.0,0.0,-0.0,0.01,-0.0,0.79,0.61,-8.776144659020706e-15,-2.5322821523884802e-14,1.1796510206486735e-14
6.0280115604400635,0.07,-0.04,9.8,0.0,0.0,-0.0,0.01,-0.0,0.79,0.61,-8.776144659020706e-15,-2.5322821523884802e-14,1.1796510206486735e-14
6.028466701507568,0.07,-0.04,9.8,0.0,0.0,-0.0,0.01,-0.0,0.79,0.61,-8.776144659020706e-15,-2.5322821523884802e-14,1.1796510206486735e-14
6.028890132904053,0.07,-0.04,9.8,0.0,0.0,0.0,0.01,-0.0,0.79,0.61,-8.776144659020706e-15,-2.5322821523884802e-14,1.1796510206486735e-14
6.029299736022949,0.07,-0.04,9.8,0.0,0.0,0.0,0.01,-0.0,0.79,0.61,-8.776144659020706e-15,-2.5322821523884802e-14,1.1796510206486735e-14
6.0297160148620605,0.23,0.07,9.8,0.0,0.0,0.0,0.01,-0.0,0.79,0.61,-8.776144659020706e-15,-2.5322821523884802e-14,1.1796510206486735e-14
6.0302653312683105,0.23,0.07,9.8,0.0,0.0,0.0,0.01,-0.0,0.79,0.61,-8.776144659020706e-15,-2.5322821523884802e-14,1.1796510206486735e-14
6.03084659576416,0.23,0.07,9.8,0.0,0.0,0.0,0.01,-0.0,0.79,0.61,-8.776144659020706e-15,-2.5322821523884802e-14,1.1796510206486735e-14
6.0314812660217285,0.23,0.07,9.8,0.0,0.0,0.0,0.01,-0.0,0.79,0.61,-8.776144659020706e-15,-2.5322821523884802e-14,1.1796510206486735e-14
6.084686040878296,0.23,0.07,9.8,0.0,0.0,0.0,0.01,-0.0,0.79,0.61,-8.776144659020706e-15,-2.5322821523884802e-14,1.1796510206486735e-14
6.085374355316162,0.23,0.07,9.8,0.0,0.0,0.0,0.01,-0.0,0.79,0.61,-8.776144659020706e-15,-2.5322821523884802e-14,1.1796510206486735e-14
6.086026668548584,0.11,-0.0,9.84,0.0,0.0,0.0,0.01,-0.0,0.79,0.61,-8.776144659020706e-15,-2.5322821523884802e-14,1.1796510206486735e-14
6.086472511291504,0.11,-0.0,9.84,0.0,0.0,0.0,0.01,-0.0,0.79,0.61,-8.776144659020706e-15,-2.5322821523884802e-14,1.1796510206486735e-14
6.08690881729126,0.11,-0.0,9.84,-0.0,0.0,-0.0,0.01,-0.0,0.79,0.61,-8.776144659020706e-15,-2.5322821523884802e-14,1.1796510206486735e-14
6.087341070175171,0.11,-0.0,9.84,-0.0,0.0,-0.0,0.01,-0.0,0.79,0.61,-8.776144659020706e-15,-2.5322821523884802e-14,1.1796510206486735e-14
6.087810516357422,0.11,-0.0,9.84,0.0,0.0,-0.0,0.01,-0.0,0.79,0.61,-8.776144659020706e-15,-2.5322821523884802e-14,1.1796510206486735e-14
6.0882408618927,0.11,-0.0,9.84,0.0,0.0,-0.0,0.01,-0.0,0.79,0.61,-8.776144659020706e-15,-2.5322821523884802e-14,1.1796510206486735e-14
6.088643550872803,0.11,-0.0,9.84,0.0,0.0,-0.0,0.01,-0.0,0.79,0.61,-8.776144659020706e-15,-2.5322821523884802e-14,1.1796510206486735e-14
6.089111328125,0.11,-0.0,9.84,0.0,0.0,-0.0,0.01,-0.0,0.79,0.61,-8.776144659020706e-15,-2.5322821523884802e-14,1.1796510206486735e-14
6.0896008014678955,0.23,-0.0,9.88,0.0,0.0,-0.0,0.01,-0.0,0.79,0.61,-8.776144659020706e-15,-2.5322821523884802e-14,1.1796510206486735e-14
6.090123891830444,0.23,-0.0,9.88,-0.0,0.0,0.0,0.01,-0.0,0.79,0.61,-8.776144659020706e-15,-2.5322821523884802e-14,1.1796510206486735e-14
6.090599060058594,0.23,-0.0,9.88,-0.0,0.0,0.0,0.01,-0.0,0.79,0.61,-8.776144659020706e-15,-2.5322821523884802e-14,1.1796510206486735e-14
6.091039657592773,0.23,-0.0,9.88,-0.0,0.0,0.0,0.01,-0.0,0.79,0.61,-8.776144659020706e-15,-2.5322821523884802e-14,1.1796510206486735e-14
6.091477155685425,0.23,-0.0,9.88,0.0,-0.0,0.0,0.01,-0.0,0.79,0.61,-8.776144659020706e-15,-2.5322821523884802e-14,1.1796510206486735e-14
6.09190559387207,0.23,-0.0,9.88,0.0,-0.0,0.0,0.01,-0.0,0.79,0.61,-8.776144659020706e-15,-2.5322821523884802e-14,1.1796510206486735e-14
6.092316389083862,0.23,-0.0,9.88,0.0,-0.0,0.0,0.01,-0.0,0.79,0.61,-8.776144659020706e-15,-2.5322821523884802e-14,1.1796510206486735e-14
6.092714786529541,0.23,-0.0,9.88,0.0,-0.0,0.0,0.01,-0.0,0.79,0.61,-8.776144659020706e-15,-2.5322821523884802e-14,1.1796510206486735e-14
6.093141317367554,0.23,-0.0,9.88,-0.01,0.0,0.0,0.01,-0.0,0.79,0.61,-8.776144659020706e-15,-2.5322821523884802e-14,1.1796510206486735e-14
6.093566179275513,0.23,-0.0,9.88,-0.01,0.0,0.0,0.01,-0.0,0.79,0.61,-8.776144659020706e-15,-2.5322821523884802e-14,1.1796510206486735e-14
6.093995094299316,0.11,-0.04,9.84,-0.01,0.0,0.0,0.01,-0.0,0.79,0.61,-8.776144659020706e-15,-2.5322821523884802e-14,1.1796510206486735e-14
6.147031784057617,0.11,-0.04,9.84,-0.01,0.0,0.0,0.01,-0.0,0.79,0.61,-8.776144659020706e-15,-2.5322821523884802e-14,1.1796510206486735e-14
6.147711992263794,0.11,-0.04,9.84,0.0,-0.0,0.0,0.01,-0.0,0.79,0.61,-8.776144659020706e-15,-2.5322821523884802e-14,1.1796510206486735e-14
6.148243188858032,0.11,-0.04,9.84,0.0,-0.0,0.0,0.01,-0.0,0.79,0.61,-8.776144659020706e-15,-2.5322821523884802e-14,1.1796510206486735e-14
6.148650646209717,0.11,-0.04,9.84,0.01,0.0,0.0,0.01,-0.0,0.79,0.61,-8.776144659020706e-15,-2.5322821523884802e-14,1.1796510206486735e-14
6.149048805236816,0.11,-0.04,9.84,0.01,0.0,0.0,0.01,-0.0,0.79,0.61,-8.776144659020706e-15,-2.5322821523884802e-14,1.1796510206486735e-14
6.1494529247283936,0.15,0.07,9.72,0.01,0.0,0.0,0.01,-0.0,0.79,0.61,-8.776144659020706e-15,-2.5322821523884802e-14,1.1796510206486735e-14
6.149842977523804,0.15,0.07,9.72,0.01,0.0,0.0,0.01,-0.0,0.79,0.61,-8.776144659020706e-15,-2.5322821523884802e-14,1.1796510206486735e-14
6.15057635307312,0.15,0.07,9.72,0.0,0.0,0.0,0.01,-0.0,0.79,0.61,-8.776144659020706e-15,-2.5322821523884802e-14,1.1796510206486735e-14
6.1514904499053955,0.15,0.07,9.72,0.0,0.0,0.0,0.01,-0.0,0.79,0.61,-8.776144659020706e-15,-2.5322821523884802e-14,1.1796510206486735e-14
6.1520676612854,0.15,0.07,9.72,-0.01,0.01,-0.0,0.01,-0.0,0.79,0.61,-8.776144659020706e-15,-2.5322821523884802e-14,1.1796510206486735e-14
6.1525633335113525,0.15,0.07,9.72,-0.01,0.01,-0.0,0.01,-0.0,0.79,0.61,-8.776144659020706e-15,-2.5322821523884802e-14,1.1796510206486735e-14
6.1531171798706055,0.15,0.07,9.72,-0.0,0.0,-0.0,0.01,-0.0,0.79,0.61,-8.776144659020706e-15,-2.5322821523884802e-14,1.1796510206486735e-14
6.153594970703125,0.15,0.07,9.72,-0.0,0.0,-0.0,0.01,-0.0,0.79,0.61,-8.776144659020706e-15,-2.5322821523884802e-14,1.1796510206486735e-14
6.154008865356445,0.15,0.07,9.72,-0.0,0.0,-0.0,0.01,-0.0,0.79,0.61,-8.776144659020706e-15,-2.5322821523884802e-14,1.1796510206486735e-14
6.154386281967163,0.15,0.07,9.72,-0.0,0.0,-0.0,0.01,-0.0,0.79,0.61,-8.776144659020706e-15,-2.5322821523884802e-14,1.1796510206486735e-14
6.154752016067505,0.15,0.04,9.8,-0.0,0.0,-0.0,0.01,-0.0,0.79,0.61,-8.776144659020706e-15,-2.5322821523884802e-14,1.1796510206486735e-14
6.15517520904541,0.15,0.04,9.8,-0.0,0.0,-0.0,0.01,-0.0,0.79,0.61,-8.776144659020706e-15,-2.5322821523884802e-14,1.1796510206486735e-14
6.155582427978516,0.15,0.04,9.8,-0.0,-0.01,-0.0,0.01,-0.0,0.79,0.61,-8.776144659020706e-15,-2.5322821523884802e-14,1.1796510206486735e-14
6.206820726394653,0.15,0.04,9.8,-0.0,-0.01,-0.0,0.01,-0.0,0.79,0.61,-8.776144659020706e-15,-2.5322821523884802e-14,1.1796510206486735e-14
6.2075958251953125,0.19,0.04,9.84,-0.0,-0.01,-0.0,0.01,-0.0,0.79,0.61,-8.776144659020706e-15,-2.5322821523884802e-14,1.1796510206486735e-14
6.20812726020813,0.19,0.04,9.84,-0.0,-0.01,-0.0,0.01,-0.0,0.79,0.61,-8.776144659020706e-15,-2.5322821523884802e-14,1.1796510206486735e-14
6.259606599807739,0.19,0.04,9.84,0.0,-0.0,0.0,0.01,-0.0,0.79,0.61,-8.776144659020706e-15,-2.5322821523884802e-14,1.1796510206486735e-14
6.260300874710083,0.19,0.04,9.84,0.0,-0.0,0.0,0.01,-0.0,0.79,0.61,-8.776144659020706e-15,-2.5322821523884802e-14,1.1796510206486735e-14
6.260751485824585,0.19,0.04,9.84,0.0,0.0,-0.01,0.01,-0.0,0.79,0.61,-8.776144659020706e-15,-2.5322821523884802e-14,1.1796510206486735e-14
6.261174917221069,0.19,0.04,9.84,0.0,0.0,-0.01,0.01,-0.0,0.79,0.61,-8.776144659020706e-15,-2.5322821523884802e-14,1.1796510206486735e-14
6.2616026401519775,0.19,0.04,9.84,-0.01,0.0,-0.01,0.01,-0.0,0.79,0.61,-8.776144659020706e-15,-2.5322821523884802e-14,1.1796510206486735e-14
6.261977672576904,0.19,0.04,9.84,-0.01,0.0,-0.01,0.01,-0.0,0.79,0.61,-8.776144659020706e-15,-2.5322821523884802e-14,1.1796510206486735e-14
6.262342691421509,0.19,0.04,9.84,0.0,-0.0,-0.0,0.01,-0.0,0.79,0.61,-8.776144659020706e-15,-2.5322821523884802e-14,1.1796510206486735e-14
6.262740612030029,0.19,0.04,9.84,0.0,-0.0,-0.0,0.01,-0.0,0.79,0.61,-8.776144659020706e-15,-2.5322821523884802e-14,1.1796510206486735e-14
6.263192415237427,0.07,0.04,9.76,0.0,-0.0,-0.0,0.01,-0.0,0.79,0.61,-8.776144659020706e-15,-2.5322821523884802e-14,1.1796510206486735e-14
6.2637553215026855,0.07,0.04,9.76,0.0,-0.0,-0.0,0.01,-0.0,0.79,0.61,-8.776144659020706e-15,-2.5322821523884802e-14,1.1796510206486735e-14
6.264240503311157,0.07,0.04,9.76,-0.0,0.01,0.0,0.01,-0.0,0.79,0.61,-8.776144659020706e-15,-2.5322821523884802e-14,1.1796510206486735e-14
6.264647006988525,0.07,0.04,9.76,-0.0,0.01,0.0,0.01,-0.0,0.79,0.61,-8.776144659020706e-15,-2.5322821523884802e-14,1.1796510206486735e-14
6.265099287033081,0.07,0.04,9.76,-0.0,0.0,-0.0,0.01,-0.0,0.79,0.61,-8.776144659020706e-15,-2.5322821523884802e-14,1.1796510206486735e-14
6.265502214431763,0.07,0.04,9.76,-0.0,0.0,-0.0,0.01,-0.0,0.79,0.61,-8.776144659020706e-15,-2.5322821523884802e-14,1.1796510206486735e-14
6.265894889831543,0.07,0.04,9.76,0.0,-0.0,0.0,0.01,-0.0,0.79,0.61,-8.776144659020706e-15,-2.5322821523884802e-14,1.1796510206486735e-14
6.266330003738403,0.07,0.04,9.76,0.0,-0.0,0.0,0.01,-0.0,0.79,0.61,-8.776144659020706e-15,-2.5322821523884802e-14,1.1796510206486735e-14
6.266732692718506,0.07,0.04,9.76,-0.0,0.0,0.0,0.01,-0.0,0.79,0.61,-8.776144659020706e-15,-2.5322821523884802e-14,1.1796510206486735e-14
6.267197847366333,0.07,0.04,9.76,-0.0,0.0,0.0,0.01,-0.0,0.79,0.61,-8.776144659020706e-15,-2.5322821523884802e-14,1.1796510206486735e-14
6.2676098346710205,0.11,-0.04,9.84,-0.0,0.0,0.0,0.01,-0.0,0.79,0.61,-8.776144659020706e-15,-2.5322821523884802e-14,1.1796510206486735e-14
6.26800799369812,0.11,-0.04,9.84,-0.0,0.0,0.0,0.01,-0.0,0.79,0.61,-8.776144659020706e-15,-2.5322821523884802e-14,1.1796510206486735e-14
6.268441677093506,0.11,-0.04,9.84,0.01,-0.0,0.0,0.01,-0.0,0.79,0.61,-8.776144659020706e-15,-2.5322821523884802e-14,1.1796510206486735e-14
6.2688398361206055,0.11,-0.04,9.84,0.01,-0.0,0.0,0.01,-0.0,0.79,0.61,-8.776144659020706e-15,-2.5322821523884802e-14,1.1796510206486735e-14
6.269261360168457,0.11,-0.04,9.84,-0.0,0.0,0.01,0.01,-0.0,0.79,0.61,-8.776144659020706e-15,-2.5322821523884802e-14,1.1796510206486735e-14
6.324116468429565,0.11,-0.04,9.84,-0.0,0.0,0.01,0.01,-0.0,0.79,0.61,-8.776144659020706e-15,-2.5322821523884802e-14,1.1796510206486735e-14
6.375647306442261,0.11,-0.04,9.84,-0.0,0.0,-0.0,0.01,-0.0,0.79,0.61,-8.776144659020706e-15,-2.5322821523884802e-14,1.1796510206486735e-14
6.37630558013916,0.11,-0.04,9.84,-0.0,0.0,-0.0,0.01,-0.0,0.79,0.61,-8.776144659020706e-15,-2.5322821523884802e-14,1.1796510206486735e-14
6.377227306365967,0.15,0.11,9.76,-0.0,0.0,-0.0,0.01,-0.0,0.79,0.61,-8.776144659020706e-15,-2.5322821523884802e-14,1.1796510206486735e-14
6.3778650760650635,0.15,0.11,9.76,-0.0,0.0,-0.0,0.01,-0.0,0.79,0.61,-8.776144659020706e-15,-2.5322821523884802e-14,1.1796510206486735e-14
6.378372430801392,0.15,0.11,9.76,-0.01,0.01,0.0,0.01,-0.0,0.79,0.61,-8.776144659020706e-15,-2.5322821523884802e-14,1.1796510206486735e-14
6.3789660930633545,0.15,0.11,9.76,-0.01,0.01,0.0,0.01,-0.0,0.79,0.61,-8.776144659020706e-15,-2.5322821523884802e-14,1.1796510206486735e-14
6.379385948181152,0.15,0.11,9.76,0.0,0.0,0.0,0.01,-0.0,0.79,0.61,-8.776144659020706e-15,-2.5322821523884802e-14,1.1796510206486735e-14
6.3798301219940186,0.15,0.11,9.76,0.0,0.0,0.0,0.01,-0.0,0.79,0.61,-8.776144659020706e-15,-2.5322821523884802e-14,1.1796510206486735e-14
