Timestamp,AccelX,AccelY,AccelZ,GyroX,GyroY,GyroZ,QuatW,QuatX,QuatY,QuatZ,Tilt,Obliquity,Rotation
2.3012685775756836,-1.15,2.87,9.08,0.0,0.0,0.0,0.05,0.16,0.76,0.63,-1.9400065441509859e-13,2.265189036618102e-14,-2.8361367151204843e-14
2.3024795055389404,-1.15,2.87,9.08,0.0,0.0,0.0,0.05,0.16,0.76,0.63,-1.9400065441509859e-13,2.265189036618102e-14,-2.8361367151204843e-14
2.3031978607177734,-1.15,2.87,9.08,0.0,0.0,0.0,0.05,0.16,0.76,0.63,-1.9400065441509859e-13,2.265189036618102e-14,-2.8361367151204843e-14
2.3036863803863525,-1.15,2.87,9.08,0.0,0.0,0.0,0.05,0.16,0.76,0.63,-1.9400065441509859e-13,2.265189036618102e-14,-2.8361367151204843e-14
2.304110050201416,-1.15,2.87,9.08,0.0,0.0,0.0,0.05,0.16,0.76,0.63,-1.9400065441509859e-13,2.265189036618102e-14,-2.8361367151204843e-14
2.3048315048217773,-1.15,2.87,9.08,0.0,0.0,0.0,0.05,0.16,0.76,0.63,-1.9400065441509859e-13,2.265189036618102e-14,-2.8361367151204843e-14
2.3052003383636475,-1.15,2.87,9.08,0.0,0.0,0.0,0.05,0.16,0.76,0.63,-1.9400065441509859e-13,2.265189036618102e-14,-2.8361367151204843e-14
2.305514335632324,-1.15,2.87,9.08,0.0,0.0,0.0,0.05,0.16,0.76,0.63,-1.9400065441509859e-13,2.265189036618102e-14,-2.8361367151204843e-14
2.305750608444214,-1.19,2.84,9.08,0.0,0.0,0.0,0.05,0.16,0.76,0.63,-1.9400065441509859e-13,2.265189036618102e-14,-2.8361367151204843e-14
2.305988311767578,-1.19,2.84,9.08,0.0,0.0,0.0,0.05,0.16,0.76,0.63,-1.9400065441509859e-13,2.265189036618102e-14,-2.8361367151204843e-14
2.306241273880005,-1.19,2.84,9.08,0.0,0.0,0.0,0.05,0.16,0.76,0.63,-1.9400065441509859e-13,2.265189036618102e-14,-2.8361367151204843e-14
2.3065736293792725,-1.19,2.84,9.08,0.0,0.0,0.0,0.05,0.16,0.76,0.63,-1.9400065441509859e-13,2.265189036618102e-14,-2.8361367151204843e-14
2.3068337440490723,-1.19,2.84,9.08,0.0,0.0,0.0,0.05,0.16,0.76,0.63,-1.9400065441509859e-13,2.265189036618102e-14,-2.8361367151204843e-14
2.3070554733276367,-1.19,2.84,9.08,0.0,0.0,0.0,0.05,0.16,0.76,0.63,-1.9400065441509859e-13,2.265189036618102e-14,-2.8361367151204843e-14
2.3072688579559326,-1.19,2.84,9.08,0.0,0.0,0.0,0.05,0.16,0.76,0.63,-1.9400065441509859e-13,2.265189036618102e-14,-2.8361367151204843e-14
2.3074424266815186,-1.19,2.84,9.08,0.0,0.0,0.0,0.05,0.16,0.76,0.63,-1.9400065441509859e-13,2.265189036618102e-14,-2.8361367151204843e-14
2.3076331615448,-1.19,2.95,9.12,0.0,0.0,0.0,0.05,0.16,0.76,0.63,-1.9400065441509859e-13,2.265189036618102e-14,-2.8361367151204843e-14
2.3077950477600098,-1.19,2.95,9.12,0.0,0.0,0.0,0.05,0.16,0.76,0.63,-1.9400065441509859e-13,2.265189036618102e-14,-2.8361367151204843e-14
2.3079514503479004,-1.19,2.95,9.12,0.0,0.0,0.0,0.05,0.16,0.76,0.63,-1.9400065441509859e-13,2.265189036618102e-14,-2.8361367151204843e-14
2.3081114292144775,-1.19,2.95,9.12,0.0,0.0,0.0,0.05,0.16,0.76,0.63,-1.9400065441509859e-13,2.265189036618102e-14,-2.8361367151204843e-14
2.3084025382995605,-1.19,2.95,9.12,0.0,0.0,0.0,0.05,0.16,0.76,0.63,-1.9400065441509859e-13,2.265189036618102e-14,-2.8361367151204843e-14
2.3088300228118896,-1.19,2.95,9.12,0.0,0.0,0.0,0.05,0.16,0.76,0.63,-1.9400065441509859e-13,2.265189036618102e-14,-2.8361367151204843e-14
2.3090736865997314,-1.19,2.95,9.12,0.0,0.0,0.0,0.05,0.16,0.76,0.63,-1.9400065441509859e-13,2.265189036618102e-14,-2.8361367151204843e-14
2.3092575073242188,-1.19,2.95,9.12,0.0,0.0,0.0,0.05,0.16,0.76,0.63,-1.9400065441509859e-13,2.265189036618102e-14,-2.8361367151204843e-14
2.3094253540039062,-1.15,2.95,9.12,0.0,0.0,0.0,0.05,0.16,0.76,0.63,-1.9400065441509859e-13,2.265189036618102e-14,-2.8361367151204843e-14
2.3096764087677,-1.15,2.95,9.12,0.0,0.0,0.0,0.05,0.16,0.76,0.63,-1.9400065441509859e-13,2.265189036618102e-14,-2.8361367151204843e-14
2.309798002243042,-1.15,2.95,9.12,0.0,0.0,0.0,0.05,0.16,0.76,0.63,-1.9400065441509859e-13,2.265189036618102e-14,-2.8361367151204843e-14
2.309926748275757,-1.15,2.95,9.12,0.0,0.0,0.0,0.05,0.16,0.76,0.63,-1.9400065441509859e-13,2.265189036618102e-14,-2.8361367151204843e-14
2.3100268840789795,-1.15,2.95,9.12,0.0,0.0,0.0,0.05,0.16,0.76,0.63,-1.9400065441509859e-13,2.265189036618102e-14,-2.8361367151204843e-14
2.3102099895477295,-1.15,2.95,9.12,0.0,0.0,0.0,0.05,0.16,0.76,0.63,-1.9400065441509859e-13,2.265189036618102e-14,-2.8361367151204843e-14
2.3104655742645264,-1.15,2.91,9.12,0.0,0.0,0.0,0.05,0.16,0.76,0.63,-1.9400065441509859e-13,2.265189036618102e-14,-2.8361367151204843e-14
2.3106439113616943,-1.15,2.91,9.12,0.0,0.0,0.0,0.05,0.16,0.76,0.63,-1.9400065441509859e-13,2.265189036618102e-14,-2.8361367151204843e-14
2.310809850692749,-1.15,2.91,9.12,0.0,0.0,0.0,0.05,0.16,0.76,0.63,-1.9400065441509859e-13,2.265189036618102e-14,-2.8361367151204843e-14
2.3111345767974854,-1.15,2.91,9.12,0.0,0.0,0.0,0.05,0.16,0.76,0.63,-1.9400065441509859e-13,2.265189036618102e-14,-2.8361367151204843e-14
2.3113410472869873,-1.15,2.91,9.12,0.0,0.0,0.0,0.05,0.16,0.76,0.63,-1.9400065441509859e-13,2.265189036618102e-14,-2.8361367151204843e-14
2.3116652965545654,-1.15,2.91,9.12,0.0,0.0,0.0,0.05,0.16,0.76,0.63,-1.9400065441509859e-13,2.265189036618102e-14,-2.8361367151204843e-14
2.3118515014648438,-1.15,2.91,9.12,0.0,0.0,0.0,0.05,0.16,0.76,0.63,-1.9400065441509859e-13,2.265189036618102e-14,-2.8361367151204843e-14
2.3120226860046387,-1.15,2.91,9.12,0.0,0.0,0.0,0.05,0.16,0.76,0.63,-1.9400065441509859e-13,2.265189036618102e-14,-2.8361367151204843e-14
2.312204599380493,-1.15,2.91,9.12,0.0,0.0,0.0,0.05,0.16,0.76,0.63,-1.9400065441509859e-13,2.265189036618102e-14,-2.8361367151204843e-14
2.3123717308044434,-1.15,2.91,9.12,0.0,0.0,0.0,0.05,0.16,0.76,0.63,-1.9400065441509859e-13,2.265189036618102e-14,-2.8361367151204843e-14
2.312610626220703,-1.15,2.91,9.12,0.0,0.0,0.0,0.05,0.16,0.76,0.63,-1.9400065441509859e-13,2.265189036618102e-14,-2.8361367151204843e-14
2.312774419784546,-1.15,2.91,9.12,0.0,0.0,0.0,0.05,0.16,0.76,0.63,-1.9400065441509859e-13,2.265189036618102e-14,-2.8361367151204843e-14
2.3128926753997803,-1.15,2.95,9.04,0.0,0.0,0.0,0.05,0.16,0.76,0.63,-1.9400065441509859e-13,2.265189036618102e-14,-2.8361367151204843e-14
2.3130102157592773,-1.15,2.95,9.04,0.0,0.0,0.0,0.05,0.16,0.76,0.63,-1.9400065441509859e-13,2.265189036618102e-14,-2.8361367151204843e-14
2.3762617111206055,-1.15,2.95,9.04,0.0,0.0,0.0,0.05,0.16,0.76,0.63,-1.9400065441509859e-13,2.265189036618102e-14,-2.8361367151204843e-14
2.3765931129455566,-1.15,2.95,9.04,0.0,0.0,0.0,0.05,0.16,0.76,0.63,-1.9400065441509859e-13,2.265189036618102e-14,-2.8361367151204843e-14
2.3768270015716553,-1.15,2.84,9.12,0.0,0.0,0.0,0.05,0.16,0.76,0.63,-1.9400065441509859e-13,2.265189036618102e-14,-2.8361367151204843e-14
2.377023458480835,-1.15,2.84,9.12,0.0,0.0,0.0,0.05,0.16,0.76,0.63,-1.9400065441509859e-13,2.265189036618102e-14,-2.8361367151204843e-14
2.3771893978118896,-1.15,2.84,9.12,0.0,0.0,0.0,0.05,0.16,0.76,0.63,-1.9400065441509859e-13,2.265189036618102e-14,-2.8361367151204843e-14
2.377368688583374,-1.15,2.84,9.12,0.0,0.0,0.0,0.05,0.16,0.76,0.63,-1.9400065441509859e-13,2.265189036618102e-14,-2.8361367151204843e-14
2.3775675296783447,-1.15,2.84,9.12,0.0,0.0,0.0,0.05,0.16,0.76,0.63,-1.9400065441509859e-13,2.265189036618102e-14,-2.8361367151204843e-14
2.37773060798645,-1.15,2.84,9.12,0.0,0.0,0.0,0.05,0.16,0.76,0.63,-1.9400065441509859e-13,2.265189036618102e-14,-2.8361367151204843e-14
2.3778812885284424,-1.15,2.84,9.12,0.0,0.0,0.0,0.05,0.16,0.76,0.63,-1.9400065441509859e-13,2.265189036618102e-14,-2.8361367151204843e-14
2.3780853748321533,-1.15,2.84,9.12,0.0,0.0,0.0,0.05,0.16,0.76,0.63,-1.9400065441509859e-13,2.265189036618102e-14,-2.8361367151204843e-14
2.3783071041107178,-1.15,2.87,9.2,0.0,0.0,0.0,0.05,0.16,0.76,0.63,-1.9400065441509859e-13,2.265189036618102e-14,-2.8361367151204843e-14
2.3784806728363037,-1.15,2.87,9.2,0.0,0.0,0.0,0.05,0.16,0.76,0.63,-1.9400065441509859e-13,2.265189036618102e-14,-2.8361367151204843e-14
2.3787145614624023,-1.15,2.87,9.2,0.0,0.0,0.0,0.05,0.16,0.76,0.63,-1.9400065441509859e-13,2.265189036618102e-14,-2.8361367151204843e-14
2.378901720046997,-1.15,2.87,9.2,0.0,0.0,0.0,0.05,0.16,0.76,0.63,-1.9400065441509859e-13,2.265189036618102e-14,-2.8361367151204843e-14
2.3790810108184814,-1.15,2.87,9.2,0.0,0.0,0.0,0.05,0.16,0.76,0.63,-1.9400065441509859e-13,2.265189036618102e-14,-2.8361367151204843e-14
2.4332692623138428,-1.15,2.87,9.2,0.0,0.0,0.0,0.05,0.16,0.76,0.63,-1.9400065441509859e-13,2.265189036618102e-14,-2.8361367151204843e-14
2.4337546825408936,-1.15,2.87,9.2,0.0,0.0,0.0,0.05,0.16,0.76,0.63,-1.9400065441509859e-13,2.265189036618102e-14,-2.8361367151204843e-14
2.433976650238037,-1.15,2.87,9.2,0.0,0.0,0.0,0.05,0.16,0.76,0.63,-1.9400065441509859e-13,2.265189036618102e-14,-2.8361367151204843e-14
2.4341862201690674,-1.19,2.87,9.2,0.0,0.0,0.0,0.05,0.16,0.76,0.63,-1.9400065441509859e-13,2.265189036618102e-14,-2.8361367151204843e-14
2.4344518184661865,-1.19,2.87,9.2,0.0,0.0,0.0,0.05,0.16,0.76,0.63,-1.9400065441509859e-13,2.265189036618102e-14,-2.8361367151204843e-14
2.434644937515259,-1.19,2.87,9.2,0.0,0.0,0.0,0.05,0.16,0.76,0.63,-1.9400065441509859e-13,2.265189036618102e-14,-2.8361367151204843e-14
2.4348204135894775,-1.19,2.87,9.2,0.0,0.0,0.0,0.05,0.16,0.76,0.63,-1.9400065441509859e-13,2.265189036618102e-14,-2.8361367151204843e-14
2.43499493598938,-1.19,2.87,9.2,0.0,0.0,0.0,0.05,0.16,0.76,0.63,-1.9400065441509859e-13,2.265189036618102e-14,-2.8361367151204843e-14
2.435147285461426,-1.19,2.87,9.2,0.0,0.0,0.0,0.05,0.16,0.76,0.63,-1.9400065441509859e-13,2.265189036618102e-14,-2.8361367151204843e-14
2.435338258743286,-1.19,2.87,9.2,0.0,0.0,0.0,0.05,0.16,0.76,0.63,-1.9400065441509859e-13,2.265189036618102e-14,-2.8361367151204843e-14
2.4355227947235107,-1.19,2.87,9.2,0.0,0.0,0.0,0.05,0.16,0.76,0.63,-1.9400065441509859e-13,2.265189036618102e-14,-2.8361367151204843e-14
2.4357211589813232,-1.15,2.87,9.2,0.0,0.0,0.0,0.05,0.16,0.76,0.63,-1.9400065441509859e-13,2.265189036618102e-14,-2.8361367151204843e-14
2.4359099864959717,-1.15,2.87,9.2,0.0,0.0,0.0,0.05,0.16,0.76,0.63,-1.9400065441509859e-13,2.265189036618102e-14,-2.8361367151204843e-14
2.491682529449463,-1.15,2.87,9.2,0.0,0.0,0.0,0.05,0.16,0.76,0.63,-1.9400065441509859e-13,2.265189036618102e-14,-2.8361367151204843e-14
2.491992712020874,-1.15,2.87,9.2,0.0,0.0,0.0,0.05,0.16,0.76,0.63,-1.9400065441509859e-13,2.265189036618102e-14,-2.8361367151204843e-14
2.4922609329223633,-1.15,2.87,9.2,0.0,0.0,0.0,0.05,0.16,0.76,0.63,-1.9400065441509859e-13,2.265189036618102e-14,-2.8361367151204843e-14
2.492500066757202,-1.15,2.87,9.2,0.0,0.0,0.0,0.05,0.16,0.76,0.63,-1.9400065441509859e-13,2.265189036618102e-14,-2.8361367151204843e-14
2.4926838874816895,-1.15,2.87,9.2,0.0,0.0,0.0,0.05,0.16,0.76,0.63,-1.9400065441509859e-13,2.265189036618102e-14,-2.8361367151204843e-14
2.492893934249878,-1.15,2.87,9.2,0.0,0.0,0.0,0.05,0.16,0.76,0.63,-1.9400065441509859e-13,2.265189036618102e-14,-2.8361367151204843e-14
2.4930694103240967,-1.11,2.87,9.12,0.0,0.0,0.0,0.05,0.16,0.76,0.63,-1.9400065441509859e-13,2.265189036618102e-14,-2.8361367151204843e-14
2.4932711124420166,-1.11,2.87,9.12,0.0,0.0,0.0,0.05,0.16,0.76,0.63,-1.9400065441509859e-13,2.265189036618102e-14,-2.8361367151204843e-14
2.4936461448669434,-1.11,2.87,9.12,0.0,0.0,0.0,0.05,0.16,0.76,0.63,-1.9400065441509859e-13,2.265189036618102e-14,-2.8361367151204843e-14
2.493838310241699,-1.11,2.87,9.12,0.0,0.0,0.0,0.05,0.16,0.76,0.63,-1.9400065441509859e-13,2.265189036618102e-14,-2.8361367151204843e-14
2.4940569400787354,-1.19,2.87,9.12,0.0,0.0,0.0,0.05,0.16,0.76,0.63,-1.9400065441509859e-13,2.265189036618102e-14,-2.8361367151204843e-14
2.4942212104797363,-1.19,2.87,9.12,0.0,0.0,0.0,0.05,0.16,0.76,0.63,-1.9400065441509859e-13,2.265189036618102e-14,-2.8361367151204843e-14
2.4943807125091553,-1.19,2.87,9.12,0.0,0.0,0.0,0.05,0.16,0.76,0.63,-1.9400065441509859e-13,2.265189036618102e-14,-2.8361367151204843e-14
2.494550943374634,-1.19,2.87,9.12,0.0,0.0,0.0,0.05,0.16,0.76,0.63,-1.9400065441509859e-13,2.265189036618102e-14,-2.8361367151204843e-14
2.5512869358062744,-1.19,2.87,9.12,0.0,0.0,0.0,0.05,0.16,0.76,0.63,-1.9400065441509859e-13,2.265189036618102e-14,-2.8361367151204843e-14
2.551612138748169,-1.19,2.87,9.12,0.0,0.0,0.0,0.05,0.16,0.76,0.63,-1.9400065441509859e-13,2.265189036618102e-14,-2.8361367151204843e-14
2.5518152713775635,-1.19,2.87,9.12,0.0,0.0,0.0,0.05,0.16,0.76,0.63,-1.9400065441509859e-13,2.265189036618102e-14,-2.8361367151204843e-14
2.552051305770874,-1.19,2.87,9.12,0.0,0.0,0.0,0.05,0.16,0.76,0.63,-1.9400065441509859e-13,2.265189036618102e-14,-2.8361367151204843e-14
2.552234172821045,-1.19,2.87,9.12,0.0,0.0,0.0,0.05,0.16,0.76,0.63,-1.9400065441509859e-13,2.265189036618102e-14,-2.8361367151204843e-14
2.552396297454834,-1.19,2.87,9.12,0.0,0.0,0.0,0.05,0.16,0.76,0.63,-1.9400065441509859e-13,2.265189036618102e-14,-2.8361367151204843e-14
2.5525457859039307,-1.19,2.91,9.16,0.0,0.0,0.0,0.05,0.16,0.76,0.63,-1.9400065441509859e-13,2.265189036618102e-14,-2.8361367151204843e-14
2.5527400970458984,-1.19,2.91,9.16,0.0,0.0,0.0,0.05,0.16,0.76,0.63,-1.9400065441509859e-13,2.265189036618102e-14,-2.8361367151204843e-14
2.5529749393463135,-1.19,2.91,9.16,0.0,0.0,0.0,0.05,0.16,0.76,0.63,-1.9400065441509859e-13,2.265189036618102e-14,-2.8361367151204843e-14
2.553163766860962,-1.19,2.91,9.16,0.0,0.0,0.0,0.05,0.16,0.76,0.63,-1.9400065441509859e-13,2.265189036618102e-14,-2.8361367151204843e-14
2.5534186363220215,-1.19,2.91,9.16,0.0,0.0,0.0,0.05,0.16,0.76,0.63,-1.9400065441509859e-13,2.265189036618102e-14,-2.8361367151204843e-14
2.553586483001709,-1.19,2.91,9.16,0.0,0.0,0.0,0.05,0.16,0.76,0.63,-1.9400065441509859e-13,2.265189036618102e-14,-2.8361367151204843e-14
2.553807497024536,-1.15,2.91,9.2,0.0,0.0,0.0,0.05,0.16,0.76,0.63,-1.9400065441509859e-13,2.265189036618102e-14,-2.8361367151204843e-14
2.6087303161621094,-1.15,2.91,9.2,0.0,0.0,0.0,0.05,0.16,0.76,0.63,-1.9400065441509853e-13,2.2651890366181013e-14,-2.8361367151204834e-14
2.6096365451812744,-1.15,2.91,9.2,0.0,0.0,0.0,0.05,0.16,0.76,0.63,-1.9400065441509853e-13,2.2651890366181013e-14,-2.8361367151204834e-14
2.610182523727417,-1.15,2.91,9.2,0.0,0.0,0.0,0.05,0.16,0.76,0.63,-1.9400065441509853e-13,2.2651890366181013e-14,-2.8361367151204834e-14
2.610621213912964,-1.15,2.91,9.2,0.0,0.0,0.0,0.05,0.16,0.76,0.63,-1.9400065441509853e-13,2.2651890366181013e-14,-2.8361367151204834e-14
2.611400604248047,-1.15,2.91,9.2,0.0,0.0,0.0,0.05,0.16,0.76,0.63,-1.9400065441509853e-13,2.2651890366181013e-14,-2.8361367151204834e-14
2.611858367919922,-1.15,2.91,9.2,0.0,0.0,0.0,0.05,0.16,0.76,0.63,-1.9400065441509853e-13,2.2651890366181013e-14,-2.8361367151204834e-14
2.612248182296753,-1.15,2.91,9.2,0.0,0.0,0.0,0.05,0.16,0.76,0.63,-1.9400065441509853e-13,2.2651890366181013e-14,-2.8361367151204834e-14
2.612619400024414,-1.19,2.87,9.16,0.0,0.0,0.0,0.05,0.16,0.76,0.63,-1.9400065441509853e-13,2.2651890366181013e-14,-2.8361367151204834e-14
2.613037109375,-1.19,2.87,9.16,0.0,0.0,0.0,0.05,0.16,0.76,0.63,-1.9400065441509853e-13,2.2651890366181013e-14,-2.8361367151204834e-14
2.6134300231933594,-1.19,2.87,9.16,0.0,0.0,0.0,0.05,0.16,0.76,0.63,-1.9400065441509853e-13,2.2651890366181013e-14,-2.8361367151204834e-14
2.6137959957122803,-1.19,2.87,9.16,0.0,0.0,0.0,0.05,0.16,0.76,0.63,-1.9400065441509853e-13,2.2651890366181013e-14,-2.8361367151204834e-14
2.6142139434814453,-1.19,2.87,9.16,0.0,0.0,0.0,0.05,0.16,0.76,0.63,-1.9400065441509853e-13,2.2651890366181013e-14,-2.8361367151204834e-14
2.614598035812378,-1.19,2.87,9.16,0.0,0.0,0.0,0.05,0.16,0.76,0.63,-1.9400065441509853e-13,2.2651890366181013e-14,-2.8361367151204834e-14
2.673328161239624,-1.19,2.87,9.16,0.0,0.0,0.0,0.05,0.16,0.76,0.63,-1.9400065441509853e-13,2.2651890366181013e-14,-2.8361367151204834e-14
2.674072027206421,-1.19,2.87,9.16,0.0,0.0,0.0,0.05,0.16,0.76,0.63,-1.9400065441509853e-13,2.2651890366181013e-14,-2.8361367151204834e-14
2.6745989322662354,-1.19,2.87,9.16,0.0,0.0,0.0,0.05,0.16,0.76,0.63,-1.9400065441509853e-13,2.2651890366181013e-14,-2.8361367151204834e-14
2.6750879287719727,-1.19,2.87,9.16,0.0,0.0,0.0,0.05,0.16,0.76,0.63,-1.9400065441509853e-13,2.2651890366181013e-14,-2.8361367151204834e-14
2.6755318641662598,-1.19,2.87,9.16,0.0,0.0,0.0,0.05,0.16,0.76,0.63,-1.9400065441509853e-13,2.2651890366181013e-14,-2.8361367151204834e-14
2.6759939193725586,-1.19,2.87,9.16,0.0,0.0,0.0,0.05,0.16,0.76,0.63,-1.9400065441509853e-13,2.2651890366181013e-14,-2.8361367151204834e-14
2.676419496536255,-1.15,2.95,9.16,0.0,0.0,0.0,0.05,0.16,0.76,0.63,-1.9400065441509853e-13,2.2651890366181013e-14,-2.8361367151204834e-14
2.6768884658813477,-1.15,2.95,9.16,0.0,0.0,0.0,0.05,0.16,0.76,0.63,-1.9400065441509853e-13,2.2651890366181013e-14,-2.8361367151204834e-14
2.6773996353149414,-1.15,2.95,9.16,0.0,0.0,0.0,0.05,0.16,0.76,0.63,-1.9400065441509853e-13,2.2651890366181013e-14,-2.8361367151204834e-14
2.677917003631592,-1.15,2.95,9.16,0.0,0.0,0.0,0.05,0.16,0.76,0.63,-1.9400065441509853e-13,2.2651890366181013e-14,-2.8361367151204834e-14
2.678345203399658,-1.15,2.95,9.16,0.0,0.0,0.0,0.05,0.16,0.76,0.63,-1.9400065441509853e-13,2.2651890366181013e-14,-2.8361367151204834e-14
2.6787502765655518,-1.15,2.95,9.16,0.0,0.0,0.0,0.05,0.16,0.76,0.63,-1.9400065441509853e-13,2.2651890366181013e-14,-2.8361367151204834e-14
2.737718343734741,-1.15,2.95,9.16,0.0,0.0,0.0,0.05,0.16,0.76,0.63,-1.9400065441509853e-13,2.2651890366181013e-14,-2.8361367151204834e-14
2.7383954524993896,-1.15,2.95,9.16,0.0,0.0,0.0,0.05,0.16,0.76,0.63,-1.9400065441509853e-13,2.2651890366181013e-14,-2.8361367151204834e-14
2.7389235496520996,-1.15,2.95,9.16,0.0,0.0,0.0,0.05,0.16,0.76,0.63,-1.9400065441509853e-13,2.2651890366181013e-14,-2.8361367151204834e-14
2.739412546157837,-1.15,2.95,9.16,0.0,0.0,0.0,0.05,0.16,0.76,0.63,-1.9400065441509853e-13,2.2651890366181013e-14,-2.8361367151204834e-14
2.7398555278778076,-1.19,2.91,9.12,0.0,0.0,0.0,0.05,0.16,0.76,0.63,-1.9400065441509853e-13,2.2651890366181013e-14,-2.8361367151204834e-14
2.740321397781372,-1.19,2.91,9.12,0.0,0.0,0.0,0.05,0.16,0.76,0.63,-1.9400065441509853e-13,2.2651890366181013e-14,-2.8361367151204834e-14
2.7407803535461426,-1.19,2.91,9.12,0.0,0.0,0.0,0.05,0.16,0.76,0.63,-1.9400065441509853e-13,2.2651890366181013e-14,-2.8361367151204834e-14
2.7412142753601074,-1.19,2.91,9.12,0.0,0.0,0.0,0.05,0.16,0.76,0.63,-1.9400065441509853e-13,2.2651890366181013e-14,-2.8361367151204834e-14
2.7416908740997314,-1.19,2.91,9.12,0.0,0.0,0.0,0.05,0.16,0.76,0.63,-1.9400065441509853e-13,2.2651890366181013e-14,-2.8361367151204834e-14
2.742128610610962,-1.19,2.91,9.12,0.0,0.0,0.0,0.05,0.16,0.76,0.63,-1.9400065441509853e-13,2.2651890366181013e-14,-2.8361367151204834e-14
2.742560863494873,-1.19,2.91,9.16,0.0,0.0,0.0,0.05,0.16,0.76,0.63,-1.9400065441509853e-13,2.2651890366181013e-14,-2.8361367151204834e-14
2.74300479888916,-1.19,2.91,9.16,0.0,0.0,0.0,0.05,0.16,0.76,0.63,-1.9400065441509853e-13,2.2651890366181013e-14,-2.8361367151204834e-14
2.743466854095459,-1.19,2.91,9.16,0.0,0.0,0.0,0.05,0.16,0.76,0.63,-1.9400065441509853e-13,2.2651890366181013e-14,-2.8361367151204834e-14
2.7439732551574707,-1.19,2.91,9.16,0.0,0.0,0.0,0.05,0.16,0.76,0.63,-1.9400065441509853e-13,2.2651890366181013e-14,-2.8361367151204834e-14
2.744448661804199,-1.19,2.91,9.16,0.0,0.0,0.0,0.05,0.16,0.76,0.63,-1.9400065441509853e-13,2.2651890366181013e-14,-2.8361367151204834e-14
2.7448880672454834,-1.19,2.91,9.16,0.0,0.0,0.0,0.05,0.16,0.76,0.63,-1.9400065441509853e-13,2.2651890366181013e-14,-2.8361367151204834e-14
2.745400905609131,-1.19,2.95,9.16,0.0,0.0,0.0,0.05,0.16,0.76,0.63,-1.9400065441509853e-13,2.2651890366181013e-14,-2.8361367151204834e-14
2.802022933959961,-1.19,2.95,9.16,0.0,0.0,0.0,0.05,0.16,0.76,0.63,-1.9400065441509853e-13,2.2651890366181013e-14,-2.8361367151204834e-14
2.8029935359954834,-1.19,2.95,9.16,0.0,0.0,0.0,0.05,0.16,0.76,0.63,-1.9400065441509853e-13,2.2651890366181013e-14,-2.8361367151204834e-14
2.803539991378784,-1.19,2.95,9.16,0.0,0.0,0.0,0.05,0.16,0.76,0.63,-1.9400065441509853e-13,2.2651890366181013e-14,-2.8361367151204834e-14
2.8039486408233643,-1.19,2.91,9.23,0.0,0.0,0.0,0.05,0.16,0.76,0.63,-1.9400065441509853e-13,2.2651890366181013e-14,-2.8361367151204834e-14
2.804327964782715,-1.19,2.91,9.23,0.0,0.0,0.0,0.05,0.16,0.76,0.63,-1.9400065441509853e-13,2.2651890366181013e-14,-2.8361367151204834e-14
2.8047468662261963,-1.19,2.91,9.23,0.0,0.0,0.0,0.05,0.16,0.76,0.63,-1.9400065441509853e-13,2.2651890366181013e-14,-2.8361367151204834e-14
2.8051276206970215,-1.19,2.91,9.23,0.0,0.0,0.0,0.05,0.16,0.76,0.63,-1.9400065441509853e-13,2.2651890366181013e-14,-2.8361367151204834e-14
2.8054990768432617,-1.19,2.91,9.23,0.0,0.0,0.0,0.05,0.16,0.76,0.63,-1.9400065441509853e-13,2.2651890366181013e-14,-2.8361367151204834e-14
2.8058948516845703,-1.19,2.91,9.23,0.0,0.0,0.0,0.05,0.16,0.76,0.63,-1.9400065441509853e-13,2.2651890366181013e-14,-2.8361367151204834e-14
2.8062820434570312,-1.19,2.91,9.23,0.0,0.0,0.0,0.05,0.16,0.76,0.63,-1.9400065441509853e-13,2.2651890366181013e-14,-2.8361367151204834e-14
2.8066632747650146,-1.19,2.91,9.23,0.0,0.0,0.0,0.05,0.16,0.76,0.63,-1.9400065441509853e-13,2.2651890366181013e-14,-2.8361367151204834e-14
2.807053804397583,-1.15,2.87,9.16,0.0,0.0,0.0,0.05,0.16,0.76,0.63,-1.9400065441509853e-13,2.2651890366181013e-14,-2.8361367151204834e-14
2.807426691055298,-1.15,2.87,9.16,0.0,0.0,0.0,0.05,0.16,0.76,0.63,-1.9400065441509853e-13,2.2651890366181013e-14,-2.8361367151204834e-14
2.8638453483581543,-1.15,2.87,9.16,0.0,0.0,0.0,0.05,0.16,0.76,0.63,-1.9400065441509853e-13,2.2651890366181013e-14,-2.8361367151204834e-14
2.8645708560943604,-1.15,2.87,9.16,0.0,0.0,0.0,0.05,0.16,0.76,0.63,-1.9400065441509853e-13,2.2651890366181013e-14,-2.8361367151204834e-14
2.8650882244110107,-1.15,2.87,9.16,0.0,0.0,0.0,0.05,0.16,0.76,0.63,-1.9400065441509853e-13,2.2651890366181013e-14,-2.8361367151204834e-14
2.865570545196533,-1.15,2.87,9.16,0.0,0.0,0.0,0.05,0.16,0.76,0.63,-1.9400065441509853e-13,2.2651890366181013e-14,-2.8361367151204834e-14
2.8660049438476562,-1.19,2.91,9.08,0.0,0.0,0.0,0.05,0.16,0.76,0.63,-1.9400065441509853e-13,2.2651890366181013e-14,-2.8361367151204834e-14
2.866452217102051,-1.19,2.91,9.08,0.0,0.0,0.0,0.05,0.16,0.76,0.63,-1.9400065441509853e-13,2.2651890366181013e-14,-2.8361367151204834e-14
2.8669519424438477,-1.19,2.91,9.08,0.0,0.0,0.0,0.05,0.16,0.76,0.63,-1.9400065441509853e-13,2.2651890366181013e-14,-2.8361367151204834e-14
2.8674588203430176,-1.19,2.91,9.08,0.0,0.0,0.0,0.05,0.16,0.76,0.63,-1.9400065441509853e-13,2.2651890366181013e-14,-2.8361367151204834e-14
2.867906332015991,-1.19,2.91,9.08,0.0,0.0,0.0,0.05,0.16,0.76,0.63,-1.9400065441509853e-13,2.2651890366181013e-14,-2.8361367151204834e-14
2.8683478832244873,-1.19,2.91,9.08,0.0,0.0,0.0,0.05,0.16,0.76,0.63,-1.9400065441509853e-13,2.2651890366181013e-14,-2.8361367151204834e-14
2.868795871734619,-1.19,2.91,9.12,0.0,0.0,0.0,0.05,0.16,0.76,0.63,-1.9400065441509853e-13,2.2651890366181013e-14,-2.8361367151204834e-14
2.8692915439605713,-1.19,2.91,9.12,0.0,0.0,0.0,0.05,0.16,0.76,0.63,-1.9400065441509853e-13,2.2651890366181013e-14,-2.8361367151204834e-14
2.8699240684509277,-1.19,2.91,9.12,0.0,0.0,0.0,0.05,0.16,0.76,0.63,-1.9400065441509853e-13,2.2651890366181013e-14,-2.8361367151204834e-14
2.870734930038452,-1.19,2.91,9.12,0.0,0.0,0.0,0.05,0.16,0.76,0.63,-1.9400065441509853e-13,2.2651890366181013e-14,-2.8361367151204834e-14
2.8712830543518066,-1.19,2.87,9.16,0.0,0.0,0.0,0.05,0.16,0.76,0.63,-1.9400065441509853e-13,2.2651890366181013e-14,-2.8361367151204834e-14
2.9285695552825928,-1.19,2.87,9.16,0.0,0.0,0.0,0.05,0.16,0.76,0.63,-1.9400065441509853e-13,2.2651890366181013e-14,-2.8361367151204834e-14
2.9292871952056885,-1.19,2.87,9.16,0.0,0.0,0.0,0.05,0.16,0.76,0.63,-1.9400065441509853e-13,2.2651890366181013e-14,-2.8361367151204834e-14
2.929870128631592,-1.19,2.87,9.16,0.0,0.0,0.0,0.05,0.16,0.76,0.63,-1.9400065441509853e-13,2.2651890366181013e-14,-2.8361367151204834e-14
2.930356025695801,-1.19,2.87,9.16,0.0,0.0,0.0,0.05,0.16,0.76,0.63,-1.9400065441509853e-13,2.2651890366181013e-14,-2.8361367151204834e-14
2.9307899475097656,-1.19,2.87,9.16,0.0,0.0,0.0,0.05,0.16,0.76,0.63,-1.9400065441509853e-13,2.2651890366181013e-14,-2.8361367151204834e-14
2.9312832355499268,-1.19,2.87,9.16,0.0,0.0,0.0,0.05,0.16,0.76,0.63,-1.9400065441509853e-13,2.2651890366181013e-14,-2.8361367151204834e-14
2.931807279586792,-1.19,2.87,9.16,0.0,0.0,0.0,0.05,0.16,0.76,0.63,-1.9400065441509853e-13,2.2651890366181013e-14,-2.8361367151204834e-14
2.9322421550750732,-1.19,2.87,9.16,0.0,0.0,0.0,0.05,0.16,0.76,0.63,-1.9400065441509853e-13,2.2651890366181013e-14,-2.8361367151204834e-14
2.932657241821289,-1.19,2.87,9.16,0.0,0.0,0.0,0.05,0.16,0.76,0.63,-1.9400065441509853e-13,2.2651890366181013e-14,-2.8361367151204834e-14
2.9331326484680176,-1.19,2.87,9.16,0.0,0.0,0.0,0.05,0.16,0.76,0.63,-1.9400065441509853e-13,2.2651890366181013e-14,-2.8361367151204834e-14
2.933556079864502,-1.19,2.87,9.16,0.0,0.0,0.0,0.05,0.16,0.76,0.63,-1.9400065441509853e-13,2.2651890366181013e-14,-2.8361367151204834e-14
2.934093713760376,-1.19,2.87,9.16,0.0,0.0,0.0,0.05,0.16,0.76,0.63,-1.9400065441509853e-13,2.2651890366181013e-14,-2.8361367151204834e-14
2.9345719814300537,-1.19,2.87,9.16,0.0,0.0,0.0,0.05,0.16,0.76,0.63,-1.9400065441509853e-13,2.2651890366181013e-14,-2.8361367151204834e-14
2.995447874069214,-1.19,2.87,9.16,0.0,0.0,0.0,0.05,0.16,0.76,0.63,-1.9400065441509853e-13,2.2651890366181013e-14,-2.8361367151204834e-14
2.9961562156677246,-1.19,2.87,9.16,0.0,0.0,0.0,0.05,0.16,0.76,0.63,-1.9400065441509853e-13,2.2651890366181013e-14,-2.8361367151204834e-14
2.9967024326324463,-1.19,2.87,9.16,0.0,0.0,0.0,0.05,0.16,0.76,0.63,-1.9400065441509853e-13,2.2651890366181013e-14,-2.8361367151204834e-14
2.9971747398376465,-1.19,2.87,9.16,0.0,0.0,0.0,0.05,0.16,0.76,0.63,-1.9400065441509853e-13,2.2651890366181013e-14,-2.8361367151204834e-14
2.9976155757904053,-1.23,2.91,9.12,0.0,0.0,0.0,0.05,0.16,0.76,0.63,-1.9400065441509853e-13,2.2651890366181013e-14,-2.8361367151204834e-14
2.9981000423431396,-1.23,2.91,9.12,0.0,0.0,0.0,0.05,0.16,0.76,0.63,-1.9400065441509853e-13,2.2651890366181013e-14,-2.8361367151204834e-14
2.9985458850860596,-1.23,2.91,9.12,0.0,0.0,0.0,0.05,0.16,0.76,0.63,-1.9400065441509853e-13,2.2651890366181013e-14,-2.8361367151204834e-14
2.998993396759033,-1.23,2.91,9.12,0.0,0.0,0.0,0.05,0.16,0.76,0.63,-1.9400065441509853e-13,2.2651890366181013e-14,-2.8361367151204834e-14
2.9994277954101562,-1.19,2.87,9.2,0.0,0.0,0.0,0.05,0.16,0.76,0.63,-1.9400065441509853e-13,2.2651890366181013e-14,-2.8361367151204834e-14
2.9998457431793213,-1.19,2.87,9.2,0.0,0.0,0.0,0.05,0.16,0.76,0.63,-1.9400065441509853e-13,2.2651890366181013e-14,-2.8361367151204834e-14
3.0004525184631348,-1.19,2.87,9.2,0.0,0.0,0.0,0.05,0.16,0.76,0.63,-1.9400065441509853e-13,2.2651890366181013e-14,-2.8361367151204834e-14
3.0009541511535645,-1.19,2.87,9.2,0.0,0.0,0.0,0.05,0.16,0.76,0.63,-1.9400065441509853e-13,2.2651890366181013e-14,-2.8361367151204834e-14
3.001481533050537,-1.19,2.87,9.2,0.0,0.0,0.0,0.05,0.16,0.76,0.63,-1.9400065441509853e-13,2.2651890366181013e-14,-2.8361367151204834e-14
3.061997652053833,-1.19,2.87,9.2,0.0,0.0,0.0,0.05,0.16,0.76,0.63,-1.9400065441509853e-13,2.2651890366181013e-14,-2.8361367151204834e-14
3.0627055168151855,-1.19,2.87,9.2,0.0,0.0,0.0,0.05,0.16,0.76,0.63,-1.9400065441509853e-13,2.2651890366181013e-14,-2.8361367151204834e-14
3.0632309913635254,-1.19,2.87,9.2,0.0,0.0,0.0,0.05,0.16,0.76,0.63,-1.9400065441509853e-13,2.2651890366181013e-14,-2.8361367151204834e-14
3.063729763031006,-1.19,2.87,9.2,0.0,0.0,0.0,0.05,0.16,0.76,0.63,-1.9400065441509853e-13,2.2651890366181013e-14,-2.8361367151204834e-14
3.0643959045410156,-1.19,2.87,9.2,0.0,0.0,0.0,0.05,0.16,0.76,0.63,-1.9400065441509853e-13,2.2651890366181013e-14,-2.8361367151204834e-14
3.0649466514587402,-1.19,2.87,9.08,0.0,0.0,0.0,0.05,0.16,0.76,0.63,-1.9400065441509853e-13,2.2651890366181013e-14,-2.8361367151204834e-14
3.065483570098877,-1.19,2.87,9.08,0.0,0.0,0.0,0.05,0.16,0.76,0.63,-1.9400065441509853e-13,2.2651890366181013e-14,-2.8361367151204834e-14
3.0659873485565186,-1.19,2.87,9.08,0.0,0.0,0.0,0.05,0.16,0.76,0.63,-1.9400065441509853e-13,2.2651890366181013e-14,-2.8361367151204834e-14
3.066450834274292,-1.19,2.87,9.08,0.0,0.0,0.0,0.05,0.16,0.76,0.63,-1.9400065441509853e-13,2.2651890366181013e-14,-2.8361367151204834e-14
3.0668694972991943,-1.19,2.95,9.23,0.0,0.0,0.0,0.05,0.16,0.76,0.63,-1.9400065441509853e-13,2.2651890366181013e-14,-2.8361367151204834e-14
3.0673446655273438,-1.19,2.95,9.23,0.0,0.0,0.0,0.05,0.16,0.76,0.63,-1.9400065441509853e-13,2.2651890366181013e-14,-2.8361367151204834e-14
3.0678114891052246,-1.19,2.95,9.23,0.0,0.0,0.0,0.05,0.16,0.76,0.63,-1.9400065441509853e-13,2.2651890366181013e-14,-2.8361367151204834e-14
3.068277359008789,-1.19,2.95,9.23,0.0,0.0,0.0,0.05,0.16,0.76,0.63,-1.9400065441509853e-13,2.2651890366181013e-14,-2.8361367151204834e-14
3.068732738494873,-1.19,2.95,9.23,0.0,0.0,0.0,0.05,0.16,0.76,0.63,-1.9400065441509853e-13,2.2651890366181013e-14,-2.8361367151204834e-14
3.0693280696868896,-1.19,2.95,9.23,0.0,0.0,0.0,0.05,0.16,0.76,0.63,-1.9400065441509853e-13,2.2651890366181013e-14,-2.8361367151204834e-14
3.070070266723633,-1.19,2.95,9.23,0.0,0.0,0.0,0.05,0.16,0.76,0.63,-1.9400065441509853e-13,2.2651890366181013e-14,-2.8361367151204834e-14
3.1282920837402344,-1.19,2.95,9.23,0.0,0.0,0.0,0.05,0.16,0.76,0.63,-1.9400065441509853e-13,2.2651890366181013e-14,-2.8361367151204834e-14
3.128997564315796,-1.15,2.91,9.08,0.0,0.0,0.0,0.05,0.16,0.76,0.63,-1.9400065441509853e-13,2.2651890366181013e-14,-2.8361367151204834e-14
3.12954044342041,-1.15,2.91,9.08,0.0,0.0,0.0,0.05,0.16,0.76,0.63,-1.9400065441509853e-13,2.2651890366181013e-14,-2.8361367151204834e-14
3.129988431930542,-1.15,2.91,9.08,0.0,0.0,0.0,0.05,0.16,0.76,0.63,-1.9400065441509853e-13,2.2651890366181013e-14,-2.8361367151204834e-14
3.1304571628570557,-1.15,2.91,9.08,0.0,0.0,0.0,0.05,0.16,0.76,0.63,-1.9400065441509853e-13,2.2651890366181013e-14,-2.8361367151204834e-14
3.1308906078338623,-1.15,2.87,9.12,0.0,0.0,0.0,0.05,0.16,0.76,0.63,-1.9400065441509853e-13,2.2651890366181013e-14,-2.8361367151204834e-14
3.1313626766204834,-1.15,2.87,9.12,0.0,0.0,0.0,0.05,0.16,0.76,0.63,-1.9400065441509853e-13,2.2651890366181013e-14,-2.8361367151204834e-14
3.1317970752716064,-1.15,2.87,9.12,0.0,0.0,0.0,0.05,0.16,0.76,0.63,-1.9400065441509853e-13,2.2651890366181013e-14,-2.8361367151204834e-14
3.1322805881500244,-1.15,2.87,9.12,0.0,0.0,0.0,0.05,0.16,0.76,0.63,-1.9400065441509853e-13,2.2651890366181013e-14,-2.8361367151204834e-14
3.132782220840454,-1.15,2.91,9.2,0.0,0.0,0.0,0.05,0.16,0.76,0.63,-1.9400065441509853e-13,2.2651890366181013e-14,-2.8361367151204834e-14
3.133340358734131,-1.15,2.91,9.2,0.0,0.0,0.0,0.05,0.16,0.76,0.63,-1.9400065441509853e-13,2.2651890366181013e-14,-2.8361367151204834e-14
3.1338279247283936,-1.15,2.91,9.2,0.0,0.0,0.0,0.05,0.16,0.76,0.63,-1.9400065441509853e-13,2.2651890366181013e-14,-2.8361367151204834e-14
3.1342718601226807,-1.15,2.91,9.2,0.0,0.0,0.0,0.05,0.16,0.76,0.63,-1.9400065441509853e-13,2.2651890366181013e-14,-2.8361367151204834e-14
3.1348185539245605,-1.15,2.91,9.2,0.0,0.0,0.0,0.05,0.16,0.76,0.63,-1.9400065441509853e-13,2.2651890366181013e-14,-2.8361367151204834e-14
3.195194959640503,-1.15,2.91,9.2,0.0,0.0,0.0,0.05,0.16,0.76,0.63,-1.9400065441509853e-13,2.2651890366181013e-14,-2.8361367151204834e-14
3.1959164142608643,-1.15,2.91,9.12,0.0,0.0,0.0,0.05,0.16,0.76,0.63,-1.9400065441509853e-13,2.2651890366181013e-14,-2.8361367151204834e-14
3.1965081691741943,-1.15,2.91,9.12,0.0,0.0,0.0,0.05,0.16,0.76,0.63,-1.9400065441509853e-13,2.2651890366181013e-14,-2.8361367151204834e-14
3.1970160007476807,-1.15,2.91,9.12,0.0,0.0,0.0,0.05,0.16,0.76,0.63,-1.9400065441509853e-13,2.2651890366181013e-14,-2.8361367151204834e-14
3.1974856853485107,-1.15,2.91,9.12,0.0,0.0,0.0,0.05,0.16,0.76,0.63,-1.9400065441509853e-13,2.2651890366181013e-14,-2.8361367151204834e-14
3.1979641914367676,-1.15,2.91,9.12,0.0,0.0,0.0,0.05,0.16,0.76,0.63,-1.9400065441509853e-13,2.2651890366181013e-14,-2.8361367151204834e-14
3.1984105110168457,-1.15,2.91,9.12,0.0,0.0,0.0,0.05,0.16,0.76,0.63,-1.9400065441509853e-13,2.2651890366181013e-14,-2.8361367151204834e-14
3.199016571044922,-1.11,2.87,9.16,0.0,0.0,0.0,0.05,0.16,0.76,0.63,-1.9400065441509853e-13,2.2651890366181013e-14,-2.8361367151204834e-14
3.1994640827178955,-1.11,2.87,9.16,0.0,0.0,0.0,0.05,0.16,0.76,0.63,-1.9400065441509853e-13,2.2651890366181013e-14,-2.8361367151204834e-14
3.200045108795166,-1.11,2.87,9.16,0.0,0.0,0.0,0.05,0.16,0.76,0.63,-1.9400065441509853e-13,2.2651890366181013e-14,-2.8361367151204834e-14
3.2004847526550293,-1.11,2.87,9.16,0.0,0.0,0.0,0.05,0.16,0.76,0.63,-1.9400065441509853e-13,2.2651890366181013e-14,-2.8361367151204834e-14
3.200962781906128,-1.11,2.87,9.16,0.0,0.0,0.0,0.05,0.16,0.76,0.63,-1.9400065441509853e-13,2.2651890366181013e-14,-2.8361367151204834e-14
3.201402425765991,-1.11,2.87,9.16,0.0,0.0,0.0,0.05,0.16,0.76,0.63,-1.9400065441509853e-13,2.2651890366181013e-14,-2.8361367151204834e-14
3.2019569873809814,-1.11,2.87,9.16,0.0,0.0,0.0,0.05,0.16,0.76,0.63,-1.9400065441509853e-13,2.2651890366181013e-14,-2.8361367151204834e-14
3.2029755115509033,-1.11,2.87,9.16,0.0,0.0,0.0,0.05,0.16,0.76,0.63,-1.9400065441509853e-13,2.2651890366181013e-14,-2.8361367151204834e-14
3.2615442276000977,-1.15,2.91,9.12,0.0,0.0,0.0,0.05,0.16,0.76,0.63,-1.9400065441509853e-13,2.2651890366181013e-14,-2.8361367151204834e-14
3.262254238128662,-1.15,2.91,9.12,0.0,0.0,0.0,0.05,0.16,0.76,0.63,-1.9400065441509853e-13,2.2651890366181013e-14,-2.8361367151204834e-14
3.2627973556518555,-1.15,2.91,9.12,0.0,0.0,0.0,0.05,0.16,0.76,0.63,-1.9400065441509853e-13,2.2651890366181013e-14,-2.8361367151204834e-14
3.263237714767456,-1.15,2.91,9.12,0.0,0.0,0.0,0.05,0.16,0.76,0.63,-1.9400065441509853e-13,2.2651890366181013e-14,-2.8361367151204834e-14
3.263709306716919,-1.15,2.91,9.12,0.0,0.0,0.0,0.05,0.16,0.76,0.63,-1.9400065441509853e-13,2.2651890366181013e-14,-2.8361367151204834e-14
3.264183759689331,-1.15,2.91,9.12,0.0,0.0,0.0,0.05,0.16,0.76,0.63,-1.9400065441509853e-13,2.2651890366181013e-14,-2.8361367151204834e-14
3.264647960662842,-1.19,2.95,9.16,0.0,0.0,0.0,0.05,0.16,0.76,0.63,-1.9400065441509853e-13,2.2651890366181013e-14,-2.8361367151204834e-14
3.2650740146636963,-1.19,2.95,9.16,0.0,0.0,0.0,0.05,0.16,0.76,0.63,-1.9400065441509853e-13,2.2651890366181013e-14,-2.8361367151204834e-14
3.2655348777770996,-1.19,2.95,9.16,0.0,0.0,0.0,0.05,0.16,0.76,0.63,-1.9400065441509853e-13,2.2651890366181013e-14,-2.8361367151204834e-14
3.2659597396850586,-1.19,2.95,9.16,0.0,0.0,0.0,0.05,0.16,0.76,0.63,-1.9400065441509853e-13,2.2651890366181013e-14,-2.8361367151204834e-14
3.2664153575897217,-1.15,2.91,9.12,0.0,0.0,0.0,0.05,0.16,0.76,0.63,-1.9400065441509853e-13,2.2651890366181013e-14,-2.8361367151204834e-14
3.266847848892212,-1.15,2.91,9.12,0.0,0.0,0.0,0.05,0.16,0.76,0.63,-1.9400065441509853e-13,2.2651890366181013e-14,-2.8361367151204834e-14
3.267301321029663,-1.15,2.91,9.12,0.0,0.0,0.0,0.05,0.16,0.76,0.63,-1.9400065441509853e-13,2.2651890366181013e-14,-2.8361367151204834e-14
3.26772141456604,-1.15,2.91,9.12,0.0,0.0,0.0,0.05,0.16,0.76,0.63,-1.9400065441509853e-13,2.2651890366181013e-14,-2.8361367151204834e-14
3.2682113647460938,-1.15,2.91,9.12,0.0,0.0,0.0,0.05,0.16,0.76,0.63,-1.9400065441509853e-13,2.2651890366181013e-14,-2.8361367151204834e-14
3.327408790588379,-1.15,2.91,9.12,0.0,0.0,0.0,0.05,0.16,0.76,0.63,-1.9400065441509853e-13,2.2651890366181013e-14,-2.8361367151204834e-14
3.3280720710754395,-1.19,2.91,9.08,0.0,0.0,0.0,0.05,0.16,0.76,0.63,-1.9400065441509853e-13,2.2651890366181013e-14,-2.8361367151204834e-14
3.32859468460083,-1.19,2.91,9.08,0.0,0.0,0.0,0.05,0.16,0.76,0.63,-1.9400065441509853e-13,2.2651890366181013e-14,-2.8361367151204834e-14
3.3290324211120605,-1.19,2.91,9.08,0.0,0.0,0.0,0.05,0.16,0.76,0.63,-1.9400065441509853e-13,2.2651890366181013e-14,-2.8361367151204834e-14
3.329496383666992,-1.19,2.91,9.08,0.0,0.0,0.0,0.05,0.16,0.76,0.63,-1.9400065441509853e-13,2.2651890366181013e-14,-2.8361367151204834e-14
3.3299691677093506,-1.19,2.91,9.08,0.0,0.0,0.0,0.05,0.16,0.76,0.63,-1.9400065441509853e-13,2.2651890366181013e-14,-2.8361367151204834e-14
3.3305158615112305,-1.19,2.91,9.08,0.0,0.0,0.0,0.05,0.16,0.76,0.63,-1.9400065441509853e-13,2.2651890366181013e-14,-2.8361367151204834e-14
3.330956220626831,-1.15,2.91,9.12,0.0,0.0,0.0,0.05,0.16,0.76,0.63,-1.9400065441509853e-13,2.2651890366181013e-14,-2.8361367151204834e-14
3.3314554691314697,-1.15,2.91,9.12,0.0,0.0,0.0,0.05,0.16,0.76,0.63,-1.9400065441509853e-13,2.2651890366181013e-14,-2.8361367151204834e-14
3.3319077491760254,-1.15,2.91,9.12,0.0,0.0,0.0,0.05,0.16,0.76,0.63,-1.9400065441509853e-13,2.2651890366181013e-14,-2.8361367151204834e-14
3.3324689865112305,-1.15,2.91,9.12,0.0,0.0,0.0,0.05,0.16,0.76,0.63,-1.9400065441509853e-13,2.2651890366181013e-14,-2.8361367151204834e-14
3.3329126834869385,-1.15,2.91,9.12,0.0,0.0,0.0,0.05,0.16,0.76,0.63,-1.9400065441509853e-13,2.2651890366181013e-14,-2.8361367151204834e-14
3.3334131240844727,-1.15,2.91,9.12,0.0,0.0,0.0,0.05,0.16,0.76,0.63,-1.9400065441509853e-13,2.2651890366181013e-14,-2.8361367151204834e-14
3.394030809402466,-1.19,2.91,9.16,0.0,0.0,0.0,0.05,0.16,0.76,0.63,-1.9400065441509853e-13,2.2651890366181013e-14,-2.8361367151204834e-14
3.39471697807312,-1.19,2.91,9.16,0.0,0.0,0.0,0.05,0.16,0.76,0.63,-1.9400065441509853e-13,2.2651890366181013e-14,-2.8361367151204834e-14
3.395247459411621,-1.19,2.91,9.16,0.0,0.0,0.0,0.05,0.16,0.76,0.63,-1.9400065441509853e-13,2.2651890366181013e-14,-2.8361367151204834e-14
3.39573073387146,-1.19,2.91,9.16,0.0,0.0,0.0,0.05,0.16,0.76,0.63,-1.9400065441509853e-13,2.2651890366181013e-14,-2.8361367151204834e-14
3.3962090015411377,-1.19,2.91,9.16,0.0,0.0,0.0,0.05,0.16,0.76,0.63,-1.9400065441509853e-13,2.2651890366181013e-14,-2.8361367151204834e-14
3.3966712951660156,-1.19,2.91,9.16,0.0,0.0,0.0,0.05,0.16,0.76,0.63,-1.9400065441509853e-13,2.2651890366181013e-14,-2.8361367151204834e-14
3.3971145153045654,-1.19,2.91,9.16,0.0,0.0,0.0,0.05,0.16,0.76,0.63,-1.9400065441509853e-13,2.2651890366181013e-14,-2.8361367151204834e-14
3.3975870609283447,-1.19,2.91,9.16,0.0,0.0,0.0,0.05,0.16,0.76,0.63,-1.9400065441509853e-13,2.2651890366181013e-14,-2.8361367151204834e-14
3.3980484008789062,-1.15,2.91,9.16,0.0,0.0,0.0,0.05,0.16,0.76,0.63,-1.9400065441509853e-13,2.2651890366181013e-14,-2.8361367151204834e-14
3.4555776119232178,-1.15,2.91,9.16,0.0,0.0,0.0,0.05,0.16,0.76,0.63,-1.9400065441509853e-13,2.2651890366181013e-14,-2.8361367151204834e-14
3.5108509063720703,-1.15,2.91,9.16,0.0,0.0,0.0,0.05,0.16,0.76,0.63,-1.9400065441509853e-13,2.2651890366181013e-14,-2.8361367151204834e-14
3.5115199089050293,-1.15,2.91,9.16,0.0,0.0,0.0,0.05,0.16,0.76,0.63,-1.9400065441509853e-13,2.2651890366181013e-14,-2.8361367151204834e-14
3.512126922607422,-1.15,2.91,9.16,0.0,0.0,0.0,0.05,0.16,0.76,0.63,-1.9400065441509853e-13,2.2651890366181013e-14,-2.8361367151204834e-14
3.512643814086914,-1.15,2.91,9.16,0.0,0.0,0.0,0.05,0.16,0.76,0.63,-1.9400065441509853e-13,2.2651890366181013e-14,-2.8361367151204834e-14
3.513112783432007,-1.15,2.91,9.16,0.0,0.0,0.0,0.05,0.16,0.76,0.63,-1.9400065441509853e-13,2.2651890366181013e-14,-2.8361367151204834e-14
3.513685703277588,-1.15,2.91,9.16,0.0,0.0,0.0,0.05,0.16,0.76,0.63,-1.9400065441509853e-13,2.2651890366181013e-14,-2.8361367151204834e-14
3.514200210571289,-1.15,2.91,9.16,0.0,0.0,0.0,0.05,0.16,0.76,0.63,-1.9400065441509853e-13,2.2651890366181013e-14,-2.8361367151204834e-14
3.5146305561065674,-1.15,2.91,9.16,0.0,0.0,0.0,0.05,0.16,0.76,0.63,-1.9400065441509853e-13,2.2651890366181013e-14,-2.8361367151204834e-14
3.5150856971740723,-1.15,2.91,9.16,0.0,0.0,0.0,0.05,0.16,0.76,0.63,-1.9400065441509853e-13,2.2651890366181013e-14,-2.8361367151204834e-14
3.515495777130127,-1.15,2.91,9.16,0.0,0.0,0.0,0.05,0.16,0.76,0.63,-1.9400065441509853e-13,2.2651890366181013e-14,-2.8361367151204834e-14
3.5159175395965576,-1.15,2.95,9.23,0.0,0.0,0.0,0.05,0.16,0.76,0.63,-1.9400065441509853e-13,2.2651890366181013e-14,-2.8361367151204834e-14
3.5163867473602295,-1.15,2.95,9.23,0.0,0.0,0.0,0.05,0.16,0.76,0.63,-1.9400065441509853e-13,2.2651890366181013e-14,-2.8361367151204834e-14
3.516819715499878,-1.15,2.95,9.23,0.0,0.0,0.0,0.05,0.16,0.76,0.63,-1.9400065441509853e-13,2.2651890366181013e-14,-2.8361367151204834e-14
3.5173046588897705,-1.15,2.95,9.23,0.0,0.0,0.0,0.05,0.16,0.76,0.63,-1.9400065441509853e-13,2.2651890366181013e-14,-2.8361367151204834e-14
3.517732858657837,-1.15,2.95,9.23,0.0,0.0,0.0,0.05,0.16,0.76,0.63,-1.9400065441509853e-13,2.2651890366181013e-14,-2.8361367151204834e-14
3.5181868076324463,-1.15,2.95,9.23,0.0,0.0,0.0,0.05,0.16,0.76,0.63,-1.9400065441509853e-13,2.2651890366181013e-14,-2.8361367151204834e-14
3.518665313720703,-1.15,2.91,9.16,0.0,0.0,0.0,0.05,0.16,0.76,0.63,-1.9400065441509853e-13,2.2651890366181013e-14,-2.8361367151204834e-14
3.519137382507324,-1.15,2.91,9.16,0.0,0.0,0.0,0.05,0.16,0.76,0.63,-1.9400065441509853e-13,2.2651890366181013e-14,-2.8361367151204834e-14
3.5195939540863037,-1.15,2.91,9.16,0.0,0.0,0.0,0.05,0.16,0.76,0.63,-1.9400065441509853e-13,2.2651890366181013e-14,-2.8361367151204834e-14
3.520045280456543,-1.15,2.91,9.16,0.0,0.0,0.0,0.05,0.16,0.76,0.63,-1.9400065441509853e-13,2.2651890366181013e-14,-2.8361367151204834e-14
3.5776352882385254,-1.15,2.91,9.16,0.0,0.0,0.0,0.05,0.16,0.76,0.63,-1.9400065441509853e-13,2.2651890366181013e-14,-2.8361367151204834e-14
3.57831072807312,-1.15,2.91,9.16,0.0,0.0,0.0,0.05,0.16,0.76,0.63,-1.9400065441509853e-13,2.2651890366181013e-14,-2.8361367151204834e-14
3.5788676738739014,-1.19,2.87,9.08,0.0,0.0,0.0,0.05,0.16,0.76,0.63,-1.9400065441509853e-13,2.2651890366181013e-14,-2.8361367151204834e-14
3.5794267654418945,-1.19,2.87,9.08,0.0,0.0,0.0,0.05,0.16,0.76,0.63,-1.9400065441509853e-13,2.2651890366181013e-14,-2.8361367151204834e-14
3.5798487663269043,-1.19,2.87,9.08,0.0,0.0,0.0,0.05,0.16,0.76,0.63,-1.9400065441509853e-13,2.2651890366181013e-14,-2.8361367151204834e-14
3.5803029537200928,-1.19,2.87,9.08,0.0,0.0,0.0,0.05,0.16,0.76,0.63,-1.9400065441509853e-13,2.2651890366181013e-14,-2.8361367151204834e-14
3.58073353767395,-1.19,2.87,9.08,0.0,0.0,0.0,0.05,0.16,0.76,0.63,-1.9400065441509853e-13,2.2651890366181013e-14,-2.8361367151204834e-14
3.5812604427337646,-1.19,2.87,9.08,0.0,0.0,0.0,0.05,0.16,0.76,0.63,-1.9400065441509853e-13,2.2651890366181013e-14,-2.8361367151204834e-14
3.581827163696289,-1.19,2.87,9.08,0.0,0.0,0.0,0.05,0.16,0.76,0.63,-1.9400065441509853e-13,2.2651890366181013e-14,-2.8361367151204834e-14
3.5822675228118896,-1.19,2.87,9.08,0.0,0.0,0.0,0.05,0.16,0.76,0.63,-1.9400065441509853e-13,2.2651890366181013e-14,-2.8361367151204834e-14
3.5827276706695557,-1.15,2.91,9.04,0.0,0.0,0.0,0.05,0.16,0.76,0.63,-1.9400065441509853e-13,2.2651890366181013e-14,-2.8361367151204834e-14
3.5831542015075684,-1.15,2.91,9.04,0.0,0.0,0.0,0.05,0.16,0.76,0.63,-1.9400065441509853e-13,2.2651890366181013e-14,-2.8361367151204834e-14
3.583609104156494,-1.15,2.91,9.04,0.0,0.0,0.0,0.05,0.16,0.76,0.63,-1.9400065441509853e-13,2.2651890366181013e-14,-2.8361367151204834e-14
3.584047555923462,-1.15,2.91,9.04,0.0,0.0,0.0,0.05,0.16,0.76,0.63,-1.9400065441509853e-13,2.2651890366181013e-14,-2.8361367151204834e-14
3.5844969749450684,-1.15,2.91,9.08,0.0,0.0,0.0,0.05,0.16,0.76,0.63,-1.9400065441509853e-13,2.2651890366181013e-14,-2.8361367151204834e-14
3.5849132537841797,-1.15,2.91,9.08,0.0,0.0,0.0,0.05,0.16,0.76,0.63,-1.9400065441509853e-13,2.2651890366181013e-14,-2.8361367151204834e-14
3.5853726863861084,-1.15,2.91,9.08,0.0,0.0,0.0,0.05,0.16,0.76,0.63,-1.9400065441509853e-13,2.2651890366181013e-14,-2.8361367151204834e-14
3.5857994556427,-1.15,2.91,9.08,0.0,0.0,0.0,0.05,0.16,0.76,0.63,-1.9400065441509853e-13,2.2651890366181013e-14,-2.8361367151204834e-14
3.5862576961517334,-1.15,2.91,9.08,0.0,0.0,0.0,0.05,0.16,0.76,0.63,-1.9400065441509853e-13,2.2651890366181013e-14,-2.8361367151204834e-14
3.5866875648498535,-1.15,2.91,9.08,0.0,0.0,0.0,0.05,0.16,0.76,0.63,-1.9400065441509853e-13,2.2651890366181013e-14,-2.8361367151204834e-14
3.587209939956665,-1.15,2.91,9.08,0.0,0.0,0.0,0.05,0.16,0.76,0.63,-1.9400065441509853e-13,2.2651890366181013e-14,-2.8361367151204834e-14
3.5876641273498535,-1.15,2.91,9.08,0.0,0.0,0.0,0.05,0.16,0.76,0.63,-1.9400065441509853e-13,2.2651890366181013e-14,-2.8361367151204834e-14
3.5882108211517334,-1.15,2.91,9.08,0.0,0.0,0.0,0.05,0.16,0.76,0.63,-1.9400065441509853e-13,2.2651890366181013e-14,-2.8361367151204834e-14
3.5887155532836914,-1.15,2.91,9.08,0.0,0.0,0.0,0.05,0.16,0.76,0.63,-1.9400065441509853e-13,2.2651890366181013e-14,-2.8361367151204834e-14
3.589136838912964,-1.15,2.87,9.16,0.0,0.0,0.0,0.05,0.16,0.76,0.63,-1.9400065441509853e-13,2.2651890366181013e-14,-2.8361367151204834e-14
3.5895767211914062,-1.15,2.87,9.16,0.0,0.0,0.0,0.05,0.16,0.76,0.63,-1.9400065441509853e-13,2.2651890366181013e-14,-2.8361367151204834e-14
3.5899906158447266,-1.15,2.87,9.16,0.0,0.0,0.0,0.05,0.16,0.76,0.63,-1.9400065441509853e-13,2.2651890366181013e-14,-2.8361367151204834e-14
3.6479616165161133,-1.15,2.87,9.16,0.0,0.0,0.0,0.05,0.16,0.76,0.63,-1.9400065441509853e-13,2.2651890366181013e-14,-2.8361367151204834e-14
3.6488277912139893,-1.15,2.87,9.16,0.0,0.0,0.0,0.05,0.16,0.76,0.63,-1.9400065441509853e-13,2.2651890366181013e-14,-2.8361367151204834e-14
3.649409055709839,-1.15,2.87,9.16,0.0,0.0,0.0,0.05,0.16,0.76,0.63,-1.9400065441509853e-13,2.2651890366181013e-14,-2.8361367151204834e-14
3.6498401165008545,-1.15,2.87,9.16,0.0,0.0,0.0,0.05,0.16,0.76,0.63,-1.9400065441509853e-13,2.2651890366181013e-14,-2.8361367151204834e-14
3.6503238677978516,-1.15,2.87,9.16,0.0,0.0,0.0,0.05,0.16,0.76,0.63,-1.9400065441509853e-13,2.2651890366181013e-14,-2.8361367151204834e-14
3.6507580280303955,-1.15,2.87,9.16,0.0,0.0,0.0,0.05,0.16,0.76,0.63,-1.9400065441509853e-13,2.2651890366181013e-14,-2.8361367151204834e-14
3.707643985748291,-1.15,2.87,9.16,0.0,0.0,0.0,0.05,0.16,0.76,0.63,-1.9400065441509853e-13,2.2651890366181013e-14,-2.8361367151204834e-14
3.708343744277954,-1.19,2.91,9.12,0.0,0.0,0.0,0.05,0.16,0.76,0.63,-1.9400065441509853e-13,2.2651890366181013e-14,-2.8361367151204834e-14
3.7089216709136963,-1.19,2.91,9.12,0.0,0.0,0.0,0.05,0.16,0.76,0.63,-1.9400065441509853e-13,2.2651890366181013e-14,-2.8361367151204834e-14
3.7094199657440186,-1.19,2.91,9.12,0.0,0.0,0.0,0.05,0.16,0.76,0.63,-1.9400065441509853e-13,2.2651890366181013e-14,-2.8361367151204834e-14
3.7098257541656494,-1.19,2.91,9.12,0.0,0.0,0.0,0.05,0.16,0.76,0.63,-1.9400065441509853e-13,2.2651890366181013e-14,-2.8361367151204834e-14
3.7102019786834717,-1.19,2.91,9.12,0.0,0.0,0.0,0.05,0.16,0.76,0.63,-1.9400065441509853e-13,2.2651890366181013e-14,-2.8361367151204834e-14
3.7105772495269775,-1.19,2.91,9.12,0.0,0.0,0.0,0.05,0.16,0.76,0.63,-1.9400065441509853e-13,2.2651890366181013e-14,-2.8361367151204834e-14
3.7109880447387695,-1.19,2.91,9.12,0.0,0.0,0.0,0.05,0.16,0.76,0.63,-1.9400065441509853e-13,2.2651890366181013e-14,-2.8361367151204834e-14
3.71136736869812,-1.19,2.91,9.12,0.0,0.0,0.0,0.05,0.16,0.76,0.63,-1.9400065441509853e-13,2.2651890366181013e-14,-2.8361367151204834e-14
3.711909532546997,-1.15,2.95,9.2,0.0,0.0,0.0,0.05,0.16,0.76,0.63,-1.9400065441509853e-13,2.2651890366181013e-14,-2.8361367151204834e-14
3.71250319480896,-1.15,2.95,9.2,0.0,0.0,0.0,0.05,0.16,0.76,0.63,-1.9400065441509853e-13,2.2651890366181013e-14,-2.8361367151204834e-14
3.713014841079712,-1.15,2.95,9.2,0.0,0.0,0.0,0.05,0.16,0.76,0.63,-1.9400065441509853e-13,2.2651890366181013e-14,-2.8361367151204834e-14
3.713510274887085,-1.15,2.95,9.2,0.0,0.0,0.0,0.05,0.16,0.76,0.63,-1.9400065441509853e-13,2.2651890366181013e-14,-2.8361367151204834e-14
3.714062213897705,-1.15,2.87,9.12,0.0,0.0,0.0,0.05,0.16,0.76,0.63,-1.9400065441509853e-13,2.2651890366181013e-14,-2.8361367151204834e-14
3.7145378589630127,-1.15,2.87,9.12,0.0,0.0,0.0,0.05,0.16,0.76,0.63,-1.9400065441509853e-13,2.2651890366181013e-14,-2.8361367151204834e-14
3.715029716491699,-1.15,2.87,9.12,0.0,0.0,0.0,0.05,0.16,0.76,0.63,-1.9400065441509853e-13,2.2651890366181013e-14,-2.8361367151204834e-14
3.715494394302368,-1.15,2.87,9.12,0.0,0.0,0.0,0.05,0.16,0.76,0.63,-1.9400065441509853e-13,2.2651890366181013e-14,-2.8361367151204834e-14
3.7159976959228516,-1.15,2.87,9.12,0.0,0.0,0.0,0.05,0.16,0.76,0.63,-1.9400065441509853e-13,2.2651890366181013e-14,-2.8361367151204834e-14
3.7164511680603027,-1.15,2.87,9.12,0.0,0.0,0.0,0.05,0.16,0.76,0.63,-1.9400065441509853e-13,2.2651890366181013e-14,-2.8361367151204834e-14
3.7169134616851807,-1.15,2.87,9.12,0.0,0.0,0.0,0.05,0.16,0.76,0.63,-1.9400065441509853e-13,2.2651890366181013e-14,-2.8361367151204834e-14
3.7770071029663086,-1.15,2.87,9.12,0.0,0.0,0.0,0.05,0.16,0.76,0.63,-1.9400065441509853e-13,2.2651890366181013e-14,-2.8361367151204834e-14
3.7777202129364014,-1.23,2.91,9.08,0.0,0.0,0.0,0.05,0.16,0.76,0.63,-1.9400065441509853e-13,2.2651890366181013e-14,-2.8361367151204834e-14
3.7782278060913086,-1.23,2.91,9.08,0.0,0.0,0.0,0.05,0.16,0.76,0.63,-1.9400065441509853e-13,2.2651890366181013e-14,-2.8361367151204834e-14
3.7787082195281982,-1.23,2.91,9.08,0.0,0.0,0.0,0.05,0.16,0.76,0.63,-1.9400065441509853e-13,2.2651890366181013e-14,-2.8361367151204834e-14
3.7791547775268555,-1.23,2.91,9.08,0.0,0.0,0.0,0.05,0.16,0.76,0.63,-1.9400065441509853e-13,2.2651890366181013e-14,-2.8361367151204834e-14
3.779663562774658,-1.23,2.91,9.08,0.0,0.0,0.0,0.05,0.16,0.76,0.63,-1.9400065441509853e-13,2.2651890366181013e-14,-2.8361367151204834e-14
3.7800989151000977,-1.23,2.91,9.08,0.0,0.0,0.0,0.05,0.16,0.76,0.63,-1.9400065441509853e-13,2.2651890366181013e-14,-2.8361367151204834e-14
3.7805216312408447,-1.23,2.91,9.08,0.0,0.0,0.0,0.05,0.16,0.76,0.63,-1.9400065441509853e-13,2.2651890366181013e-14,-2.8361367151204834e-14
3.7809293270111084,-1.23,2.91,9.08,0.0,0.0,0.0,0.05,0.16,0.76,0.63,-1.9400065441509853e-13,2.2651890366181013e-14,-2.8361367151204834e-14
3.781435966491699,-1.19,2.91,9.12,0.0,0.0,0.0,0.05,0.16,0.76,0.63,-1.9400065441509853e-13,2.2651890366181013e-14,-2.8361367151204834e-14
3.782010078430176,-1.19,2.91,9.12,0.0,0.0,0.0,0.05,0.16,0.76,0.63,-1.9400065441509853e-13,2.2651890366181013e-14,-2.8361367151204834e-14
3.7824528217315674,-1.19,2.91,9.12,0.0,0.0,0.0,0.05,0.16,0.76,0.63,-1.9400065441509853e-13,2.2651890366181013e-14,-2.8361367151204834e-14
3.7828774452209473,-1.19,2.91,9.12,0.0,0.0,0.0,0.05,0.16,0.76,0.63,-1.9400065441509853e-13,2.2651890366181013e-14,-2.8361367151204834e-14
3.783301830291748,-1.19,2.91,9.12,0.0,0.0,0.0,0.05,0.16,0.76,0.63,-1.9400065441509853e-13,2.2651890366181013e-14,-2.8361367151204834e-14
3.7837390899658203,-1.19,2.91,9.12,0.0,0.0,0.0,0.05,0.16,0.76,0.63,-1.9400065441509853e-13,2.2651890366181013e-14,-2.8361367151204834e-14
3.8403825759887695,-1.19,2.91,9.16,0.0,0.0,0.0,0.05,0.16,0.76,0.63,-1.9400065441509853e-13,2.2651890366181013e-14,-2.8361367151204834e-14
3.8410465717315674,-1.19,2.91,9.16,0.0,0.0,0.0,0.05,0.16,0.76,0.63,-1.9400065441509853e-13,2.2651890366181013e-14,-2.8361367151204834e-14
3.8415846824645996,-1.19,2.91,9.16,0.0,0.0,0.0,0.05,0.16,0.76,0.63,-1.9400065441509853e-13,2.2651890366181013e-14,-2.8361367151204834e-14
3.84201979637146,-1.19,2.91,9.16,0.0,0.0,0.0,0.05,0.16,0.76,0.63,-1.9400065441509853e-13,2.2651890366181013e-14,-2.8361367151204834e-14
3.842618942260742,-1.19,2.91,9.16,0.0,0.0,0.0,0.05,0.16,0.76,0.63,-1.9400065441509853e-13,2.2651890366181013e-14,-2.8361367151204834e-14
3.898205041885376,-1.19,2.91,9.16,0.0,0.0,0.0,0.05,0.16,0.76,0.63,-1.9400065441509853e-13,2.2651890366181013e-14,-2.8361367151204834e-14
3.898907423019409,-1.19,2.91,9.16,0.0,0.0,0.0,0.05,0.16,0.76,0.63,-1.9400065441509853e-13,2.2651890366181013e-14,-2.8361367151204834e-14
3.89951753616333,-1.19,2.91,9.16,0.0,0.0,0.0,0.05,0.16,0.76,0.63,-1.9400065441509853e-13,2.2651890366181013e-14,-2.8361367151204834e-14
3.8999953269958496,-1.19,2.95,9.04,0.0,0.0,0.0,0.05,0.16,0.76,0.63,-1.9400065441509853e-13,2.2651890366181013e-14,-2.8361367151204834e-14
3.9004547595977783,-1.19,2.95,9.04,0.0,0.0,0.0,0.05,0.16,0.76,0.63,-1.9400065441509853e-13,2.2651890366181013e-14,-2.8361367151204834e-14
3.9008777141571045,-1.19,2.95,9.04,0.0,0.0,0.0,0.05,0.16,0.76,0.63,-1.9400065441509853e-13,2.2651890366181013e-14,-2.8361367151204834e-14
3.901324987411499,-1.19,2.95,9.04,0.0,0.0,0.0,0.05,0.16,0.76,0.63,-1.9400065441509853e-13,2.2651890366181013e-14,-2.8361367151204834e-14
3.9017701148986816,-1.19,2.95,9.04,0.0,0.0,0.0,0.05,0.16,0.76,0.63,-1.9400065441509853e-13,2.2651890366181013e-14,-2.8361367151204834e-14
3.9022161960601807,-1.19,2.95,9.04,0.0,0.0,0.0,0.05,0.16,0.76,0.63,-1.9400065441509853e-13,2.2651890366181013e-14,-2.8361367151204834e-14
3.902700662612915,-1.15,2.91,9.16,0.0,0.0,0.0,0.05,0.16,0.76,0.63,-1.9400065441509853e-13,2.2651890366181013e-14,-2.8361367151204834e-14
3.9032163619995117,-1.15,2.91,9.16,0.0,0.0,0.0,0.05,0.16,0.76,0.63,-1.9400065441509853e-13,2.2651890366181013e-14,-2.8361367151204834e-14
3.903646469116211,-1.15,2.91,9.16,0.0,0.0,0.0,0.05,0.16,0.76,0.63,-1.9400065441509853e-13,2.2651890366181013e-14,-2.8361367151204834e-14
3.9040756225585938,-1.15,2.91,9.16,0.0,0.0,0.0,0.05,0.16,0.76,0.63,-1.9400065441509853e-13,2.2651890366181013e-14,-2.8361367151204834e-14
3.9045522212982178,-1.15,2.91,9.16,0.0,0.0,0.0,0.05,0.16,0.76,0.63,-1.9400065441509853e-13,2.2651890366181013e-14,-2.8361367151204834e-14
3.905006170272827,-1.15,2.91,9.16,0.0,0.0,0.0,0.05,0.16,0.76,0.63,-1.9400065441509853e-13,2.2651890366181013e-14,-2.8361367151204834e-14
3.9054677486419678,-1.15,2.91,9.16,0.0,0.0,0.0,0.05,0.16,0.76,0.63,-1.9400065441509853e-13,2.2651890366181013e-14,-2.8361367151204834e-14
3.9059066772460938,-1.15,2.91,9.16,0.0,0.0,0.0,0.05,0.16,0.76,0.63,-1.9400065441509853e-13,2.2651890366181013e-14,-2.8361367151204834e-14
3.906428575515747,-1.15,2.91,9.16,0.0,0.0,0.0,0.05,0.16,0.76,0.63,-1.9400065441509853e-13,2.2651890366181013e-14,-2.8361367151204834e-14
3.9069101810455322,-1.15,2.91,9.16,0.0,0.0,0.0,0.05,0.16,0.76,0.63,-1.9400065441509853e-13,2.2651890366181013e-14,-2.8361367151204834e-14
3.907379388809204,-1.15,2.91,9.16,0.0,0.0,0.0,0.05,0.16,0.76,0.63,-1.9400065441509853e-13,2.2651890366181013e-14,-2.8361367151204834e-14
3.964571714401245,-1.15,2.91,9.16,0.0,0.0,0.0,0.05,0.16,0.76,0.63,-1.9400065441509853e-13,2.2651890366181013e-14,-2.8361367151204834e-14
3.96522855758667,-1.15,2.95,9.16,0.0,0.0,0.0,0.05,0.16,0.76,0.63,-1.9400065441509853e-13,2.2651890366181013e-14,-2.8361367151204834e-14
3.9658493995666504,-1.15,2.95,9.16,0.0,0.0,0.0,0.05,0.16,0.76,0.63,-1.9400065441509853e-13,2.2651890366181013e-14,-2.8361367151204834e-14
3.9663047790527344,-1.15,2.95,9.16,0.0,0.0,0.0,0.05,0.16,0.76,0.63,-1.9400065441509853e-13,2.2651890366181013e-14,-2.8361367151204834e-14
3.966801643371582,-1.15,2.95,9.16,0.0,0.0,0.0,0.05,0.16,0.76,0.63,-1.9400065441509853e-13,2.2651890366181013e-14,-2.8361367151204834e-14
3.9672296047210693,-1.15,2.95,9.16,0.0,0.0,0.0,0.05,0.16,0.76,0.63,-1.9400065441509853e-13,2.2651890366181013e-14,-2.8361367151204834e-14
3.9678120613098145,-1.15,2.95,9.16,0.0,0.0,0.0,0.05,0.16,0.76,0.63,-1.9400065441509853e-13,2.2651890366181013e-14,-2.8361367151204834e-14
3.9682459831237793,-1.19,2.91,9.08,0.0,0.0,0.0,0.05,0.16,0.76,0.63,-1.9400065441509853e-13,2.2651890366181013e-14,-2.8361367151204834e-14
3.9686636924743652,-1.19,2.91,9.08,0.0,0.0,0.0,0.05,0.16,0.76,0.63,-1.9400065441509853e-13,2.2651890366181013e-14,-2.8361367151204834e-14
3.9692201614379883,-1.19,2.91,9.08,0.0,0.0,0.0,0.05,0.16,0.76,0.63,-1.9400065441509853e-13,2.2651890366181013e-14,-2.8361367151204834e-14
3.9697933197021484,-1.19,2.91,9.08,0.0,0.0,0.0,0.05,0.16,0.76,0.63,-1.9400065441509853e-13,2.2651890366181013e-14,-2.8361367151204834e-14
3.970224142074585,-1.15,2.87,9.12,0.0,0.0,0.0,0.05,0.16,0.76,0.63,-1.9400065441509853e-13,2.2651890366181013e-14,-2.8361367151204834e-14
3.970651149749756,-1.15,2.87,9.12,0.0,0.0,0.0,0.05,0.16,0.76,0.63,-1.9400065441509853e-13,2.2651890366181013e-14,-2.8361367151204834e-14
3.9711596965789795,-1.15,2.87,9.12,0.0,0.0,0.0,0.05,0.16,0.76,0.63,-1.9400065441509853e-13,2.2651890366181013e-14,-2.8361367151204834e-14
3.971581220626831,-1.15,2.87,9.12,0.0,0.0,0.0,0.05,0.16,0.76,0.63,-1.9400065441509853e-13,2.2651890366181013e-14,-2.8361367151204834e-14
3.972050905227661,-1.15,2.87,9.12,0.0,0.0,0.0,0.05,0.16,0.76,0.63,-1.9400065441509853e-13,2.2651890366181013e-14,-2.8361367151204834e-14
4.028513669967651,-1.15,2.87,9.12,0.0,0.0,0.0,0.05,0.16,0.76,0.63,-1.9400065441509853e-13,2.2651890366181013e-14,-2.8361367151204834e-14
4.0294575691223145,-1.15,2.95,9.16,0.0,0.0,0.0,0.05,0.16,0.76,0.63,-1.9400065441509853e-13,2.2651890366181013e-14,-2.8361367151204834e-14
4.030048370361328,-1.15,2.95,9.16,0.0,0.0,0.0,0.05,0.16,0.76,0.63,-1.9400065441509853e-13,2.2651890366181013e-14,-2.8361367151204834e-14
4.030688762664795,-1.15,2.95,9.16,0.0,0.0,0.0,0.05,0.16,0.76,0.63,-1.9400065441509853e-13,2.2651890366181013e-14,-2.8361367151204834e-14
4.0312724113464355,-1.15,2.95,9.16,0.0,0.0,0.0,0.05,0.16,0.76,0.63,-1.9400065441509853e-13,2.2651890366181013e-14,-2.8361367151204834e-14
4.0318639278411865,-1.15,2.95,9.16,0.0,0.0,0.0,0.05,0.16,0.76,0.63,-1.9400065441509853e-13,2.2651890366181013e-14,-2.8361367151204834e-14
4.032453775405884,-1.15,2.95,9.16,0.0,0.0,0.0,0.05,0.16,0.76,0.63,-1.9400065441509853e-13,2.2651890366181013e-14,-2.8361367151204834e-14
4.032938718795776,-1.19,2.87,9.08,0.0,0.0,0.0,0.05,0.16,0.76,0.63,-1.9400065441509853e-13,2.2651890366181013e-14,-2.8361367151204834e-14
4.033504009246826,-1.19,2.87,9.08,0.0,0.0,0.0,0.05,0.16,0.76,0.63,-1.9400065441509853e-13,2.2651890366181013e-14,-2.8361367151204834e-14
4.03397274017334,-1.19,2.87,9.08,0.0,0.0,0.0,0.05,0.16,0.76,0.63,-1.9400065441509853e-13,2.2651890366181013e-14,-2.8361367151204834e-14
4.034472465515137,-1.19,2.87,9.08,0.0,0.0,0.0,0.05,0.16,0.76,0.63,-1.9400065441509853e-13,2.2651890366181013e-14,-2.8361367151204834e-14
4.035053968429565,-1.19,2.87,9.08,0.0,0.0,0.0,0.05,0.16,0.76,0.63,-1.9400065441509853e-13,2.2651890366181013e-14,-2.8361367151204834e-14
4.035516977310181,-1.19,2.87,9.08,0.0,0.0,0.0,0.05,0.16,0.76,0.63,-1.9400065441509853e-13,2.2651890366181013e-14,-2.8361367151204834e-14
4.0899553298950195,-1.19,2.87,9.08,0.0,0.0,0.0,0.05,0.16,0.76,0.63,-1.9400065441509853e-13,2.2651890366181013e-14,-2.8361367151204834e-14
4.090611696243286,-1.19,2.87,9.08,0.0,0.0,0.0,0.05,0.16,0.76,0.63,-1.9400065441509853e-13,2.2651890366181013e-14,-2.8361367151204834e-14
4.091107368469238,-1.19,2.91,9.12,0.0,0.0,0.0,0.05,0.16,0.76,0.63,-1.9400065441509853e-13,2.2651890366181013e-14,-2.8361367151204834e-14
4.091551780700684,-1.19,2.91,9.12,0.0,0.0,0.0,0.05,0.16,0.76,0.63,-1.9400065441509853e-13,2.2651890366181013e-14,-2.8361367151204834e-14
4.091986894607544,-1.19,2.91,9.12,0.0,0.0,0.0,0.05,0.16,0.76,0.63,-1.9400065441509853e-13,2.2651890366181013e-14,-2.8361367151204834e-14
4.0924341678619385,-1.19,2.91,9.12,0.0,0.0,0.0,0.05,0.16,0.76,0.63,-1.9400065441509853e-13,2.2651890366181013e-14,-2.8361367151204834e-14
4.09286093711853,-1.19,2.91,9.12,0.0,0.0,0.0,0.05,0.16,0.76,0.63,-1.9400065441509853e-13,2.2651890366181013e-14,-2.8361367151204834e-14
4.093305587768555,-1.19,2.91,9.12,0.0,0.0,0.0,0.05,0.16,0.76,0.63,-1.9400065441509853e-13,2.2651890366181013e-14,-2.8361367151204834e-14
4.093715667724609,-1.15,2.91,9.12,0.0,0.0,0.0,0.05,0.16,0.76,0.63,-1.9400065441509853e-13,2.2651890366181013e-14,-2.8361367151204834e-14
4.09417986869812,-1.15,2.91,9.12,0.0,0.0,0.0,0.05,0.16,0.76,0.63,-1.9400065441509853e-13,2.2651890366181013e-14,-2.8361367151204834e-14
4.094616889953613,-1.15,2.91,9.12,0.0,0.0,0.0,0.05,0.16,0.76,0.63,-1.9400065441509853e-13,2.2651890366181013e-14,-2.8361367151204834e-14
4.145944595336914,-1.15,2.91,9.12,0.0,0.0,0.0,0.05,0.16,0.76,0.63,-1.9400065441509853e-13,2.2651890366181013e-14,-2.8361367151204834e-14
4.146742820739746,-1.15,2.91,9.12,0.0,0.0,0.0,0.05,0.16,0.76,0.63,-1.9400065441509853e-13,2.2651890366181013e-14,-2.8361367151204834e-14
4.147416591644287,-1.15,2.91,9.12,0.0,0.0,0.0,0.05,0.16,0.76,0.63,-1.9400065441509853e-13,2.2651890366181013e-14,-2.8361367151204834e-14
4.147995233535767,-1.15,2.91,9.12,0.0,0.0,0.0,0.05,0.16,0.76,0.63,-1.9400065441509853e-13,2.2651890366181013e-14,-2.8361367151204834e-14
4.148480653762817,-1.15,2.91,9.12,0.0,0.0,0.0,0.05,0.16,0.76,0.63,-1.9400065441509853e-13,2.2651890366181013e-14,-2.8361367151204834e-14
4.1492390632629395,-1.15,2.95,9.12,0.0,0.0,0.0,0.05,0.16,0.76,0.63,-1.9400065441509853e-13,2.2651890366181013e-14,-2.8361367151204834e-14
4.149739503860474,-1.15,2.95,9.12,0.0,0.0,0.0,0.05,0.16,0.76,0.63,-1.9400065441509853e-13,2.2651890366181013e-14,-2.8361367151204834e-14
4.150323152542114,-1.15,2.95,9.12,0.0,0.0,0.0,0.05,0.16,0.76,0.63,-1.9400065441509853e-13,2.2651890366181013e-14,-2.8361367151204834e-14
4.150830030441284,-1.15,2.95,9.12,0.0,0.0,0.0,0.05,0.16,0.76,0.63,-1.9400065441509853e-13,2.2651890366181013e-14,-2.8361367151204834e-14
4.151433944702148,-1.15,2.95,9.12,0.0,0.0,0.0,0.05,0.16,0.76,0.63,-1.9400065441509853e-13,2.2651890366181013e-14,-2.8361367151204834e-14
4.151974201202393,-1.15,2.95,9.12,0.0,0.0,0.0,0.05,0.16,0.76,0.63,-1.9400065441509853e-13,2.2651890366181013e-14,-2.8361367151204834e-14
4.152388334274292,-1.15,2.95,9.12,0.0,0.0,0.0,0.05,0.16,0.76,0.63,-1.9400065441509853e-13,2.2651890366181013e-14,-2.8361367151204834e-14
4.152773141860962,-1.15,2.95,9.12,0.0,0.0,0.0,0.05,0.16,0.76,0.63,-1.9400065441509853e-13,2.2651890366181013e-14,-2.8361367151204834e-14
4.153223276138306,-1.19,2.87,9.12,0.0,0.0,0.0,0.05,0.16,0.76,0.63,-1.9400065441509853e-13,2.2651890366181013e-14,-2.8361367151204834e-14
4.204647064208984,-1.19,2.87,9.12,0.0,0.0,0.0,0.05,0.16,0.76,0.63,-1.9400065441509853e-13,2.2651890366181013e-14,-2.8361367151204834e-14
4.20528507232666,-1.19,2.87,9.12,0.0,0.0,0.0,0.05,0.16,0.76,0.63,-1.9400065441509853e-13,2.2651890366181013e-14,-2.8361367151204834e-14
4.205798625946045,-1.19,2.87,9.12,0.0,0.0,0.0,0.05,0.16,0.76,0.63,-1.9400065441509853e-13,2.2651890366181013e-14,-2.8361367151204834e-14
4.20625638961792,-1.19,2.87,9.12,0.0,0.0,0.0,0.05,0.16,0.76,0.63,-1.9400065441509853e-13,2.2651890366181013e-14,-2.8361367151204834e-14
4.206689119338989,-1.19,2.87,9.12,0.0,0.0,0.0,0.05,0.16,0.76,0.63,-1.9400065441509853e-13,2.2651890366181013e-14,-2.8361367151204834e-14
4.207146883010864,-1.15,2.91,9.08,0.0,0.0,0.0,0.05,0.16,0.76,0.63,-1.9400065441509853e-13,2.2651890366181013e-14,-2.8361367151204834e-14
4.207563161849976,-1.15,2.91,9.08,0.0,0.0,0.0,0.05,0.16,0.76,0.63,-1.9400065441509853e-13,2.2651890366181013e-14,-2.8361367151204834e-14
4.208011627197266,-1.15,2.91,9.08,0.0,0.0,0.0,0.05,0.16,0.76,0.63,-1.9400065441509853e-13,2.2651890366181013e-14,-2.8361367151204834e-14
4.208465099334717,-1.15,2.91,9.08,0.0,0.0,0.0,0.05,0.16,0.76,0.63,-1.9400065441509853e-13,2.2651890366181013e-14,-2.8361367151204834e-14
4.259487867355347,-1.15,2.91,9.08,0.0,0.0,0.0,0.05,0.16,0.76,0.63,-1.9400065441509853e-13,2.2651890366181013e-14,-2.8361367151204834e-14
4.260200500488281,-1.15,2.91,9.08,0.0,0.0,0.0,0.05,0.16,0.76,0.63,-1.9400065441509853e-13,2.2651890366181013e-14,-2.8361367151204834e-14
4.260746717453003,-1.07,2.87,9.12,0.0,0.0,0.0,0.05,0.16,0.76,0.63,-1.9400065441509853e-13,2.2651890366181013e-14,-2.8361367151204834e-14
4.261194229125977,-1.07,2.87,9.12,0.0,0.0,0.0,0.05,0.16,0.76,0.63,-1.9400065441509853e-13,2.2651890366181013e-14,-2.8361367151204834e-14
4.261616230010986,-1.07,2.87,9.12,0.0,0.0,0.0,0.05,0.16,0.76,0.63,-1.9400065441509853e-13,2.2651890366181013e-14,-2.8361367151204834e-14
4.262062072753906,-1.07,2.87,9.12,0.0,0.0,0.0,0.05,0.16,0.76,0.63,-1.9400065441509853e-13,2.2651890366181013e-14,-2.8361367151204834e-14
4.262544631958008,-1.07,2.87,9.12,0.0,0.0,0.0,0.05,0.16,0.76,0.63,-1.9400065441509853e-13,2.2651890366181013e-14,-2.8361367151204834e-14
4.2631025314331055,-1.07,2.87,9.12,0.0,0.0,0.0,0.05,0.16,0.76,0.63,-1.9400065441509853e-13,2.2651890366181013e-14,-2.8361367151204834e-14
4.263540983200073,-1.19,2.87,9.12,0.0,0.0,0.0,0.05,0.16,0.76,0.63,-1.9400065441509853e-13,2.2651890366181013e-14,-2.8361367151204834e-14
4.2640063762664795,-1.19,2.87,9.12,0.0,0.0,0.0,0.05,0.16,0.76,0.63,-1.9400065441509853e-13,2.2651890366181013e-14,-2.8361367151204834e-14
4.264514446258545,-1.19,2.87,9.12,0.0,0.0,0.0,0.05,0.16,0.76,0.63,-1.9400065441509853e-13,2.2651890366181013e-14,-2.8361367151204834e-14
4.264948129653931,-1.19,2.87,9.12,0.0,0.0,0.0,0.05,0.16,0.76,0.63,-1.9400065441509853e-13,2.2651890366181013e-14,-2.8361367151204834e-14
4.265431642532349,-1.19,2.87,9.12,0.0,0.0,0.0,0.05,0.16,0.76,0.63,-1.9400065441509853e-13,2.2651890366181013e-14,-2.8361367151204834e-14
4.265897750854492,-1.19,2.87,9.12,0.0,0.0,0.0,0.05,0.16,0.76,0.63,-1.9400065441509853e-13,2.2651890366181013e-14,-2.8361367151204834e-14
4.266341924667358,-1.19,2.87,9.12,0.0,0.0,0.0,0.05,0.16,0.76,0.63,-1.9400065441509853e-13,2.2651890366181013e-14,-2.8361367151204834e-14
4.266788005828857,-1.19,2.87,9.12,0.0,0.0,0.0,0.05,0.16,0.76,0.63,-1.9400065441509853e-13,2.2651890366181013e-14,-2.8361367151204834e-14
4.318141937255859,-1.19,2.91,9.12,0.0,0.0,0.0,0.05,0.16,0.76,0.63,-1.9400065441509853e-13,2.2651890366181013e-14,-2.8361367151204834e-14
4.318853378295898,-1.19,2.91,9.12,0.0,0.0,0.0,0.05,0.16,0.76,0.63,-1.9400065441509853e-13,2.2651890366181013e-14,-2.8361367151204834e-14
4.319391489028931,-1.19,2.91,9.12,0.0,0.0,0.0,0.05,0.16,0.76,0.63,-1.9400065441509853e-13,2.2651890366181013e-14,-2.8361367151204834e-14
4.319829225540161,-1.19,2.91,9.12,0.0,0.0,0.0,0.05,0.16,0.76,0.63,-1.9400065441509853e-13,2.2651890366181013e-14,-2.8361367151204834e-14
4.320306062698364,-1.19,2.91,9.12,0.0,0.0,0.0,0.05,0.16,0.76,0.63,-1.9400065441509853e-13,2.2651890366181013e-14,-2.8361367151204834e-14
4.320766925811768,-1.19,2.91,9.12,0.0,0.0,0.0,0.05,0.16,0.76,0.63,-1.9400065441509853e-13,2.2651890366181013e-14,-2.8361367151204834e-14
4.321231365203857,-1.19,2.91,9.12,0.0,0.0,0.0,0.05,0.16,0.76,0.63,-1.9400065441509853e-13,2.2651890366181013e-14,-2.8361367151204834e-14
4.321655750274658,-1.19,2.91,9.12,0.0,0.0,0.0,0.05,0.16,0.76,0.63,-1.9400065441509853e-13,2.2651890366181013e-14,-2.8361367151204834e-14
4.32217812538147,-1.19,2.95,9.08,0.0,0.0,0.0,0.05,0.16,0.76,0.63,-1.9400065441509853e-13,2.2651890366181013e-14,-2.8361367151204834e-14
4.385392427444458,-1.19,2.95,9.08,0.0,0.0,0.0,0.05,0.16,0.76,0.63,-1.9400065441509853e-13,2.2651890366181013e-14,-2.8361367151204834e-14
4.386348009109497,-1.19,2.95,9.08,0.0,0.0,0.0,0.05,0.16,0.76,0.63,-1.9400065441509853e-13,2.2651890366181013e-14,-2.8361367151204834e-14
4.387432813644409,-1.19,2.95,9.08,0.0,0.0,0.0,0.05,0.16,0.76,0.63,-1.9400065441509853e-13,2.2651890366181013e-14,-2.8361367151204834e-14
4.38801646232605,-1.19,2.95,9.08,0.0,0.0,0.0,0.05,0.16,0.76,0.63,-1.9400065441509853e-13,2.2651890366181013e-14,-2.8361367151204834e-14
4.388631582260132,-1.19,2.95,9.08,0.0,0.0,0.0,0.05,0.16,0.76,0.63,-1.9400065441509853e-13,2.2651890366181013e-14,-2.8361367151204834e-14
4.389242887496948,-1.19,2.87,9.12,0.0,0.0,0.0,0.05,0.16,0.76,0.63,-1.9400065441509853e-13,2.2651890366181013e-14,-2.8361367151204834e-14
4.389752388000488,-1.19,2.87,9.12,0.0,0.0,0.0,0.05,0.16,0.76,0.63,-1.9400065441509853e-13,2.2651890366181013e-14,-2.8361367151204834e-14
4.3902952671051025,-1.19,2.87,9.12,0.0,0.0,0.0,0.05,0.16,0.76,0.63,-1.9400065441509853e-13,2.2651890366181013e-14,-2.8361367151204834e-14
4.390796661376953,-1.19,2.87,9.12,0.0,0.0,0.0,0.05,0.16,0.76,0.63,-1.9400065441509853e-13,2.2651890366181013e-14,-2.8361367151204834e-14
4.39142918586731,-1.19,2.87,9.12,0.0,0.0,0.0,0.05,0.16,0.76,0.63,-1.9400065441509853e-13,2.2651890366181013e-14,-2.8361367151204834e-14
4.392033576965332,-1.19,2.87,9.12,0.0,0.0,0.0,0.05,0.16,0.76,0.63,-1.9400065441509853e-13,2.2651890366181013e-14,-2.8361367151204834e-14
4.39271354675293,-1.15,2.87,9.12,0.0,0.0,0.0,0.05,0.16,0.76,0.63,-1.9400065441509853e-13,2.2651890366181013e-14,-2.8361367151204834e-14
4.393385171890259,-1.15,2.87,9.12,0.0,0.0,0.0,0.05,0.16,0.76,0.63,-1.9400065441509853e-13,2.2651890366181013e-14,-2.8361367151204834e-14
4.3939902782440186,-1.15,2.87,9.12,0.0,0.0,0.0,0.05,0.16,0.76,0.63,-1.9400065441509853e-13,2.2651890366181013e-14,-2.8361367151204834e-14
4.3946661949157715,-1.15,2.87,9.12,0.0,0.0,0.0,0.05,0.16,0.76,0.63,-1.9400065441509853e-13,2.2651890366181013e-14,-2.8361367151204834e-14
4.3953118324279785,-1.15,2.87,9.12,0.0,0.0,0.0,0.05,0.16,0.76,0.63,-1.9400065441509853e-13,2.2651890366181013e-14,-2.8361367151204834e-14
4.396191596984863,-1.15,2.87,9.12,0.0,0.0,0.0,0.05,0.16,0.76,0.63,-1.9400065441509853e-13,2.2651890366181013e-14,-2.8361367151204834e-14
4.397001028060913,-1.15,2.87,9.12,0.0,0.0,0.0,0.05,0.16,0.76,0.63,-1.9400065441509853e-13,2.2651890366181013e-14,-2.8361367151204834e-14
4.397714138031006,-1.15,2.87,9.12,0.0,0.0,0.0,0.05,0.16,0.76,0.63,-1.9400065441509853e-13,2.2651890366181013e-14,-2.8361367151204834e-14
4.448908567428589,-1.15,2.87,9.16,0.0,0.0,0.0,0.05,0.16,0.76,0.63,-1.9400065441509853e-13,2.2651890366181013e-14,-2.8361367151204834e-14
4.449615478515625,-1.15,2.87,9.16,0.0,0.0,0.0,0.05,0.16,0.76,0.63,-1.9400065441509853e-13,2.2651890366181013e-14,-2.8361367151204834e-14
4.450294017791748,-1.15,2.87,9.16,0.0,0.0,0.0,0.05,0.16,0.76,0.63,-1.9400065441509853e-13,2.2651890366181013e-14,-2.8361367151204834e-14
4.450831651687622,-1.15,2.87,9.16,0.0,0.0,0.0,0.05,0.16,0.76,0.63,-1.9400065441509853e-13,2.2651890366181013e-14,-2.8361367151204834e-14
4.451236724853516,-1.15,2.87,9.16,0.0,0.0,0.0,0.05,0.16,0.76,0.63,-1.9400065441509853e-13,2.2651890366181013e-14,-2.8361367151204834e-14
4.451637268066406,-1.15,2.87,9.16,0.0,0.0,0.0,0.05,0.16,0.76,0.63,-1.9400065441509853e-13,2.2651890366181013e-14,-2.8361367151204834e-14
4.452073097229004,-1.15,2.87,9.16,0.0,0.0,0.0,0.05,0.16,0.76,0.63,-1.9400065441509853e-13,2.2651890366181013e-14,-2.8361367151204834e-14
4.452512502670288,-1.15,2.87,9.16,0.0,0.0,0.0,0.05,0.16,0.76,0.63,-1.9400065441509853e-13,2.2651890366181013e-14,-2.8361367151204834e-14
4.452904224395752,-1.19,2.91,9.16,0.0,0.0,0.0,0.05,0.16,0.76,0.63,-1.9400065441509853e-13,2.2651890366181013e-14,-2.8361367151204834e-14
4.505452394485474,-1.19,2.91,9.16,0.0,0.0,0.0,0.05,0.16,0.76,0.63,-1.9400065441509853e-13,2.2651890366181013e-14,-2.8361367151204834e-14
4.5061726570129395,-1.19,2.91,9.16,0.0,0.0,0.0,0.05,0.16,0.76,0.63,-1.9400065441509853e-13,2.2651890366181013e-14,-2.8361367151204834e-14
4.5068135261535645,-1.19,2.91,9.16,0.0,0.0,0.0,0.05,0.16,0.76,0.63,-1.9400065441509853e-13,2.2651890366181013e-14,-2.8361367151204834e-14
4.5072855949401855,-1.19,2.91,9.16,0.0,0.0,0.0,0.05,0.16,0.76,0.63,-1.9400065441509853e-13,2.2651890366181013e-14,-2.8361367151204834e-14
4.507805585861206,-1.19,2.91,9.16,0.0,0.0,0.0,0.05,0.16,0.76,0.63,-1.9400065441509853e-13,2.2651890366181013e-14,-2.8361367151204834e-14
4.508296251296997,-1.15,2.91,9.12,0.0,0.0,0.0,0.05,0.16,0.76,0.63,-1.9400065441509853e-13,2.2651890366181013e-14,-2.8361367151204834e-14
4.508927583694458,-1.15,2.91,9.12,0.0,0.0,0.0,0.05,0.16,0.76,0.63,-1.9400065441509853e-13,2.2651890366181013e-14,-2.8361367151204834e-14
4.509449243545532,-1.15,2.91,9.12,0.0,0.0,0.0,0.05,0.16,0.76,0.63,-1.9400065441509853e-13,2.2651890366181013e-14,-2.8361367151204834e-14
4.510073661804199,-1.15,2.91,9.12,0.0,0.0,0.0,0.05,0.16,0.76,0.63,-1.9400065441509853e-13,2.2651890366181013e-14,-2.8361367151204834e-14
4.5105626583099365,-1.15,2.91,9.12,0.0,0.0,0.0,0.05,0.16,0.76,0.63,-1.9400065441509853e-13,2.2651890366181013e-14,-2.8361367151204834e-14
4.511101961135864,-1.15,2.91,9.12,0.0,0.0,0.0,0.05,0.16,0.76,0.63,-1.9400065441509853e-13,2.2651890366181013e-14,-2.8361367151204834e-14
4.511563777923584,-1.19,2.87,9.2,0.0,0.0,0.0,0.05,0.16,0.76,0.63,-1.9400065441509853e-13,2.2651890366181013e-14,-2.8361367151204834e-14
4.5121166706085205,-1.19,2.87,9.2,0.0,0.0,0.0,0.05,0.16,0.76,0.63,-1.9400065441509853e-13,2.2651890366181013e-14,-2.8361367151204834e-14
4.512638330459595,-1.19,2.87,9.2,0.0,0.0,0.0,0.05,0.16,0.76,0.63,-1.9400065441509853e-13,2.2651890366181013e-14,-2.8361367151204834e-14
4.513156175613403,-1.19,2.87,9.2,0.0,0.0,0.0,0.05,0.16,0.76,0.63,-1.9400065441509853e-13,2.2651890366181013e-14,-2.8361367151204834e-14
4.513639211654663,-1.19,2.87,9.2,0.0,0.0,0.0,0.05,0.16,0.76,0.63,-1.9400065441509853e-13,2.2651890366181013e-14,-2.8361367151204834e-14
4.514066696166992,-1.19,2.87,9.2,0.0,0.0,0.0,0.05,0.16,0.76,0.63,-1.9400065441509853e-13,2.2651890366181013e-14,-2.8361367151204834e-14
4.514566898345947,-1.15,2.87,9.2,0.0,0.0,0.0,0.05,0.16,0.76,0.63,-1.9400065441509853e-13,2.2651890366181013e-14,-2.8361367151204834e-14
4.5659801959991455,-1.15,2.87,9.2,0.0,0.0,0.0,0.05,0.16,0.76,0.63,-1.9400065441509853e-13,2.2651890366181013e-14,-2.8361367151204834e-14
4.566705942153931,-1.15,2.87,9.2,0.0,0.0,0.0,0.05,0.16,0.76,0.63,-1.9400065441509853e-13,2.2651890366181013e-14,-2.8361367151204834e-14
4.56720757484436,-1.15,2.87,9.2,0.0,0.0,0.0,0.05,0.16,0.76,0.63,-1.9400065441509853e-13,2.2651890366181013e-14,-2.8361367151204834e-14
4.567779302597046,-1.15,2.87,9.2,0.0,0.0,0.0,0.05,0.16,0.76,0.63,-1.9400065441509853e-13,2.2651890366181013e-14,-2.8361367151204834e-14
4.5683393478393555,-1.15,2.87,9.2,0.0,0.0,0.0,0.05,0.16,0.76,0.63,-1.9400065441509853e-13,2.2651890366181013e-14,-2.8361367151204834e-14
4.568801164627075,-1.15,2.87,9.2,0.0,0.0,0.0,0.05,0.16,0.76,0.63,-1.9400065441509853e-13,2.2651890366181013e-14,-2.8361367151204834e-14
4.569212913513184,-1.15,2.87,9.2,0.0,0.0,0.0,0.05,0.16,0.76,0.63,-1.9400065441509853e-13,2.2651890366181013e-14,-2.8361367151204834e-14
4.569686412811279,-1.19,2.91,9.12,0.0,0.0,0.0,0.05,0.16,0.76,0.63,-1.9400065441509853e-13,2.2651890366181013e-14,-2.8361367151204834e-14
4.570122003555298,-1.19,2.91,9.12,0.0,0.0,0.0,0.05,0.16,0.76,0.63,-1.9400065441509853e-13,2.2651890366181013e-14,-2.8361367151204834e-14
4.570578575134277,-1.19,2.91,9.12,0.0,0.0,0.0,0.05,0.16,0.76,0.63,-1.9400065441509853e-13,2.2651890366181013e-14,-2.8361367151204834e-14
4.571023225784302,-1.19,2.91,9.12,0.0,0.0,0.0,0.05,0.16,0.76,0.63,-1.9400065441509853e-13,2.2651890366181013e-14,-2.8361367151204834e-14
4.571455001831055,-1.19,2.91,9.12,0.0,0.0,0.0,0.05,0.16,0.76,0.63,-1.9400065441509853e-13,2.2651890366181013e-14,-2.8361367151204834e-14
4.57196569442749,-1.19,2.91,9.12,0.0,0.0,0.0,0.05,0.16,0.76,0.63,-1.9400065441509853e-13,2.2651890366181013e-14,-2.8361367151204834e-14
4.624205589294434,-1.19,2.87,9.12,0.0,0.0,0.0,0.05,0.16,0.76,0.63,-1.9400065441509853e-13,2.2651890366181013e-14,-2.8361367151204834e-14
4.624988794326782,-1.19,2.87,9.12,0.0,0.0,0.0,0.05,0.16,0.76,0.63,-1.9400065441509853e-13,2.2651890366181013e-14,-2.8361367151204834e-14
4.625578880310059,-1.19,2.87,9.12,0.0,0.0,0.0,0.05,0.16,0.76,0.63,-1.9400065441509853e-13,2.2651890366181013e-14,-2.8361367151204834e-14
4.626206159591675,-1.19,2.87,9.12,0.0,0.0,0.0,0.05,0.16,0.76,0.63,-1.9400065441509853e-13,2.2651890366181013e-14,-2.8361367151204834e-14
4.626646518707275,-1.19,2.87,9.08,0.0,0.0,0.0,0.05,0.16,0.76,0.63,-1.9400065441509853e-13,2.2651890366181013e-14,-2.8361367151204834e-14
4.6271045207977295,-1.19,2.87,9.08,0.0,0.0,0.0,0.05,0.16,0.76,0.63,-1.9400065441509853e-13,2.2651890366181013e-14,-2.8361367151204834e-14
4.627672433853149,-1.19,2.87,9.08,0.0,0.0,0.0,0.05,0.16,0.76,0.63,-1.9400065441509853e-13,2.2651890366181013e-14,-2.8361367151204834e-14
4.628094434738159,-1.19,2.87,9.08,0.0,0.0,0.0,0.05,0.16,0.76,0.63,-1.9400065441509853e-13,2.2651890366181013e-14,-2.8361367151204834e-14
4.628745794296265,-1.19,2.87,9.08,0.0,0.0,0.0,0.05,0.16,0.76,0.63,-1.9400065441509853e-13,2.2651890366181013e-14,-2.8361367151204834e-14
4.629200220108032,-1.19,2.87,9.08,0.0,0.0,0.0,0.05,0.16,0.76,0.63,-1.9400065441509853e-13,2.2651890366181013e-14,-2.8361367151204834e-14
4.629804849624634,-1.19,2.87,9.08,0.0,0.0,0.0,0.05,0.16,0.76,0.63,-1.9400065441509853e-13,2.2651890366181013e-14,-2.8361367151204834e-14
4.6302430629730225,-1.19,2.87,9.08,0.0,0.0,0.0,0.05,0.16,0.76,0.63,-1.9400065441509853e-13,2.2651890366181013e-14,-2.8361367151204834e-14
4.681340217590332,-1.15,2.91,9.12,0.0,0.0,0.0,0.05,0.16,0.76,0.63,-1.9400065441509853e-13,2.2651890366181013e-14,-2.8361367151204834e-14
4.682031869888306,-1.15,2.91,9.12,0.0,0.0,0.0,0.05,0.16,0.76,0.63,-1.9400065441509853e-13,2.2651890366181013e-14,-2.8361367151204834e-14
4.682681322097778,-1.15,2.91,9.12,0.0,0.0,0.0,0.05,0.16,0.76,0.63,-1.9400065441509853e-13,2.2651890366181013e-14,-2.8361367151204834e-14
4.683628559112549,-1.15,2.91,9.12,0.0,0.0,0.0,0.05,0.16,0.76,0.63,-1.9400065441509853e-13,2.2651890366181013e-14,-2.8361367151204834e-14
4.684136152267456,-1.15,2.91,9.12,0.0,0.0,0.0,0.05,0.16,0.76,0.63,-1.9400065441509853e-13,2.2651890366181013e-14,-2.8361367151204834e-14
4.684608459472656,-1.15,2.91,9.12,0.0,0.0,0.0,0.05,0.16,0.76,0.63,-1.9400065441509853e-13,2.2651890366181013e-14,-2.8361367151204834e-14
4.6851489543914795,-1.15,2.91,9.16,0.0,0.0,0.0,0.05,0.16,0.76,0.63,-1.9400065441509853e-13,2.2651890366181013e-14,-2.8361367151204834e-14
4.685648441314697,-1.15,2.91,9.16,0.0,0.0,0.0,0.05,0.16,0.76,0.63,-1.9400065441509853e-13,2.2651890366181013e-14,-2.8361367151204834e-14
4.686113357543945,-1.15,2.91,9.16,0.0,0.0,0.0,0.05,0.16,0.76,0.63,-1.9400065441509853e-13,2.2651890366181013e-14,-2.8361367151204834e-14
4.686647176742554,-1.15,2.91,9.16,0.0,0.0,0.0,0.05,0.16,0.76,0.63,-1.9400065441509853e-13,2.2651890366181013e-14,-2.8361367151204834e-14
4.68717622756958,-1.15,2.91,9.16,0.0,0.0,0.0,0.05,0.16,0.76,0.63,-1.9400065441509853e-13,2.2651890366181013e-14,-2.8361367151204834e-14
4.687694311141968,-1.15,2.91,9.16,0.0,0.0,0.0,0.05,0.16,0.76,0.63,-1.9400065441509853e-13,2.2651890366181013e-14,-2.8361367151204834e-14
4.739939212799072,-1.15,2.91,9.16,0.0,0.0,0.0,0.05,0.16,0.76,0.63,-1.9400065441509853e-13,2.2651890366181013e-14,-2.8361367151204834e-14
4.740681409835815,-1.15,2.91,9.16,0.0,0.0,0.0,0.05,0.16,0.76,0.63,-1.9400065441509853e-13,2.2651890366181013e-14,-2.8361367151204834e-14
4.741215467453003,-1.23,2.91,9.2,0.0,0.0,0.0,0.05,0.16,0.76,0.63,-1.9400065441509853e-13,2.2651890366181013e-14,-2.8361367151204834e-14
4.741688966751099,-1.23,2.91,9.2,0.0,0.0,0.0,0.05,0.16,0.76,0.63,-1.9400065441509853e-13,2.2651890366181013e-14,-2.8361367151204834e-14
4.742189407348633,-1.23,2.91,9.2,0.0,0.0,0.0,0.05,0.16,0.76,0.63,-1.9400065441509853e-13,2.2651890366181013e-14,-2.8361367151204834e-14
4.742644786834717,-1.23,2.91,9.2,0.0,0.0,0.0,0.05,0.16,0.76,0.63,-1.9400065441509853e-13,2.2651890366181013e-14,-2.8361367151204834e-14
4.7431135177612305,-1.23,2.91,9.2,0.0,0.0,0.0,0.05,0.16,0.76,0.63,-1.9400065441509853e-13,2.2651890366181013e-14,-2.8361367151204834e-14
4.743548154830933,-1.23,2.91,9.2,0.0,0.0,0.0,0.05,0.16,0.76,0.63,-1.9400065441509853e-13,2.2651890366181013e-14,-2.8361367151204834e-14
4.743980884552002,-1.23,2.91,9.2,0.0,0.0,0.0,0.05,0.16,0.76,0.63,-1.9400065441509853e-13,2.2651890366181013e-14,-2.8361367151204834e-14
4.7444236278533936,-1.23,2.91,9.2,0.0,0.0,0.0,0.05,0.16,0.76,0.63,-1.9400065441509853e-13,2.2651890366181013e-14,-2.8361367151204834e-14
4.797258138656616,-1.15,2.91,9.12,0.0,0.0,0.0,0.05,0.16,0.76,0.63,-1.9400065441509853e-13,2.2651890366181013e-14,-2.8361367151204834e-14
4.797971487045288,-1.15,2.91,9.12,0.0,0.0,0.0,0.05,0.16,0.76,0.63,-1.9400065441509853e-13,2.2651890366181013e-14,-2.8361367151204834e-14
4.798481225967407,-1.15,2.91,9.12,0.0,0.0,0.0,0.05,0.16,0.76,0.63,-1.9400065441509853e-13,2.2651890366181013e-14,-2.8361367151204834e-14
4.798949480056763,-1.15,2.91,9.12,0.0,0.0,0.0,0.05,0.16,0.76,0.63,-1.9400065441509853e-13,2.2651890366181013e-14,-2.8361367151204834e-14
4.799400091171265,-1.19,2.91,9.12,0.0,0.0,0.0,0.05,0.16,0.76,0.63,-1.9400065441509853e-13,2.2651890366181013e-14,-2.8361367151204834e-14
4.799790620803833,-1.19,2.91,9.12,0.0,0.0,0.0,0.05,0.16,0.76,0.63,-1.9400065441509853e-13,2.2651890366181013e-14,-2.8361367151204834e-14
4.800173044204712,-1.19,2.91,9.12,0.0,0.0,0.0,0.05,0.16,0.76,0.63,-1.9400065441509853e-13,2.2651890366181013e-14,-2.8361367151204834e-14
4.800591945648193,-1.19,2.91,9.12,0.0,0.0,0.0,0.05,0.16,0.76,0.63,-1.9400065441509853e-13,2.2651890366181013e-14,-2.8361367151204834e-14
4.801180124282837,-1.19,2.91,9.12,0.0,0.0,0.0,0.05,0.16,0.76,0.63,-1.9400065441509853e-13,2.2651890366181013e-14,-2.8361367151204834e-14
4.801780700683594,-1.19,2.91,9.12,0.0,0.0,0.0,0.05,0.16,0.76,0.63,-1.9400065441509853e-13,2.2651890366181013e-14,-2.8361367151204834e-14
4.802342653274536,-1.19,2.91,9.12,0.0,0.0,0.0,0.05,0.16,0.76,0.63,-1.9400065441509853e-13,2.2651890366181013e-14,-2.8361367151204834e-14
4.802778720855713,-1.19,2.91,9.12,0.0,0.0,0.0,0.05,0.16,0.76,0.63,-1.9400065441509853e-13,2.2651890366181013e-14,-2.8361367151204834e-14
4.803210258483887,-1.19,2.91,9.2,0.0,0.0,0.0,0.05,0.16,0.76,0.63,-1.9400065441509853e-13,2.2651890366181013e-14,-2.8361367151204834e-14
4.803729295730591,-1.19,2.91,9.2,0.0,0.0,0.0,0.05,0.16,0.76,0.63,-1.9400065441509853e-13,2.2651890366181013e-14,-2.8361367151204834e-14
4.854872226715088,-1.19,2.91,9.2,0.0,0.0,0.0,0.05,0.16,0.76,0.63,-1.9400065441509853e-13,2.2651890366181013e-14,-2.8361367151204834e-14
4.8557586669921875,-1.19,2.91,9.2,0.0,0.0,0.0,0.05,0.16,0.76,0.63,-1.9400065441509853e-13,2.2651890366181013e-14,-2.8361367151204834e-14
4.856302976608276,-1.19,2.91,9.2,0.0,0.0,0.0,0.05,0.16,0.76,0.63,-1.9400065441509853e-13,2.2651890366181013e-14,-2.8361367151204834e-14
4.856846570968628,-1.19,2.91,9.2,0.0,0.0,0.0,0.05,0.16,0.76,0.63,-1.9400065441509853e-13,2.2651890366181013e-14,-2.8361367151204834e-14
4.857252836227417,-1.19,2.91,9.16,0.0,0.0,0.0,0.05,0.16,0.76,0.63,-1.9400065441509853e-13,2.2651890366181013e-14,-2.8361367151204834e-14
4.857645034790039,-1.19,2.91,9.16,0.0,0.0,0.0,0.05,0.16,0.76,0.63,-1.9400065441509853e-13,2.2651890366181013e-14,-2.8361367151204834e-14
4.8580052852630615,-1.19,2.91,9.16,0.0,0.0,0.0,0.05,0.16,0.76,0.63,-1.9400065441509853e-13,2.2651890366181013e-14,-2.8361367151204834e-14
4.858482837677002,-1.19,2.91,9.16,0.0,0.0,0.0,0.05,0.16,0.76,0.63,-1.9400065441509853e-13,2.2651890366181013e-14,-2.8361367151204834e-14
4.858891248703003,-1.19,2.91,9.16,0.0,0.0,0.0,0.05,0.16,0.76,0.63,-1.9400065441509853e-13,2.2651890366181013e-14,-2.8361367151204834e-14
4.859272480010986,-1.19,2.91,9.16,0.0,0.0,0.0,0.05,0.16,0.76,0.63,-1.9400065441509853e-13,2.2651890366181013e-14,-2.8361367151204834e-14
4.910360097885132,-1.15,2.87,9.08,0.0,0.0,0.0,0.05,0.16,0.76,0.63,-1.9400065441509853e-13,2.2651890366181013e-14,-2.8361367151204834e-14
4.9110517501831055,-1.15,2.87,9.08,0.0,0.0,0.0,0.05,0.16,0.76,0.63,-1.9400065441509853e-13,2.2651890366181013e-14,-2.8361367151204834e-14
4.911576509475708,-1.15,2.87,9.08,0.0,0.0,0.0,0.05,0.16,0.76,0.63,-1.9400065441509853e-13,2.2651890366181013e-14,-2.8361367151204834e-14
4.912039041519165,-1.15,2.87,9.08,0.0,0.0,0.0,0.05,0.16,0.76,0.63,-1.9400065441509853e-13,2.2651890366181013e-14,-2.8361367151204834e-14
4.912557601928711,-1.15,2.87,9.08,0.0,0.0,0.0,0.05,0.16,0.76,0.63,-1.9400065441509853e-13,2.2651890366181013e-14,-2.8361367151204834e-14
4.913092136383057,-1.15,2.87,9.08,0.0,0.0,0.0,0.05,0.16,0.76,0.63,-1.9400065441509853e-13,2.2651890366181013e-14,-2.8361367151204834e-14
4.913519859313965,-1.11,2.91,9.12,0.0,0.0,0.0,0.05,0.16,0.76,0.63,-1.9400065441509853e-13,2.2651890366181013e-14,-2.8361367151204834e-14
4.913985252380371,-1.11,2.91,9.12,0.0,0.0,0.0,0.05,0.16,0.76,0.63,-1.9400065441509853e-13,2.2651890366181013e-14,-2.8361367151204834e-14
4.914424419403076,-1.11,2.91,9.12,0.0,0.0,0.0,0.05,0.16,0.76,0.63,-1.9400065441509853e-13,2.2651890366181013e-14,-2.8361367151204834e-14
4.914864540100098,-1.11,2.91,9.12,0.0,0.0,0.0,0.05,0.16,0.76,0.63,-1.9400065441509853e-13,2.2651890366181013e-14,-2.8361367151204834e-14
4.915284633636475,-1.11,2.91,9.12,0.0,0.0,0.0,0.05,0.16,0.76,0.63,-1.9400065441509853e-13,2.2651890366181013e-14,-2.8361367151204834e-14
4.915733337402344,-1.11,2.91,9.12,0.0,0.0,0.0,0.05,0.16,0.76,0.63,-1.9400065441509853e-13,2.2651890366181013e-14,-2.8361367151204834e-14
4.916140794754028,-1.19,2.91,9.2,0.0,0.0,0.0,0.05,0.16,0.76,0.63,-1.9400065441509853e-13,2.2651890366181013e-14,-2.8361367151204834e-14
4.916612386703491,-1.19,2.91,9.2,0.0,0.0,0.0,0.05,0.16,0.76,0.63,-1.9400065441509853e-13,2.2651890366181013e-14,-2.8361367151204834e-14
4.969045639038086,-1.19,2.91,9.2,0.0,0.0,0.0,0.05,0.16,0.76,0.63,-1.9400065441509853e-13,2.2651890366181013e-14,-2.8361367151204834e-14
4.969769477844238,-1.19,2.91,9.2,0.0,0.0,0.0,0.05,0.16,0.76,0.63,-1.9400065441509853e-13,2.2651890366181013e-14,-2.8361367151204834e-14
4.970348834991455,-1.19,2.91,9.2,0.0,0.0,0.0,0.05,0.16,0.76,0.63,-1.9400065441509853e-13,2.2651890366181013e-14,-2.8361367151204834e-14
4.9708592891693115,-1.19,2.91,9.2,0.0,0.0,0.0,0.05,0.16,0.76,0.63,-1.9400065441509853e-13,2.2651890366181013e-14,-2.8361367151204834e-14
4.971357345581055,-1.23,2.91,9.04,0.0,0.0,0.0,0.05,0.16,0.76,0.63,-1.9400065441509853e-13,2.2651890366181013e-14,-2.8361367151204834e-14
4.9718687534332275,-1.23,2.91,9.04,0.0,0.0,0.0,0.05,0.16,0.76,0.63,-1.9400065441509853e-13,2.2651890366181013e-14,-2.8361367151204834e-14
4.972364187240601,-1.23,2.91,9.04,0.0,0.0,0.0,0.05,0.16,0.76,0.63,-1.9400065441509853e-13,2.2651890366181013e-14,-2.8361367151204834e-14
4.972875118255615,-1.23,2.91,9.04,0.0,0.0,0.0,0.05,0.16,0.76,0.63,-1.9400065441509853e-13,2.2651890366181013e-14,-2.8361367151204834e-14
4.973345041275024,-1.23,2.91,9.04,0.0,0.0,0.0,0.05,0.16,0.76,0.63,-1.9400065441509853e-13,2.2651890366181013e-14,-2.8361367151204834e-14
4.9738380908966064,-1.23,2.91,9.04,0.0,0.0,0.0,0.05,0.16,0.76,0.63,-1.9400065441509853e-13,2.2651890366181013e-14,-2.8361367151204834e-14
5.026421070098877,-1.23,2.91,9.04,0.0,0.0,0.0,0.05,0.16,0.76,0.63,-1.9400065441509853e-13,2.2651890366181013e-14,-2.8361367151204834e-14
5.027076005935669,-1.23,2.91,9.04,0.0,0.0,0.0,0.05,0.16,0.76,0.63,-1.9400065441509853e-13,2.2651890366181013e-14,-2.8361367151204834e-14
5.027561664581299,-1.19,2.91,9.08,0.0,0.0,0.0,0.05,0.16,0.76,0.63,-1.9400065441509853e-13,2.2651890366181013e-14,-2.8361367151204834e-14
5.028105020523071,-1.19,2.91,9.08,0.0,0.0,0.0,0.05,0.16,0.76,0.63,-1.9400065441509853e-13,2.2651890366181013e-14,-2.8361367151204834e-14
5.028529644012451,-1.19,2.91,9.08,0.0,0.0,0.0,0.05,0.16,0.76,0.63,-1.9400065441509853e-13,2.2651890366181013e-14,-2.8361367151204834e-14
5.029321193695068,-1.19,2.91,9.08,0.0,0.0,0.0,0.05,0.16,0.76,0.63,-1.9400065441509853e-13,2.2651890366181013e-14,-2.8361367151204834e-14
5.029816627502441,-1.19,2.91,9.08,0.0,0.0,0.0,0.05,0.16,0.76,0.63,-1.9400065441509853e-13,2.2651890366181013e-14,-2.8361367151204834e-14
5.030263423919678,-1.19,2.91,9.08,0.0,0.0,0.0,0.05,0.16,0.76,0.63,-1.9400065441509853e-13,2.2651890366181013e-14,-2.8361367151204834e-14
5.030775308609009,-1.19,2.91,9.08,0.0,0.0,0.0,0.05,0.16,0.76,0.63,-1.9400065441509853e-13,2.2651890366181013e-14,-2.8361367151204834e-14
5.031281232833862,-1.19,2.91,9.08,0.0,0.0,0.0,0.05,0.16,0.76,0.63,-1.9400065441509853e-13,2.2651890366181013e-14,-2.8361367151204834e-14
5.031712293624878,-1.19,2.87,9.2,0.0,0.0,0.0,0.05,0.16,0.76,0.63,-1.9400065441509853e-13,2.2651890366181013e-14,-2.8361367151204834e-14
5.03219747543335,-1.19,2.87,9.2,0.0,0.0,0.0,0.05,0.16,0.76,0.63,-1.9400065441509853e-13,2.2651890366181013e-14,-2.8361367151204834e-14
5.032624959945679,-1.19,2.87,9.2,0.0,0.0,0.0,0.05,0.16,0.76,0.63,-1.9400065441509853e-13,2.2651890366181013e-14,-2.8361367151204834e-14
5.084403038024902,-1.19,2.87,9.2,0.0,0.0,0.0,0.05,0.16,0.76,0.63,-1.9400065441509853e-13,2.2651890366181013e-14,-2.8361367151204834e-14
5.0850934982299805,-1.19,2.87,9.2,0.0,0.0,0.0,0.05,0.16,0.76,0.63,-1.9400065441509853e-13,2.2651890366181013e-14,-2.8361367151204834e-14
5.0855512619018555,-1.19,2.87,9.2,0.0,0.0,0.0,0.05,0.16,0.76,0.63,-1.9400065441509853e-13,2.2651890366181013e-14,-2.8361367151204834e-14
5.0860021114349365,-1.19,2.87,8.96,0.0,0.0,0.0,0.05,0.16,0.76,0.63,-1.9400065441509853e-13,2.2651890366181013e-14,-2.8361367151204834e-14
5.0864129066467285,-1.19,2.87,8.96,0.0,0.0,0.0,0.05,0.16,0.76,0.63,-1.9400065441509853e-13,2.2651890366181013e-14,-2.8361367151204834e-14
5.086826324462891,-1.19,2.87,8.96,-0.01,-0.01,0.01,0.05,0.16,0.76,0.63,-1.9400065441509853e-13,2.2651890366181013e-14,-2.8361367151204834e-14
5.087250709533691,-1.19,2.87,8.96,-0.01,-0.01,0.01,0.05,0.16,0.76,0.63,-1.9400065441509853e-13,2.2651890366181013e-14,-2.8361367151204834e-14
5.0876991748809814,-1.19,2.87,8.96,0.01,-0.02,0.0,0.05,0.16,0.76,0.63,-1.9400065441509853e-13,2.2651890366181013e-14,-2.8361367151204834e-14
5.088305234909058,-1.19,2.87,8.96,0.01,-0.02,0.0,0.05,0.16,0.76,0.63,-1.9400065441509853e-13,2.2651890366181013e-14,-2.8361367151204834e-14
5.088825941085815,-1.15,2.87,9.2,0.01,-0.02,0.0,0.05,0.16,0.76,0.63,-1.9400065441509853e-13,2.2651890366181013e-14,-2.8361367151204834e-14
5.141766309738159,-1.15,2.87,9.2,0.01,-0.02,0.0,0.05,0.16,0.76,0.63,-1.9400065441509853e-13,2.2651890366181013e-14,-2.8361367151204834e-14
5.142415761947632,-1.15,2.87,9.2,0.01,-0.01,0.0,0.05,0.16,0.76,0.63,-1.9400065441509853e-13,2.2651890366181013e-14,-2.8361367151204834e-14
5.142943382263184,-1.15,2.87,9.2,0.01,-0.01,0.0,0.05,0.16,0.76,0.63,-1.9400065441509853e-13,2.2651890366181013e-14,-2.8361367151204834e-14
5.143419504165649,-1.15,2.87,9.2,-0.0,0.0,0.0,0.05,0.16,0.76,0.63,-1.9400065441509853e-13,2.2651890366181013e-14,-2.8361367151204834e-14
5.143886566162109,-1.15,2.87,9.2,-0.0,0.0,0.0,0.05,0.16,0.76,0.63,-1.9400065441509853e-13,2.2651890366181013e-14,-2.8361367151204834e-14
5.144366025924683,-1.19,2.91,9.08,-0.0,0.0,0.0,0.05,0.16,0.76,0.63,-1.9400065441509853e-13,2.2651890366181013e-14,-2.8361367151204834e-14
5.144822359085083,-1.19,2.91,9.08,-0.0,0.01,0.0,0.05,0.16,0.76,0.63,-1.9400065441509853e-13,2.2651890366181013e-14,-2.8361367151204834e-14
5.145288705825806,-1.19,2.91,9.08,-0.0,0.01,0.0,0.05,0.16,0.76,0.63,-1.9400065441509853e-13,2.2651890366181013e-14,-2.8361367151204834e-14
5.14573335647583,-1.19,2.91,9.08,-0.0,0.01,0.0,0.05,0.16,0.76,0.63,-1.9400065441509853e-13,2.2651890366181013e-14,-2.8361367151204834e-14
5.146176815032959,-1.19,2.91,9.08,0.0,-0.01,0.0,0.05,0.16,0.76,0.63,-1.9400065441509853e-13,2.2651890366181013e-14,-2.8361367151204834e-14
5.146699666976929,-1.19,2.91,9.08,0.0,-0.01,0.0,0.05,0.16,0.76,0.63,-1.9400065441509853e-13,2.2651890366181013e-14,-2.8361367151204834e-14
5.147191286087036,-1.19,2.91,9.08,-0.01,0.0,0.0,0.05,0.16,0.76,0.63,-1.9400065441509853e-13,2.2651890366181013e-14,-2.8361367151204834e-14
5.147680282592773,-1.19,2.91,9.08,-0.01,0.0,0.0,0.05,0.16,0.76,0.63,-1.9400065441509853e-13,2.2651890366181013e-14,-2.8361367151204834e-14
5.1481475830078125,-1.19,2.91,9.08,-0.0,0.0,0.0,0.05,0.16,0.76,0.63,-1.9400065441509853e-13,2.2651890366181013e-14,-2.8361367151204834e-14
5.148601055145264,-1.19,2.91,9.08,-0.0,0.0,0.0,0.05,0.16,0.76,0.63,-1.9400065441509853e-13,2.2651890366181013e-14,-2.8361367151204834e-14
5.20125412940979,-1.19,2.91,9.12,-0.0,0.0,0.0,0.05,0.16,0.76,0.63,-1.9400065441509853e-13,2.2651890366181013e-14,-2.8361367151204834e-14
5.201972961425781,-1.19,2.91,9.12,-0.0,0.0,0.0,0.05,0.16,0.76,0.63,-1.9400065441509853e-13,2.2651890366181013e-14,-2.8361367151204834e-14
5.202740669250488,-1.19,2.91,9.12,0.0,-0.01,0.0,0.05,0.16,0.76,0.63,-1.9400065441509853e-13,2.2651890366181013e-14,-2.8361367151204834e-14
5.203326940536499,-1.19,2.91,9.12,0.0,-0.01,0.0,0.05,0.16,0.76,0.63,-1.9400065441509853e-13,2.2651890366181013e-14,-2.8361367151204834e-14
5.20375919342041,-1.19,2.91,9.12,-0.01,0.01,-0.0,0.05,0.16,0.76,0.63,-1.9400065441509853e-13,2.2651890366181013e-14,-2.8361367151204834e-14
5.204144716262817,-1.19,2.91,9.12,-0.01,0.01,-0.0,0.05,0.16,0.76,0.63,-1.9400065441509853e-13,2.2651890366181013e-14,-2.8361367151204834e-14
5.204591512680054,-1.19,2.91,9.12,-0.01,0.01,-0.0,0.05,0.16,0.76,0.63,-1.9400065441509853e-13,2.2651890366181013e-14,-2.8361367151204834e-14
5.205009460449219,-1.19,2.91,9.12,-0.01,0.01,-0.0,0.05,0.16,0.76,0.63,-1.9400065441509853e-13,2.2651890366181013e-14,-2.8361367151204834e-14
5.205505132675171,-1.19,2.91,9.16,-0.01,0.01,-0.0,0.05,0.16,0.76,0.63,-1.9400065441509853e-13,2.2651890366181013e-14,-2.8361367151204834e-14
5.206057786941528,-1.19,2.91,9.16,-0.01,0.01,-0.0,0.05,0.16,0.76,0.63,-1.9400065441509853e-13,2.2651890366181013e-14,-2.8361367151204834e-14
5.206494569778442,-1.19,2.91,9.16,-0.01,0.0,0.0,0.05,0.16,0.76,0.63,-1.9400065441509853e-13,2.2651890366181013e-14,-2.8361367151204834e-14
5.206930160522461,-1.19,2.91,9.16,-0.01,0.0,0.0,0.05,0.16,0.76,0.63,-1.9400065441509853e-13,2.2651890366181013e-14,-2.8361367151204834e-14
5.20736289024353,-1.19,2.91,9.16,0.0,0.0,-0.0,0.05,0.16,0.76,0.63,-1.9400065441509853e-13,2.2651890366181013e-14,-2.8361367151204834e-14
5.260141611099243,-1.19,2.91,9.16,0.0,0.0,-0.0,0.05,0.16,0.76,0.63,-1.9400065441509853e-13,2.2651890366181013e-14,-2.8361367151204834e-14
5.260862588882446,-1.19,2.91,9.16,0.0,0.0,-0.01,0.05,0.16,0.76,0.63,-1.9400065441509853e-13,2.2651890366181013e-14,-2.8361367151204834e-14
5.26145601272583,-1.19,2.91,9.16,0.0,0.0,-0.01,0.05,0.16,0.76,0.63,-1.9400065441509853e-13,2.2651890366181013e-14,-2.8361367151204834e-14
5.261915683746338,-1.19,2.91,9.16,0.0,0.0,-0.01,0.05,0.16,0.76,0.63,-1.9400065441509853e-13,2.2651890366181013e-14,-2.8361367151204834e-14
5.262392520904541,-1.19,2.91,9.16,0.0,0.0,-0.01,0.05,0.16,0.76,0.63,-1.9400065441509853e-13,2.2651890366181013e-14,-2.8361367151204834e-14
5.2628490924835205,-1.19,2.91,9.16,0.0,0.0,0.0,0.05,0.16,0.76,0.63,-1.9400065441509853e-13,2.2651890366181013e-14,-2.8361367151204834e-14
5.263355731964111,-1.19,2.91,9.16,0.0,0.0,0.0,0.05,0.16,0.76,0.63,-1.9400065441509853e-13,2.2651890366181013e-14,-2.8361367151204834e-14
5.263810873031616,-1.15,2.87,9.04,0.0,0.0,0.0,0.05,0.16,0.76,0.63,-1.9400065441509853e-13,2.2651890366181013e-14,-2.8361367151204834e-14
5.264236927032471,-1.15,2.87,9.04,0.0,0.0,0.0,0.05,0.16,0.76,0.63,-1.9400065441509853e-13,2.2651890366181013e-14,-2.8361367151204834e-14
5.264835596084595,-1.15,2.87,9.04,0.0,0.0,0.01,0.05,0.16,0.76,0.63,-1.9400065441509853e-13,2.2651890366181013e-14,-2.8361367151204834e-14
5.265404224395752,-1.15,2.87,9.04,0.0,0.0,0.01,0.05,0.16,0.76,0.63,-1.9400065441509853e-13,2.2651890366181013e-14,-2.8361367151204834e-14
5.265859127044678,-1.15,2.87,9.04,-0.01,-0.01,0.0,0.05,0.16,0.76,0.63,-1.9400065441509853e-13,2.2651890366181013e-14,-2.8361367151204834e-14
5.266273498535156,-1.15,2.87,9.04,-0.01,-0.01,0.0,0.05,0.16,0.76,0.63,-1.9400065441509853e-13,2.2651890366181013e-14,-2.8361367151204834e-14
5.319571495056152,-1.15,2.91,9.2,-0.01,-0.01,0.0,0.05,0.16,0.76,0.63,-1.9400065441509853e-13,2.2651890366181013e-14,-2.8361367151204834e-14
5.320290565490723,-1.15,2.91,9.2,-0.01,-0.01,0.0,0.05,0.16,0.76,0.63,-1.9400065441509853e-13,2.2651890366181013e-14,-2.8361367151204834e-14
5.320888996124268,-1.15,2.91,9.2,-0.01,-0.0,-0.0,0.05,0.16,0.76,0.63,-1.9400065441509853e-13,2.2651890366181013e-14,-2.8361367151204834e-14
5.321340322494507,-1.15,2.91,9.2,-0.01,-0.0,-0.0,0.05,0.16,0.76,0.63,-1.9400065441509853e-13,2.2651890366181013e-14,-2.8361367151204834e-14
5.3218207359313965,-1.15,2.91,9.2,-0.0,-0.0,0.0,0.05,0.16,0.76,0.63,-1.9400065441509853e-13,2.2651890366181013e-14,-2.8361367151204834e-14
5.322342872619629,-1.15,2.91,9.2,-0.0,-0.0,0.0,0.05,0.16,0.76,0.63,-1.9400065441509853e-13,2.2651890366181013e-14,-2.8361367151204834e-14
5.32283616065979,-1.15,2.91,9.2,0.0,0.0,0.0,0.05,0.16,0.76,0.63,-1.9400065441509853e-13,2.2651890366181013e-14,-2.8361367151204834e-14
5.323275089263916,-1.15,2.91,9.2,0.0,0.0,0.0,0.05,0.16,0.76,0.63,-1.9400065441509853e-13,2.2651890366181013e-14,-2.8361367151204834e-14
5.3237082958221436,-1.15,2.91,9.2,0.0,-0.01,0.01,0.05,0.16,0.76,0.63,-1.9400065441509853e-13,2.2651890366181013e-14,-2.8361367151204834e-14
5.3241753578186035,-1.15,2.91,9.2,0.0,-0.01,0.01,0.05,0.16,0.76,0.63,-1.9400065441509853e-13,2.2651890366181013e-14,-2.8361367151204834e-14
5.324630260467529,-1.19,2.91,9.12,0.0,-0.01,0.01,0.05,0.16,0.76,0.63,-1.9400065441509853e-13,2.2651890366181013e-14,-2.8361367151204834e-14
5.325097322463989,-1.19,2.91,9.12,0.0,-0.01,0.01,0.05,0.16,0.76,0.63,-1.9400065441509853e-13,2.2651890366181013e-14,-2.8361367151204834e-14
5.377998113632202,-1.19,2.91,9.12,0.0,0.0,0.01,0.05,0.16,0.76,0.63,-1.9400065441509853e-13,2.2651890366181013e-14,-2.8361367151204834e-14
5.378736972808838,-1.19,2.91,9.12,0.0,0.0,0.01,0.05,0.16,0.76,0.63,-1.9400065441509853e-13,2.2651890366181013e-14,-2.8361367151204834e-14
5.379297256469727,-1.19,2.91,9.12,0.0,-0.0,0.0,0.05,0.16,0.76,0.63,-1.9400065441509853e-13,2.2651890366181013e-14,-2.8361367151204834e-14
5.379732131958008,-1.19,2.91,9.12,0.0,-0.0,0.0,0.05,0.16,0.76,0.63,-1.9400065441509853e-13,2.2651890366181013e-14,-2.8361367151204834e-14
5.38045597076416,-1.19,2.91,9.12,-0.01,0.0,0.0,0.05,0.16,0.76,0.63,-1.9400065441509853e-13,2.2651890366181013e-14,-2.8361367151204834e-14
5.3810484409332275,-1.19,2.91,9.12,-0.01,0.0,0.0,0.05,0.16,0.76,0.63,-1.9400065441509853e-13,2.2651890366181013e-14,-2.8361367151204834e-14
5.381492376327515,-1.15,2.91,9.16,-0.01,0.0,0.0,0.05,0.16,0.76,0.63,-1.9400065441509853e-13,2.2651890366181013e-14,-2.8361367151204834e-14
5.381927967071533,-1.15,2.91,9.16,-0.01,0.0,0.0,0.05,0.16,0.76,0.63,-1.9400065441509853e-13,2.2651890366181013e-14,-2.8361367151204834e-14
5.382359743118286,-1.15,2.91,9.16,0.01,-0.0,0.0,0.05,0.16,0.76,0.63,-1.9400065441509853e-13,2.2651890366181013e-14,-2.8361367151204834e-14
5.382798194885254,-1.15,2.91,9.16,0.01,-0.0,0.0,0.05,0.16,0.76,0.63,-1.9400065441509853e-13,2.2651890366181013e-14,-2.8361367151204834e-14
5.383261680603027,-1.15,2.91,9.16,0.01,-0.0,0.0,0.05,0.16,0.76,0.63,-1.9400065441509853e-13,2.2651890366181013e-14,-2.8361367151204834e-14
5.383670806884766,-1.15,2.91,9.16,0.01,-0.0,0.0,0.05,0.16,0.76,0.63,-1.9400065441509853e-13,2.2651890366181013e-14,-2.8361367151204834e-14
5.384117841720581,-1.15,2.91,9.12,0.01,-0.0,0.0,0.05,0.16,0.76,0.63,-1.9400065441509853e-13,2.2651890366181013e-14,-2.8361367151204834e-14
5.43619179725647,-1.15,2.91,9.12,0.01,-0.0,0.0,0.05,0.16,0.76,0.63,-1.9400065441509853e-13,2.2651890366181013e-14,-2.8361367151204834e-14
5.436858892440796,-1.15,2.91,9.12,-0.0,0.0,0.0,0.05,0.16,0.76,0.63,-1.9400065441509853e-13,2.2651890366181013e-14,-2.8361367151204834e-14
5.437393665313721,-1.15,2.91,9.12,-0.0,0.0,0.0,0.05,0.16,0.76,0.63,-1.9400065441509853e-13,2.2651890366181013e-14,-2.8361367151204834e-14
5.437859058380127,-1.19,2.95,9.12,-0.0,0.0,0.0,0.05,0.16,0.76,0.63,-1.9400065441509853e-13,2.2651890366181013e-14,-2.8361367151204834e-14
5.438326358795166,-1.19,2.95,9.12,-0.0,0.0,0.0,0.05,0.16,0.76,0.63,-1.9400065441509853e-13,2.2651890366181013e-14,-2.8361367151204834e-14
5.438737392425537,-1.19,2.95,9.12,0.0,0.0,0.0,0.05,0.16,0.76,0.63,-1.9400065441509853e-13,2.2651890366181013e-14,-2.8361367151204834e-14
5.439187049865723,-1.19,2.95,9.12,0.0,0.0,0.0,0.05,0.16,0.76,0.63,-1.9400065441509853e-13,2.2651890366181013e-14,-2.8361367151204834e-14
5.43962550163269,-1.19,2.95,9.12,0.0,0.0,0.0,0.05,0.16,0.76,0.63,-1.9400065441509853e-13,2.2651890366181013e-14,-2.8361367151204834e-14
5.440066337585449,-1.19,2.95,9.12,0.0,0.0,0.0,0.05,0.16,0.76,0.63,-1.9400065441509853e-13,2.2651890366181013e-14,-2.8361367151204834e-14
5.440485000610352,-1.19,2.95,9.16,0.0,0.0,0.0,0.05,0.16,0.76,0.63,-1.9400065441509853e-13,2.2651890366181013e-14,-2.8361367151204834e-14
5.440886735916138,-1.19,2.95,9.16,-0.0,0.0,0.0,0.05,0.16,0.76,0.63,-1.9400065441509853e-13,2.2651890366181013e-14,-2.8361367151204834e-14
5.441401958465576,-1.19,2.95,9.16,-0.0,0.0,0.0,0.05,0.16,0.76,0.63,-1.9400065441509853e-13,2.2651890366181013e-14,-2.8361367151204834e-14
5.4931960105896,-1.19,2.95,9.16,-0.0,0.0,0.0,0.05,0.16,0.76,0.63,-1.9400065441509853e-13,2.2651890366181013e-14,-2.8361367151204834e-14
5.493851900100708,-1.19,2.95,9.16,0.0,-0.01,0.0,0.05,0.16,0.76,0.63,-1.9400065441509853e-13,2.2651890366181013e-14,-2.8361367151204834e-14
5.49439001083374,-1.19,2.95,9.16,0.0,-0.01,0.0,0.05,0.16,0.76,0.63,-1.9400065441509853e-13,2.2651890366181013e-14,-2.8361367151204834e-14
5.4948694705963135,-1.15,2.87,9.0,0.0,-0.01,0.0,0.05,0.16,0.76,0.63,-1.9400065441509853e-13,2.2651890366181013e-14,-2.8361367151204834e-14
5.495323419570923,-1.15,2.87,9.0,0.0,-0.01,0.0,0.05,0.16,0.76,0.63,-1.9400065441509853e-13,2.2651890366181013e-14,-2.8361367151204834e-14
5.495933532714844,-1.15,2.87,9.0,0.02,0.03,-0.0,0.05,0.16,0.76,0.63,-1.9400065441509853e-13,2.2651890366181013e-14,-2.8361367151204834e-14
5.496372938156128,-1.15,2.87,9.0,0.02,0.03,-0.0,0.05,0.16,0.76,0.63,-1.9400065441509853e-13,2.2651890366181013e-14,-2.8361367151204834e-14
5.4967615604400635,-1.15,2.87,9.0,-0.0,-0.01,-0.01,0.05,0.16,0.76,0.63,-1.9400065441509853e-13,2.2651890366181013e-14,-2.8361367151204834e-14
5.49718165397644,-1.15,2.87,9.0,-0.0,-0.01,-0.01,0.05,0.16,0.76,0.63,-1.9400065441509853e-13,2.2651890366181013e-14,-2.8361367151204834e-14
5.497608184814453,-1.15,2.87,9.04,-0.0,-0.01,-0.01,0.05,0.16,0.76,0.63,-1.9400065441509853e-13,2.2651890366181013e-14,-2.8361367151204834e-14
5.498007774353027,-1.15,2.87,9.04,-0.0,-0.01,-0.01,0.05,0.16,0.76,0.63,-1.9400065441509853e-13,2.2651890366181013e-14,-2.8361367151204834e-14
5.498419761657715,-1.15,2.87,9.04,0.0,0.0,0.0,0.05,0.16,0.76,0.63,-1.9400065441509853e-13,2.2651890366181013e-14,-2.8361367151204834e-14
5.549702405929565,-1.15,2.87,9.04,0.0,0.0,0.0,0.05,0.16,0.76,0.63,-1.9400065441509853e-13,2.2651890366181013e-14,-2.8361367151204834e-14
5.550368070602417,-1.15,2.87,9.04,0.01,-0.01,-0.0,0.05,0.16,0.76,0.63,-1.9400065441509853e-13,2.2651890366181013e-14,-2.8361367151204834e-14
5.550927639007568,-1.15,2.87,9.04,0.01,-0.01,-0.0,0.05,0.16,0.76,0.63,-1.9400065441509853e-13,2.2651890366181013e-14,-2.8361367151204834e-14
5.5514609813690186,-1.15,2.87,9.04,-0.0,0.02,0.0,0.05,0.16,0.76,0.63,-1.9400065441509853e-13,2.2651890366181013e-14,-2.8361367151204834e-14
5.552063465118408,-1.15,2.87,9.04,-0.0,0.02,0.0,0.05,0.16,0.76,0.63,-1.9400065441509853e-13,2.2651890366181013e-14,-2.8361367151204834e-14
5.55252480506897,-1.15,2.84,9.08,-0.0,0.02,0.0,0.05,0.16,0.76,0.63,-1.9400065441509853e-13,2.2651890366181013e-14,-2.8361367151204834e-14
5.552990913391113,-1.15,2.84,9.08,-0.0,0.02,0.0,0.05,0.16,0.76,0.63,-1.9400065441509853e-13,2.2651890366181013e-14,-2.8361367151204834e-14
5.553522109985352,-1.15,2.84,9.08,-0.01,0.01,0.0,0.05,0.16,0.76,0.63,-1.9400065441509853e-13,2.2651890366181013e-14,-2.8361367151204834e-14
5.55411171913147,-1.15,2.84,9.08,-0.01,0.01,0.0,0.05,0.16,0.76,0.63,-1.9400065441509853e-13,2.2651890366181013e-14,-2.8361367151204834e-14
5.554584264755249,-1.15,2.91,9.12,-0.01,0.01,0.0,0.05,0.16,0.76,0.63,-1.9400065441509853e-13,2.2651890366181013e-14,-2.8361367151204834e-14
5.555046081542969,-1.15,2.91,9.12,-0.01,0.01,0.0,0.05,0.16,0.76,0.63,-1.9400065441509853e-13,2.2651890366181013e-14,-2.8361367151204834e-14
5.555468320846558,-1.15,2.91,9.12,0.0,-0.0,-0.0,0.05,0.16,0.76,0.63,-1.9400065441509853e-13,2.2651890366181013e-14,-2.8361367151204834e-14
5.555920362472534,-1.15,2.91,9.12,0.0,-0.0,-0.0,0.05,0.16,0.76,0.63,-1.9400065441509853e-13,2.2651890366181013e-14,-2.8361367151204834e-14
5.610024929046631,-1.15,2.91,9.12,0.0,-0.01,0.0,0.05,0.16,0.76,0.63,-1.9400065441509853e-13,2.2651890366181013e-14,-2.8361367151204834e-14
5.610687255859375,-1.15,2.91,9.12,0.0,-0.01,0.0,0.05,0.16,0.76,0.63,-1.9400065441509853e-13,2.2651890366181013e-14,-2.8361367151204834e-14
5.611194372177124,-1.15,2.91,9.12,-0.0,0.0,-0.01,0.05,0.16,0.76,0.63,-1.9400065441509853e-13,2.2651890366181013e-14,-2.8361367151204834e-14
5.611725091934204,-1.15,2.91,9.12,-0.0,0.0,-0.01,0.05,0.16,0.76,0.63,-1.9400065441509853e-13,2.2651890366181013e-14,-2.8361367151204834e-14
5.6122026443481445,-1.19,2.91,9.08,-0.0,0.0,-0.01,0.05,0.16,0.76,0.63,-1.9400065441509853e-13,2.2651890366181013e-14,-2.8361367151204834e-14
5.612697124481201,-1.19,2.91,9.08,-0.0,0.0,-0.01,0.05,0.16,0.76,0.63,-1.9400065441509853e-13,2.2651890366181013e-14,-2.8361367151204834e-14
5.613156318664551,-1.19,2.91,9.08,-0.01,0.0,0.01,0.05,0.16,0.76,0.63,-1.9400065441509853e-13,2.2651890366181013e-14,-2.8361367151204834e-14
5.61358904838562,-1.19,2.91,9.08,-0.01,0.0,0.01,0.05,0.16,0.76,0.63,-1.9400065441509853e-13,2.2651890366181013e-14,-2.8361367151204834e-14
5.614052772521973,-1.19,2.91,9.08,0.0,-0.0,0.0,0.05,0.16,0.76,0.63,-1.9400065441509853e-13,2.2651890366181013e-14,-2.8361367151204834e-14
5.614485263824463,-1.19,2.91,9.08,0.0,-0.0,0.0,0.05,0.16,0.76,0.63,-1.9400065441509853e-13,2.2651890366181013e-14,-2.8361367151204834e-14
5.614956378936768,-1.19,2.91,9.08,0.0,0.0,0.01,0.05,0.16,0.76,0.63,-1.9400065441509853e-13,2.2651890366181013e-14,-2.8361367151204834e-14
5.615416526794434,-1.19,2.91,9.08,0.0,0.0,0.01,0.05,0.16,0.76,0.63,-1.9400065441509853e-13,2.2651890366181013e-14,-2.8361367151204834e-14
5.666901350021362,-1.11,2.84,9.08,0.0,0.0,0.01,0.05,0.16,0.76,0.63,-1.9400065441509853e-13,2.2651890366181013e-14,-2.8361367151204834e-14
5.667614936828613,-1.11,2.84,9.08,0.0,0.0,0.01,0.05,0.16,0.76,0.63,-1.9400065441509853e-13,2.2651890366181013e-14,-2.8361367151204834e-14
5.668271780014038,-1.11,2.84,9.08,0.0,0.0,0.0,0.05,0.16,0.76,0.63,-1.9400065441509853e-13,2.2651890366181013e-14,-2.8361367151204834e-14
5.669007301330566,-1.11,2.84,9.08,0.0,0.0,0.0,0.05,0.16,0.76,0.63,-1.9400065441509853e-13,2.2651890366181013e-14,-2.8361367151204834e-14
5.669495105743408,-1.11,2.84,9.08,-0.01,0.01,0.0,0.05,0.16,0.76,0.63,-1.9400065441509853e-13,2.2651890366181013e-14,-2.8361367151204834e-14
5.6699604988098145,-1.11,2.84,9.08,-0.01,0.01,0.0,0.05,0.16,0.76,0.63,-1.9400065441509853e-13,2.2651890366181013e-14,-2.8361367151204834e-14
5.670424461364746,-1.11,2.84,9.08,0.02,-0.02,0.0,0.05,0.16,0.76,0.63,-1.9400065441509853e-13,2.2651890366181013e-14,-2.8361367151204834e-14
5.670872926712036,-1.11,2.84,9.08,0.02,-0.02,0.0,0.05,0.16,0.76,0.63,-1.9400065441509853e-13,2.2651890366181013e-14,-2.8361367151204834e-14
5.671348810195923,-1.11,2.84,9.08,-0.02,0.01,-0.0,0.05,0.16,0.76,0.63,-1.9400065441509853e-13,2.2651890366181013e-14,-2.8361367151204834e-14
5.725733518600464,-1.11,2.84,9.08,-0.02,0.01,-0.0,0.05,0.16,0.76,0.63,-1.9400065441509853e-13,2.2651890366181013e-14,-2.8361367151204834e-14
5.726435422897339,-1.23,2.84,8.93,-0.02,0.01,-0.0,0.05,0.16,0.76,0.63,-1.9400065441509853e-13,2.2651890366181013e-14,-2.8361367151204834e-14
5.726939916610718,-1.23,2.84,8.93,-0.02,0.01,-0.0,0.05,0.16,0.76,0.63,-1.9400065441509853e-13,2.2651890366181013e-14,-2.8361367151204834e-14
5.72739052772522,-1.23,2.84,8.93,-0.01,0.0,-0.01,0.05,0.16,0.76,0.63,-1.9400065441509853e-13,2.2651890366181013e-14,-2.8361367151204834e-14
5.727803707122803,-1.23,2.84,8.93,-0.01,0.0,-0.01,0.05,0.16,0.76,0.63,-1.9400065441509853e-13,2.2651890366181013e-14,-2.8361367151204834e-14
5.728207349777222,-1.23,2.84,8.93,-0.01,0.0,-0.0,0.05,0.16,0.76,0.63,-1.9400065441509853e-13,2.2651890366181013e-14,-2.8361367151204834e-14
5.7286083698272705,-1.23,2.84,8.93,-0.01,0.0,-0.0,0.05,0.16,0.76,0.63,-1.9400065441509853e-13,2.2651890366181013e-14,-2.8361367151204834e-14
5.729037046432495,-1.23,2.84,8.93,0.0,0.0,0.01,0.05,0.16,0.76,0.63,-1.9400065441509853e-13,2.2651890366181013e-14,-2.8361367151204834e-14
5.729422092437744,-1.23,2.84,8.93,0.0,0.0,0.01,0.05,0.16,0.76,0.63,-1.9400065441509853e-13,2.2651890366181013e-14,-2.8361367151204834e-14
5.72981333732605,-1.23,2.84,8.93,0.0,0.0,0.0,0.05,0.16,0.76,0.63,-1.9400065441509853e-13,2.2651890366181013e-14,-2.8361367151204834e-14
5.730252742767334,-1.23,2.84,8.93,0.0,0.0,0.0,0.05,0.16,0.76,0.63,-1.9400065441509853e-13,2.2651890366181013e-14,-2.8361367151204834e-14
5.730637550354004,-1.19,2.91,9.12,0.0,0.0,0.0,0.05,0.16,0.76,0.63,-1.9400065441509853e-13,2.2651890366181013e-14,-2.8361367151204834e-14
5.731029987335205,-1.19,2.91,9.12,0.0,0.0,0.0,0.05,0.16,0.76,0.63,-1.9400065441509853e-13,2.2651890366181013e-14,-2.8361367151204834e-14
5.731539964675903,-1.19,2.91,9.12,-0.0,0.0,0.0,0.05,0.16,0.76,0.63,-1.9400065441509853e-13,2.2651890366181013e-14,-2.8361367151204834e-14
5.732178211212158,-1.19,2.91,9.12,-0.0,0.0,0.0,0.05,0.16,0.76,0.63,-1.9400065441509853e-13,2.2651890366181013e-14,-2.8361367151204834e-14
5.78589391708374,-1.19,2.91,9.12,0.01,-0.0,-0.0,0.05,0.16,0.76,0.63,-1.9400065441509853e-13,2.2651890366181013e-14,-2.8361367151204834e-14
5.78655743598938,-1.19,2.91,9.12,0.01,-0.0,-0.0,0.05,0.16,0.76,0.63,-1.9400065441509853e-13,2.2651890366181013e-14,-2.8361367151204834e-14
5.7870566844940186,-1.19,2.91,9.12,-0.01,0.0,0.0,0.05,0.16,0.76,0.63,-1.9400065441509853e-13,2.2651890366181013e-14,-2.8361367151204834e-14
5.787518501281738,-1.19,2.91,9.12,-0.01,0.0,0.0,0.05,0.16,0.76,0.63,-1.9400065441509853e-13,2.2651890366181013e-14,-2.8361367151204834e-14
5.7880024909973145,-1.19,2.91,9.12,0.0,-0.0,0.0,0.05,0.16,0.76,0.63,-1.9400065441509853e-13,2.2651890366181013e-14,-2.8361367151204834e-14
5.788438320159912,-1.19,2.91,9.12,0.0,-0.0,0.0,0.05,0.16,0.76,0.63,-1.9400065441509853e-13,2.2651890366181013e-14,-2.8361367151204834e-14
5.788971424102783,-1.23,2.91,9.08,0.0,-0.0,0.0,0.05,0.16,0.76,0.63,-1.9400065441509853e-13,2.2651890366181013e-14,-2.8361367151204834e-14
5.7894134521484375,-1.23,2.91,9.08,0.0,-0.0,0.0,0.05,0.16,0.76,0.63,-1.9400065441509853e-13,2.2651890366181013e-14,-2.8361367151204834e-14
5.789920330047607,-1.23,2.91,9.08,-0.0,0.0,-0.01,0.05,0.16,0.76,0.63,-1.9400065441509853e-13,2.2651890366181013e-14,-2.8361367151204834e-14
5.790335655212402,-1.23,2.91,9.08,-0.0,0.0,-0.01,0.05,0.16,0.76,0.63,-1.9400065441509853e-13,2.2651890366181013e-14,-2.8361367151204834e-14
5.79079270362854,-1.23,2.91,9.08,0.0,-0.0,0.0,0.05,0.16,0.76,0.63,-1.9400065441509853e-13,2.2651890366181013e-14,-2.8361367151204834e-14
5.79123067855835,-1.23,2.91,9.08,0.0,-0.0,0.0,0.05,0.16,0.76,0.63,-1.9400065441509853e-13,2.2651890366181013e-14,-2.8361367151204834e-14
5.843691825866699,-1.19,2.91,9.23,0.0,-0.0,0.0,0.05,0.16,0.76,0.63,-1.9400065441509853e-13,2.2651890366181013e-14,-2.8361367151204834e-14
5.844421148300171,-1.19,2.91,9.23,0.0,-0.0,0.0,0.05,0.16,0.76,0.63,-1.9400065441509853e-13,2.2651890366181013e-14,-2.8361367151204834e-14
5.845024347305298,-1.19,2.91,9.23,-0.0,0.0,0.0,0.05,0.16,0.76,0.63,-1.9400065441509853e-13,2.2651890366181013e-14,-2.8361367151204834e-14
5.845482587814331,-1.19,2.91,9.23,-0.0,0.0,0.0,0.05,0.16,0.76,0.63,-1.9400065441509853e-13,2.2651890366181013e-14,-2.8361367151204834e-14
5.845917701721191,-1.19,2.91,9.23,0.0,0.01,0.0,0.05,0.16,0.76,0.63,-1.9400065441509853e-13,2.2651890366181013e-14,-2.8361367151204834e-14
5.846365451812744,-1.19,2.91,9.23,0.0,0.01,0.0,0.05,0.16,0.76,0.63,-1.9400065441509853e-13,2.2651890366181013e-14,-2.8361367151204834e-14
5.846905946731567,-1.19,2.91,9.23,0.0,-0.0,-0.0,0.05,0.16,0.76,0.63,-1.9400065441509853e-13,2.2651890366181013e-14,-2.8361367151204834e-14
5.847420692443848,-1.19,2.91,9.23,0.0,-0.0,-0.0,0.05,0.16,0.76,0.63,-1.9400065441509853e-13,2.2651890366181013e-14,-2.8361367151204834e-14
5.847843885421753,-1.23,2.91,8.77,0.0,-0.0,-0.0,0.05,0.16,0.76,0.63,-1.9400065441509853e-13,2.2651890366181013e-14,-2.8361367151204834e-14
5.848258018493652,-1.23,2.91,8.77,0.0,-0.0,-0.0,0.05,0.16,0.76,0.63,-1.9400065441509853e-13,2.2651890366181013e-14,-2.8361367151204834e-14
5.848721742630005,-1.23,2.91,8.77,0.02,0.01,-0.0,0.05,0.16,0.76,0.63,-1.9400065441509853e-13,2.2651890366181013e-14,-2.8361367151204834e-14
5.849177122116089,-1.23,2.91,8.77,0.02,0.01,-0.0,0.05,0.16,0.76,0.63,-1.9400065441509853e-13,2.2651890366181013e-14,-2.8361367151204834e-14
5.902647495269775,-1.23,2.91,8.77,-0.02,-0.01,0.0,0.05,0.16,0.76,0.63,-1.9400065441509853e-13,2.2651890366181013e-14,-2.8361367151204834e-14
5.903368711471558,-1.23,2.91,8.77,-0.02,-0.01,0.0,0.05,0.16,0.76,0.63,-1.9400065441509853e-13,2.2651890366181013e-14,-2.8361367151204834e-14
5.903908729553223,-1.23,2.91,8.77,0.0,0.02,-0.0,0.05,0.16,0.76,0.63,-1.9400065441509853e-13,2.2651890366181013e-14,-2.8361367151204834e-14
5.904355525970459,-1.23,2.91,8.77,0.0,0.02,-0.0,0.05,0.16,0.76,0.63,-1.9400065441509853e-13,2.2651890366181013e-14,-2.8361367151204834e-14
5.904820680618286,-1.15,2.87,9.27,0.0,0.02,-0.0,0.05,0.16,0.76,0.63,-1.9400065441509853e-13,2.2651890366181013e-14,-2.8361367151204834e-14
5.905263900756836,-1.15,2.87,9.27,0.0,0.02,-0.0,0.05,0.16,0.76,0.63,-1.9400065441509853e-13,2.2651890366181013e-14,-2.8361367151204834e-14
5.905719518661499,-1.15,2.87,9.27,-0.02,0.03,0.0,0.05,0.16,0.76,0.63,-1.9400065441509853e-13,2.2651890366181013e-14,-2.8361367151204834e-14
5.906133413314819,-1.15,2.87,9.27,-0.02,0.03,0.0,0.05,0.16,0.76,0.63,-1.9400065441509853e-13,2.2651890366181013e-14,-2.8361367151204834e-14
5.906554460525513,-1.15,2.87,9.27,0.01,-0.04,-0.0,0.05,0.16,0.76,0.63,-1.9400065441509853e-13,2.2651890366181013e-14,-2.8361367151204834e-14
5.907086372375488,-1.15,2.87,9.27,0.01,-0.04,-0.0,0.05,0.16,0.76,0.63,-1.9400065441509853e-13,2.2651890366181013e-14,-2.8361367151204834e-14
5.907517910003662,-1.19,2.84,8.96,0.01,-0.04,-0.0,0.05,0.16,0.76,0.63,-1.9400065441509853e-13,2.2651890366181013e-14,-2.8361367151204834e-14
5.907980680465698,-1.19,2.84,8.96,0.01,-0.04,-0.0,0.05,0.16,0.76,0.63,-1.9400065441509853e-13,2.2651890366181013e-14,-2.8361367151204834e-14
5.908399343490601,-1.19,2.84,8.96,-0.0,0.02,-0.01,0.05,0.16,0.76,0.63,-1.9400065441509853e-13,2.2651890366181013e-14,-2.8361367151204834e-14
5.908906698226929,-1.19,2.84,8.96,-0.0,0.02,-0.01,0.05,0.16,0.76,0.63,-1.9400065441509853e-13,2.2651890366181013e-14,-2.8361367151204834e-14
5.960881948471069,-1.19,2.84,8.96,0.02,-0.02,0.0,0.05,0.16,0.76,0.63,-1.9400065441509853e-13,2.2651890366181013e-14,-2.8361367151204834e-14
5.961608409881592,-1.19,2.84,8.96,0.02,-0.02,0.0,0.05,0.16,0.76,0.63,-1.9400065441509853e-13,2.2651890366181013e-14,-2.8361367151204834e-14
5.962132215499878,-1.19,2.84,8.96,0.0,0.0,0.0,0.05,0.16,0.76,0.63,-1.9400065441509853e-13,2.2651890366181013e-14,-2.8361367151204834e-14
5.962548494338989,-1.19,2.84,8.96,0.0,0.0,0.0,0.05,0.16,0.76,0.63,-1.9400065441509853e-13,2.2651890366181013e-14,-2.8361367151204834e-14
5.962991952896118,-1.15,2.87,9.12,0.0,0.0,0.0,0.05,0.16,0.76,0.63,-1.9400065441509853e-13,2.2651890366181013e-14,-2.8361367151204834e-14
5.963401556015015,-1.15,2.87,9.12,0.0,0.0,0.0,0.05,0.16,0.76,0.63,-1.9400065441509853e-13,2.2651890366181013e-14,-2.8361367151204834e-14
5.963790655136108,-1.15,2.87,9.12,0.0,-0.0,0.0,0.05,0.16,0.76,0.63,-1.9400065441509853e-13,2.2651890366181013e-14,-2.8361367151204834e-14
5.964201927185059,-1.15,2.87,9.12,0.0,-0.0,0.0,0.05,0.16,0.76,0.63,-1.9400065441509853e-13,2.2651890366181013e-14,-2.8361367151204834e-14
5.964624643325806,-1.15,2.87,9.12,-0.01,0.01,0.0,0.05,0.16,0.76,0.63,-1.9400065441509853e-13,2.2651890366181013e-14,-2.8361367151204834e-14
5.965055465698242,-1.15,2.87,9.12,-0.01,0.01,0.0,0.05,0.16,0.76,0.63,-1.9400065441509853e-13,2.2651890366181013e-14,-2.8361367151204834e-14
5.965433359146118,-1.19,2.84,9.16,-0.01,0.01,0.0,0.05,0.16,0.76,0.63,-1.9400065441509853e-13,2.2651890366181013e-14,-2.8361367151204834e-14
6.017979383468628,-1.19,2.84,9.16,-0.01,0.01,0.0,0.05,0.16,0.76,0.63,-1.9400065441509853e-13,2.2651890366181013e-14,-2.8361367151204834e-14
6.018685579299927,-1.19,2.84,9.16,0.0,0.0,-0.0,0.05,0.16,0.76,0.63,-1.9400065441509853e-13,2.2651890366181013e-14,-2.8361367151204834e-14
6.019195795059204,-1.19,2.84,9.16,0.0,0.0,-0.0,0.05,0.16,0.76,0.63,-1.9400065441509853e-13,2.2651890366181013e-14,-2.8361367151204834e-14
6.019654035568237,-1.19,2.84,9.16,0.01,-0.01,0.0,0.05,0.16,0.76,0.63,-1.9400065441509853e-13,2.2651890366181013e-14,-2.8361367151204834e-14
6.020143270492554,-1.19,2.84,9.16,0.01,-0.01,0.0,0.05,0.16,0.76,0.63,-1.9400065441509853e-13,2.2651890366181013e-14,-2.8361367151204834e-14
6.020587205886841,-1.11,2.84,9.16,0.01,-0.01,0.0,0.05,0.16,0.76,0.63,-1.9400065441509853e-13,2.2651890366181013e-14,-2.8361367151204834e-14
6.021040678024292,-1.11,2.84,9.16,0.01,-0.01,0.0,0.05,0.16,0.76,0.63,-1.9400065441509853e-13,2.2651890366181013e-14,-2.8361367151204834e-14
6.0214667320251465,-1.11,2.84,9.16,0.0,-0.01,0.0,0.05,0.16,0.76,0.63,-1.9400065441509853e-13,2.2651890366181013e-14,-2.8361367151204834e-14
6.021871328353882,-1.11,2.84,9.16,0.0,-0.01,0.0,0.05,0.16,0.76,0.63,-1.9400065441509853e-13,2.2651890366181013e-14,-2.8361367151204834e-14
6.022414445877075,-1.11,2.84,9.16,0.0,0.01,0.0,0.05,0.16,0.76,0.63,-1.9400065441509853e-13,2.2651890366181013e-14,-2.8361367151204834e-14
6.022883415222168,-1.11,2.84,9.16,0.0,0.01,0.0,0.05,0.16,0.76,0.63,-1.9400065441509853e-13,2.2651890366181013e-14,-2.8361367151204834e-14
6.023472785949707,-1.15,2.91,9.12,0.0,0.01,0.0,0.05,0.16,0.76,0.63,-1.9400065441509853e-13,2.2651890366181013e-14,-2.8361367151204834e-14
6.076445579528809,-1.15,2.91,9.12,0.0,0.01,0.0,0.05,0.16,0.76,0.63,-1.9400065441509853e-13,2.2651890366181013e-14,-2.8361367151204834e-14
6.077192306518555,-1.15,2.91,9.12,-0.01,0.01,-0.01,0.05,0.16,0.76,0.63,-1.9400065441509853e-13,2.2651890366181013e-14,-2.8361367151204834e-14
6.077702045440674,-1.15,2.91,9.12,-0.01,0.01,-0.01,0.05,0.16,0.76,0.63,-1.9400065441509853e-13,2.2651890366181013e-14,-2.8361367151204834e-14
6.0781569480896,-1.15,2.91,9.12,0.0,-0.01,-0.01,0.05,0.16,0.76,0.63,-1.9400065441509853e-13,2.2651890366181013e-14,-2.8361367151204834e-14
6.0787458419799805,-1.15,2.91,9.12,0.0,-0.01,-0.01,0.05,0.16,0.76,0.63,-1.9400065441509853e-13,2.2651890366181013e-14,-2.8361367151204834e-14
6.07921290397644,-1.19,2.91,9.2,0.0,-0.01,-0.01,0.05,0.16,0.76,0.63,-1.9400065441509853e-13,2.2651890366181013e-14,-2.8361367151204834e-14
6.079686880111694,-1.19,2.91,9.2,-0.01,0.01,0.0,0.05,0.16,0.76,0.63,-1.9400065441509853e-13,2.2651890366181013e-14,-2.8361367151204834e-14
6.08013391494751,-1.19,2.91,9.2,-0.01,0.01,0.0,0.05,0.16,0.76,0.63,-1.9400065441509853e-13,2.2651890366181013e-14,-2.8361367151204834e-14
6.080782413482666,-1.19,2.91,9.2,-0.01,0.01,0.0,0.05,0.16,0.76,0.63,-1.9400065441509853e-13,2.2651890366181013e-14,-2.8361367151204834e-14
6.081311941146851,-1.19,2.91,9.2,0.0,-0.0,-0.0,0.05,0.16,0.76,0.63,-1.9400065441509853e-13,2.2651890366181013e-14,-2.8361367151204834e-14
6.081780672073364,-1.19,2.91,9.2,0.0,-0.0,-0.0,0.05,0.16,0.76,0.63,-1.9400065441509853e-13,2.2651890366181013e-14,-2.8361367151204834e-14
6.082504510879517,-1.19,2.91,9.2,-0.0,0.0,0.0,0.05,0.16,0.76,0.63,-1.9400065441509853e-13,2.2651890366181013e-14,-2.8361367151204834e-14
6.08295464515686,-1.19,2.91,9.2,-0.0,0.0,0.0,0.05,0.16,0.76,0.63,-1.9400065441509853e-13,2.2651890366181013e-14,-2.8361367151204834e-14
6.135558843612671,-1.11,2.95,9.12,-0.0,0.0,0.0,0.05,0.16,0.76,0.63,-1.9400065441509853e-13,2.2651890366181013e-14,-2.8361367151204834e-14
6.136300802230835,-1.11,2.95,9.12,0.0,-0.0,0.0,0.05,0.16,0.76,0.63,-1.9400065441509853e-13,2.2651890366181013e-14,-2.8361367151204834e-14
6.136797904968262,-1.11,2.95,9.12,0.0,-0.0,0.0,0.05,0.16,0.76,0.63,-1.9400065441509853e-13,2.2651890366181013e-14,-2.8361367151204834e-14
6.13726019859314,-1.11,2.95,9.12,0.0,-0.0,0.0,0.05,0.16,0.76,0.63,-1.9400065441509853e-13,2.2651890366181013e-14,-2.8361367151204834e-14
6.137850999832153,-1.11,2.95,9.12,-0.01,0.0,0.0,0.05,0.16,0.76,0.63,-1.9400065441509853e-13,2.2651890366181013e-14,-2.8361367151204834e-14
6.1383867263793945,-1.11,2.95,9.12,-0.01,0.0,0.0,0.05,0.16,0.76,0.63,-1.9400065441509853e-13,2.2651890366181013e-14,-2.8361367151204834e-14
6.13892674446106,-1.11,2.95,9.12,0.01,0.0,0.0,0.05,0.16,0.76,0.63,-1.9400065441509853e-13,2.2651890366181013e-14,-2.8361367151204834e-14
6.139387845993042,-1.11,2.95,9.12,0.01,0.0,0.0,0.05,0.16,0.76,0.63,-1.9400065441509853e-13,2.2651890366181013e-14,-2.8361367151204834e-14
6.139833927154541,-1.15,2.91,9.2,0.01,0.0,0.0,0.05,0.16,0.76,0.63,-1.9400065441509853e-13,2.2651890366181013e-14,-2.8361367151204834e-14
6.1403374671936035,-1.15,2.91,9.2,0.01,0.0,0.0,0.05,0.16,0.76,0.63,-1.9400065441509853e-13,2.2651890366181013e-14,-2.8361367151204834e-14
6.1408467292785645,-1.15,2.91,9.2,0.0,0.0,-0.0,0.05,0.16,0.76,0.63,-1.9400065441509853e-13,2.2651890366181013e-14,-2.8361367151204834e-14
6.141453266143799,-1.15,2.91,9.2,0.0,0.0,-0.0,0.05,0.16,0.76,0.63,-1.9400065441509853e-13,2.2651890366181013e-14,-2.8361367151204834e-14
6.141941785812378,-1.15,2.91,9.2,0.0,-0.01,-0.0,0.05,0.16,0.76,0.63,-1.9400065441509853e-13,2.2651890366181013e-14,-2.8361367151204834e-14
6.193086862564087,-1.15,2.91,9.2,0.0,-0.01,-0.0,0.05,0.16,0.76,0.63,-1.9400065441509853e-13,2.2651890366181013e-14,-2.8361367151204834e-14
6.193768501281738,-1.15,2.91,9.2,0.0,0.0,-0.0,0.05,0.16,0.76,0.63,-1.9400065441509853e-13,2.2651890366181013e-14,-2.8361367151204834e-14
