Timestamp_us,AccelX,AccelY,AccelZ,GyroX,GyroY,GyroZ,MagX,MagY,MagZ,QuatW,QuatX,QuatY,QuatZ
1474503, 4.20,-0.94,-8.81,-0.00,-0.01,-0.00,14.56,10.06,55.56,0.23,-0.25,-0.94,-0.00
1480909, 4.25,-0.90,-8.89,-0.01,-0.01,0.00,14.56,10.06,55.56,0.23,-0.25,-0.94,-0.00
1488151, 4.22,-0.85,-8.87,-0.00,-0.02,0.03,14.56,10.06,55.56,0.23,-0.25,-0.94,-0.00
1492592, 4.22,-0.85,-8.87,-0.00,-0.02,0.03,14.56,10.06,55.56,0.23,-0.25,-0.94,-0.00
1499705, 4.22,-0.90,-8.85,-0.01,-0.02,0.04,14.56,10.06,55.56,0.23,-0.25,-0.94,-0.00
1515499, 4.21,-0.85,-8.87,-0.01,-0.02,0.04,14.56,10.06,57.88,0.23,-0.25,-0.94,-0.00
1520174, 4.18,-0.90,-8.92,-0.01,-0.03,0.06,14.56,10.06,57.88,0.23,-0.25,-0.94,-0.00
1524615, 4.18,-0.90,-8.92,-0.01,-0.03,0.06,14.56,10.06,57.88,0.23,-0.25,-0.94,-0.00
1539501, 4.21,-1.09,-8.97,-0.01,-0.04,0.08,14.56,10.06,57.88,0.23,-0.26,-0.94,-0.00
1544940, 4.21,-1.09,-8.97,-0.01,-0.04,0.08,14.56,10.06,57.88,0.23,-0.26,-0.94,-0.00
1551091, 4.27,-1.18,-8.89,-0.01,-0.03,0.08,14.56,10.06,57.88,0.23,-0.26,-0.94,-0.00
1558200, 4.23,-1.17,-8.89,-0.00,-0.02,0.06,14.56,10.06,57.88,0.23,-0.26,-0.94,-0.00
1572859, 4.24,-1.13,-8.87,-0.00,-0.00,-0.01,7.69,6.50,34.88,0.23,-0.26,-0.94,-0.00
1580062, 4.30,-1.10,-8.86,-0.00,-0.00,-0.01,7.69,6.50,34.88,0.23,-0.26,-0.94,-0.00
1585875, 4.30,-1.10,-8.86,-0.00,0.00,-0.03,7.69,6.50,34.88,0.23,-0.26,-0.94,-0.00
1591445, 4.21,-0.91,-8.94,-0.00,0.00,-0.03,7.69,6.50,34.88,0.23,-0.26,-0.94,-0.00
1598845, 4.22,-0.94,-8.96,-0.00,0.00,-0.05,7.69,6.50,34.88,0.23,-0.26,-0.94,-0.00
1613538, 4.16,-0.91,-8.93,-0.00,0.00,-0.05,7.69,6.50,34.88,0.23,-0.26,-0.94,-0.00
1619005, 4.20,-0.99,-8.93,0.00,0.01,-0.02,8.06,6.19,34.88,0.23,-0.26,-0.94,-0.00
1623440, 4.20,-0.99,-8.93,0.00,0.01,-0.02,8.06,6.19,34.88,0.23,-0.25,-0.94,-0.00
1630341, 4.21,-1.00,-8.91,0.00,0.01,-0.02,8.06,6.19,34.88,0.23,-0.25,-0.94,-0.00
1636738, 4.21,-1.00,-8.91,0.00,0.01,-0.02,8.06,6.19,34.88,0.23,-0.25,-0.94,-0.00
1652047, 4.25,-0.94,-8.93,0.00,0.01,-0.03,8.06,6.19,34.88,0.23,-0.25,-0.94,-0.00
1659722, 4.20,-0.96,-8.89,0.00,0.01,-0.03,8.06,6.19,34.88,0.23,-0.25,-0.94,-0.00
1664170, 4.20,-0.96,-8.89,0.00,0.01,-0.03,8.06,6.19,34.88,0.23,-0.25,-0.94,-0.00
1679986, 4.21,-0.93,-8.89,0.00,0.00,-0.02,7.00,6.50,35.69,0.23,-0.25,-0.94,-0.00
1686072, 4.21,-0.93,-8.89,0.00,0.00,-0.03,7.00,6.50,35.69,0.23,-0.25,-0.94,-0.00
1691646, 4.16,-0.85,-8.94,0.00,0.00,-0.03,7.00,6.50,35.69,0.23,-0.25,-0.94,-0.00
1699069, 4.20,-1.08,-8.91,0.00,0.00,-0.02,7.00,6.50,35.69,0.23,-0.25,-0.94,-0.00
1703808, 4.20,-1.08,-8.91,0.00,0.00,-0.02,7.00,6.50,35.69,0.23,-0.25,-0.94,-0.00
1710701, 4.23,-1.04,-8.88,-0.00,-0.01,0.02,7.00,6.50,35.69,0.23,-0.25,-0.94,-0.00
1725365, 4.15,-0.81,-8.89,-0.01,-0.01,0.08,8.06,6.50,34.06,0.23,-0.25,-0.94,-0.00
1730048, 4.16,-0.79,-8.89,-0.01,-0.02,0.07,8.06,6.50,34.06,0.23,-0.25,-0.94,-0.00
1734484, 4.16,-0.79,-8.89,-0.01,-0.02,0.07,8.06,6.50,34.06,0.23,-0.25,-0.94,-0.00
1740749, 4.16,-0.96,-8.91,-0.00,-0.03,0.01,8.06,6.50,34.06,0.23,-0.25,-0.94,-0.00
1757623, 4.21,-0.99,-8.92,-0.00,-0.03,0.03,8.06,6.50,34.06,0.22,-0.26,-0.94,-0.00
1762538, 4.21,-0.99,-8.92,-0.00,-0.03,0.03,8.06,6.50,34.06,0.22,-0.26,-0.94,-0.00
1766983, 4.21,-0.99,-8.92,-0.00,-0.03,0.03,8.19,6.00,35.69,0.22,-0.26,-0.94,-0.00
1781864, 4.25,-1.03,-8.92,-0.00,-0.02,0.03,8.19,6.00,35.69,0.22,-0.26,-0.94,-0.00
1788030, 4.21,-1.11,-8.94,-0.00,-0.02,0.04,8.19,6.00,35.69,0.22,-0.26,-0.94,-0.00
1792559, 4.21,-1.11,-8.94,-0.00,-0.02,0.04,8.19,6.00,35.69,0.22,-0.26,-0.94,-0.00
1799792, 4.20,-1.10,-8.90,-0.00,-0.01,0.02,8.19,6.00,35.69,0.22,-0.26,-0.94,-0.00
1815763, 4.20,-1.05,-8.90,-0.00,-0.00,-0.00,8.56,6.37,34.75,0.22,-0.26,-0.94,-0.00
1821464, 4.22,-1.00,-8.92,-0.00,-0.01,-0.02,8.56,6.37,34.75,0.22,-0.26,-0.94,-0.00
1828871, 4.18,-0.94,-8.90,-0.00,-0.00,-0.03,8.56,6.37,34.75,0.22,-0.26,-0.94,-0.00
1833312, 4.18,-0.94,-8.90,-0.00,-0.00,-0.03,8.56,6.37,34.75,0.22,-0.26,-0.94,-0.00
1840545, 4.20,-0.91,-8.92,-0.00,-0.01,-0.03,8.56,6.37,34.75,0.22,-0.26,-0.94,-0.00
1856795, 4.19,-1.03,-8.94,-0.00,-0.01,-0.01,8.56,6.37,34.75,0.22,-0.26,-0.94,-0.00
1874733, 4.20,-0.98,-8.90,-0.01,-0.01,-0.01,8.19,6.06,34.25,0.22,-0.26,-0.94,-0.00
1881208, 4.21,-0.96,-8.89,-0.00,0.00,-0.01,8.19,6.06,34.25,0.22,-0.26,-0.94,-0.00
1887953, 4.19,-0.96,-8.93,-0.00,0.00,-0.02,8.19,6.06,34.25,0.22,-0.26,-0.94,-0.00
1892627, 4.19,-0.96,-8.93,-0.00,0.00,-0.02,8.19,6.06,34.25,0.22,-0.26,-0.94,-0.00
1899918, 4.16,-1.00,-8.93,-0.00,0.00,-0.01,8.19,6.06,34.25,0.22,-0.26,-0.94,-0.00
1915548, 4.22,-1.01,-8.91,-0.00,0.01,0.00,7.75,6.37,34.25,0.22,-0.26,-0.94,-0.00
1921282, 4.18,-0.99,-8.92,-0.00,0.01,-0.00,7.75,6.37,34.25,0.22,-0.26,-0.94,-0.00
1928309, 4.18,-0.91,-8.91,-0.00,0.01,-0.01,7.75,6.37,34.25,0.22,-0.25,-0.94,-0.00
1932771, 4.18,-0.91,-8.91,-0.00,0.01,-0.01,7.75,6.37,34.25,0.22,-0.25,-0.94,-0.00
1939977, 4.20,-0.99,-8.89,-0.00,0.01,-0.01,7.75,6.37,34.25,0.22,-0.25,-0.94,-0.00
1955452, 4.17,-1.01,-8.93,-0.00,0.01,-0.00,7.75,6.37,34.25,0.22,-0.25,-0.94,-0.00
1961808, 4.25,-1.01,-8.90,-0.00,0.00,0.00,7.75,6.37,34.25,0.22,-0.25,-0.94,-0.00
1966253, 4.25,-1.01,-8.90,-0.01,0.01,-0.01,7.75,5.69,34.25,0.22,-0.25,-0.94,-0.00
1981997, 4.21,-0.99,-8.92,0.00,0.01,-0.01,7.75,5.69,34.25,0.22,-0.25,-0.94,-0.00
1989405, 4.20,-1.00,-8.93,-0.00,0.00,-0.01,7.75,5.69,34.25,0.22,-0.25,-0.94,-0.00
1994111, 4.20,-1.00,-8.93,-0.00,0.00,-0.01,7.75,5.69,34.25,0.22,-0.25,-0.94,-0.00
2000864, 4.19,-0.97,-8.90,-0.00,0.00,-0.01,7.75,5.69,34.25,0.22,-0.25,-0.94,-0.00
2007157, 4.19,-0.97,-8.90,0.00,0.00,-0.01,7.75,5.69,34.25,0.22,-0.25,-0.94,-0.00
2022707, 4.24,-0.95,-8.85,-0.00,0.00,-0.00,8.56,5.69,34.38,0.22,-0.25,-0.94,-0.00
2030130, 4.20,-0.98,-8.93,0.00,0.00,-0.01,8.56,5.69,34.38,0.22,-0.25,-0.94,-0.00
2035653, 4.20,-0.98,-8.93,0.00,0.00,-0.01,8.56,5.69,34.38,0.22,-0.25,-0.94,-0.00
2041757, 4.22,-0.98,-8.89,-0.00,-0.01,-0.00,8.56,5.69,34.38,0.22,-0.25,-0.94,-0.00
2048770, 4.27,-0.93,-8.91,-0.00,-0.00,0.01,8.56,5.69,34.38,0.22,-0.25,-0.94,-0.00
2063433, 4.13,-0.94,-8.93,-0.00,-0.00,0.02,8.56,5.69,34.38,0.22,-0.25,-0.94,-0.00
2069319, 4.18,-1.06,-8.88,-0.00,-0.00,0.02,8.19,6.06,34.69,0.22,-0.26,-0.94,-0.00
2073757, 4.18,-1.06,-8.88,-0.00,-0.00,0.02,8.19,6.06,34.69,0.22,-0.26,-0.94,-0.00
2080770, 4.15,-1.13,-8.97,0.00,0.00,0.02,8.19,6.06,34.69,0.22,-0.26,-0.94,-0.00
2087071, 4.15,-1.13,-8.97,-0.00,0.01,0.01,8.19,6.06,34.69,0.22,-0.26,-0.94,-0.00
2102623, 4.25,-1.02,-8.93,-0.01,-0.00,-0.01,8.19,6.06,34.69,0.22,-0.25,-0.94,-0.00
2110313, 4.16,-0.96,-8.92,-0.00,0.00,-0.02,8.19,6.06,34.69,0.22,-0.25,-0.94,-0.00
2114751, 4.16,-0.96,-8.92,-0.00,0.00,-0.02,8.19,6.06,34.69,0.22,-0.25,-0.94,-0.00
2130420, 4.21,-1.03,-8.89,0.00,0.00,-0.00,9.25,6.06,34.38,0.22,-0.25,-0.94,-0.00
2136041, 4.21,-1.03,-8.89,0.00,0.00,-0.00,9.25,6.06,34.38,0.22,-0.25,-0.94,-0.00
2141957, 4.22,-1.03,-8.89,-0.00,0.01,-0.01,9.25,6.06,34.38,0.22,-0.25,-0.94,-0.00
2148934, 4.24,-0.94,-8.92,0.00,0.00,-0.02,9.25,6.06,34.38,0.22,-0.25,-0.94,-0.00
2153378, 4.24,-0.94,-8.92,0.00,0.00,-0.02,9.25,6.06,34.38,0.22,-0.25,-0.94,-0.00
2160884, 4.18,-0.94,-8.90,-0.01,0.00,-0.03,9.25,6.06,34.38,0.22,-0.25,-0.94,-0.00
2175507, 4.18,-0.93,-8.90,-0.00,0.00,-0.02,7.75,6.37,34.25,0.22,-0.25,-0.94,-0.00
2181708, 4.19,-0.99,-8.92,-0.00,-0.00,-0.01,7.75,6.37,34.25,0.22,-0.25,-0.94,-0.00
2188565, 4.19,-0.98,-8.92,-0.00,-0.00,-0.00,7.75,6.37,34.25,0.22,-0.25,-0.94,-0.00
2193104, 4.19,-0.98,-8.92,-0.00,-0.00,-0.00,7.75,6.37,34.25,0.22,-0.25,-0.94,-0.00
2200353, 4.21,-0.97,-8.92,-0.01,0.00,-0.02,7.75,6.37,34.25,0.22,-0.25,-0.94,-0.00
2215965, 4.24,-0.90,-8.87,-0.00,-0.01,-0.02,7.75,6.37,34.25,0.22,-0.25,-0.94,-0.00
2220623, 4.15,-0.88,-8.92,-0.00,-0.01,-0.01,7.50,6.37,34.00,0.22,-0.25,-0.94,-0.00
2226239, 4.15,-0.88,-8.92,-0.01,-0.01,-0.00,7.50,6.37,34.00,0.22,-0.25,-0.94,-0.00
2232046, 4.15,-0.92,-8.84,-0.01,-0.01,-0.00,7.50,6.37,34.00,0.22,-0.25,-0.94,-0.00
2239599, 4.18,-1.01,-8.83,-0.01,-0.01,0.01,7.50,6.37,34.00,0.22,-0.25,-0.94,-0.00
2254268, 4.20,-1.00,-8.84,-0.00,-0.01,0.02,7.50,6.37,34.00,0.22,-0.25,-0.94,-0.00
2261353, 4.16,-0.93,-8.82,-0.01,-0.01,0.01,7.50,6.37,34.00,0.22,-0.25,-0.94,-0.00
2265794, 4.16,-0.93,-8.82,-0.01,-0.01,0.01,7.50,6.37,34.25,0.22,-0.25,-0.94,-0.00
2291037, 4.15,-0.99,-8.87,-0.00,-0.01,0.01,7.50,6.37,34.25,0.22,-0.25,-0.94,-0.00
2297232, 4.15,-0.99,-8.87,-0.00,-0.01,0.01,7.50,6.37,34.25,0.22,-0.25,-0.94,-0.00
2312021, 4.17,-0.98,-8.87,0.00,-0.01,0.01,7.50,6.37,34.25,0.22,-0.25,-0.94,-0.00
2316512, 4.17,-0.98,-8.87,0.00,-0.01,0.01,8.56,6.37,35.06,0.22,-0.25,-0.94,-0.00
2322014, 4.15,-0.94,-8.85,-0.00,-0.01,0.00,8.56,6.37,35.06,0.22,-0.25,-0.94,-0.00
2329510, 4.18,-1.00,-8.86,0.00,-0.01,0.00,8.56,6.37,35.06,0.22,-0.25,-0.94,-0.00
2333954, 4.18,-1.00,-8.86,0.00,-0.01,0.00,8.56,6.37,35.06,0.22,-0.25,-0.94,-0.00
2341210, 4.15,-0.99,-8.84,-0.00,-0.01,0.00,8.56,6.37,35.06,0.22,-0.25,-0.94,-0.00
2357883, 4.16,-0.99,-8.84,-0.00,-0.00,-0.00,8.56,6.37,35.06,0.22,-0.25,-0.94,-0.00
2363157, 4.16,-0.96,-8.82,-0.00,-0.00,-0.00,8.56,6.37,35.06,0.22,-0.25,-0.94,-0.00
2368177, 4.16,-0.96,-8.82,-0.00,-0.00,-0.01,8.19,5.69,34.00,0.22,-0.25,-0.94,-0.00
2383262, 4.13,-0.96,-8.84,-0.00,0.00,-0.00,8.19,5.69,34.00,0.22,-0.25,-0.94,-0.00
2390841, 4.14,-0.94,-8.86,0.00,-0.00,-0.00,8.19,5.69,34.00,0.22,-0.25,-0.94,-0.00
2396623, 4.14,-0.94,-8.86,-0.00,0.00,0.00,8.19,5.69,34.00,0.22,-0.25,-0.94,-0.00
2402370, 4.15,-0.96,-8.81,-0.00,0.00,0.00,8.19,5.69,34.00,0.22,-0.25,-0.94,-0.00
2409770, 4.17,-1.00,-8.80,-0.00,0.00,-0.00,8.19,5.69,34.00,0.22,-0.25,-0.94,-0.00
2424401, 4.16,-1.02,-8.82,-0.00,0.00,-0.00,8.19,6.06,34.75,0.22,-0.25,-0.94,-0.00
2431288, 4.16,-0.94,-8.79,-0.00,0.00,-0.01,8.19,6.06,34.75,0.22,-0.25,-0.94,-0.00
2437235, 4.16,-0.94,-8.79,-0.00,-0.00,-0.02,8.19,6.06,34.75,0.22,-0.25,-0.94,-0.00
2442680, 4.16,-0.91,-8.87,-0.00,-0.00,-0.02,8.19,6.06,34.75,0.22,-0.25,-0.94,-0.00
2449856, 4.17,-0.91,-8.82,0.00,0.01,-0.01,8.19,6.06,34.75,0.22,-0.25,-0.94,-0.00
2464766, 4.16,-0.97,-8.83,0.00,0.00,0.00,8.19,6.06,34.75,0.22,-0.25,-0.94,-0.00
2470851, 4.14,-1.00,-8.82,0.00,-0.00,0.00,9.00,6.06,34.38,0.22,-0.25,-0.94,-0.00
2476663, 4.14,-1.00,-8.82,-0.00,0.00,0.00,9.00,6.06,34.38,0.22,-0.25,-0.94,-0.00
2482407, 4.15,-1.00,-8.82,-0.00,0.00,0.00,9.00,6.06,34.38,0.22,-0.25,-0.94,-0.00
2489847, 4.13,-0.94,-8.81,-0.00,-0.00,0.00,9.00,6.06,34.38,0.22,-0.25,-0.94,-0.00
2504675, 4.15,-1.01,-8.85,-0.00,0.00,0.01,9.00,6.06,34.38,0.22,-0.25,-0.94,-0.00
2511681, 4.18,-0.93,-8.81,-0.00,0.00,0.01,9.00,6.06,34.38,0.22,-0.25,-0.94,-0.00
2516137, 4.18,-0.93,-8.81,-0.00,0.00,0.01,8.19,6.75,34.00,0.22,-0.25,-0.94,-0.00
2531608, 4.18,-0.90,-8.82,-0.00,0.00,0.01,8.19,6.75,34.00,0.22,-0.25,-0.94,-0.00
2538130, 4.18,-0.90,-8.82,-0.00,0.00,0.01,8.19,6.75,34.00,0.22,-0.25,-0.94,-0.00
2543186, 4.13,-0.94,-8.86,-0.00,0.00,0.01,8.19,6.75,34.00,0.22,-0.25,-0.94,-0.00
2550510, 4.13,-0.97,-8.89,-0.01,0.00,0.02,8.19,6.75,34.00,0.22,-0.25,-0.94,-0.00
2555854, 4.13,-0.97,-8.89,-0.01,0.00,0.02,8.19,6.75,34.00,0.22,-0.25,-0.94,-0.00
2572470, 4.18,-0.94,-8.85,-0.00,0.00,0.02,7.75,6.37,34.38,0.22,-0.25,-0.94,-0.00
2580006, 4.13,-0.94,-8.82,-0.01,-0.00,0.02,7.75,6.37,34.38,0.22,-0.25,-0.94,-0.00
2584623, 4.13,-0.94,-8.82,-0.01,-0.00,0.02,7.75,6.37,34.38,0.22,-0.25,-0.94,-0.00
2591545, 4.19,-0.99,-8.88,-0.00,-0.01,0.03,7.75,6.37,34.38,0.22,-0.25,-0.94,-0.00
2597824, 4.19,-0.99,-8.88,-0.00,-0.00,0.03,7.75,6.37,34.38,0.22,-0.25,-0.94,-0.00
2613306, 4.14,-1.00,-8.86,-0.00,-0.00,0.03,7.75,6.37,34.38,0.22,-0.25,-0.94,-0.00
2617748, 4.14,-1.00,-8.86,-0.00,-0.00,0.03,9.00,6.75,34.75,0.22,-0.26,-0.94,-0.00
2622410, 4.15,-1.01,-8.86,-0.00,-0.00,0.03,9.00,6.75,34.75,0.22,-0.26,-0.94,-0.00
2637072, 4.15,-1.01,-8.85,-0.00,-0.00,0.02,9.00,6.75,34.75,0.22,-0.26,-0.94,-0.00
2642706, 4.12,-1.02,-8.84,-0.00,-0.00,0.02,9.00,6.75,34.75,0.22,-0.26,-0.94,-0.00
2650106, 4.13,-0.98,-8.86,-0.00,0.00,0.01,9.00,6.75,34.75,0.22,-0.26,-0.94,-0.00
2654805, 4.13,-0.98,-8.86,-0.00,0.00,0.01,9.00,6.75,34.75,0.22,-0.26,-0.94,-0.00
2661830, 4.17,-0.99,-8.86,-0.00,-0.00,0.01,9.00,6.75,34.75,0.22,-0.26,-0.94,-0.00
2676462, 4.16,-0.97,-8.85,0.00,-0.00,0.00,7.06,7.06,33.50,0.22,-0.26,-0.94,-0.00
2682377, 4.18,-1.03,-8.85,-0.00,0.00,0.00,7.06,7.06,33.50,0.22,-0.26,-0.94,-0.00
2689882, 4.16,-0.97,-8.81,-0.00,0.00,0.01,7.06,7.06,33.50,0.22,-0.26,-0.94,-0.00
2694328, 4.16,-0.97,-8.81,-0.00,0.00,0.01,7.06,7.06,33.50,0.22,-0.26,-0.94,-0.00
2701550, 4.17,-0.96,-8.83,0.00,0.01,-0.00,7.06,7.06,33.50,0.22,-0.26,-0.94,-0.00
2717714, 4.15,-0.97,-8.81,-0.00,0.00,-0.01,7.75,6.00,35.06,0.22,-0.26,-0.94,-0.00
2723128, 4.16,-1.02,-8.85,-0.00,0.00,-0.01,7.75,6.00,35.06,0.22,-0.26,-0.94,-0.00
2730485, 4.16,-0.99,-8.84,-0.00,0.00,-0.01,7.75,6.00,35.06,0.22,-0.26,-0.94,-0.00
2736098, 4.16,-0.99,-8.84,-0.00,0.00,-0.01,7.75,6.00,35.06,0.22,-0.26,-0.94,-0.00
2742333, 4.18,-0.97,-8.82,-0.00,0.01,-0.01,7.75,6.00,35.06,0.22,-0.26,-0.94,-0.00
2749754, 4.15,-0.96,-8.82,0.00,0.01,-0.01,7.75,6.00,35.06,0.22,-0.26,-0.94,-0.00
2764397, 4.15,-1.01,-8.82,-0.00,0.01,-0.02,7.75,6.00,35.06,0.22,-0.26,-0.94,-0.00
2770225, 4.17,-0.96,-8.80,-0.00,0.01,-0.01,8.56,6.25,33.50,0.22,-0.26,-0.94,-0.00
2774929, 4.17,-0.96,-8.80,-0.00,0.01,-0.01,8.56,6.25,33.50,0.22,-0.26,-0.94,-0.00
2781810, 4.16,-1.01,-8.82,0.00,0.01,-0.02,8.56,6.25,33.50,0.22,-0.26,-0.94,-0.00
2788401, 4.16,-1.01,-8.82,0.00,0.01,-0.02,8.56,6.25,33.50,0.22,-0.25,-0.94,-0.00
2803612, 4.15,-1.00,-8.82,-0.00,0.01,-0.04,8.56,6.25,33.50,0.22,-0.25,-0.94,-0.00
2811440, 4.19,-0.95,-8.78,-0.00,0.01,-0.03,8.56,6.25,33.50,0.22,-0.25,-0.94,-0.00
2815885, 4.19,-0.95,-8.78,-0.00,0.01,-0.03,8.56,6.25,33.50,0.22,-0.25,-0.94,-0.00
2830769, 4.15,-0.93,-8.82,0.00,-0.00,-0.02,8.56,5.56,34.25,0.22,-0.25,-0.94,-0.00
2836033, 4.15,-0.93,-8.82,0.00,-0.00,-0.02,8.56,5.56,34.25,0.22,-0.25,-0.94,-0.00
2842313, 4.16,-0.97,-8.80,-0.00,-0.01,-0.02,8.56,5.56,34.25,0.22,-0.25,-0.94,-0.00
2849423, 4.16,-0.92,-8.82,0.00,-0.01,-0.01,8.56,5.56,34.25,0.22,-0.25,-0.94,-0.00
2853875, 4.16,-0.92,-8.82,0.00,-0.01,-0.01,8.56,5.56,34.25,0.22,-0.25,-0.94,-0.00
2861558, 4.14,-0.94,-8.87,-0.00,-0.01,-0.01,8.56,5.56,34.25,0.22,-0.25,-0.94,-0.00
2876192, 4.12,-0.88,-8.86,-0.00,-0.01,0.00,8.19,5.56,33.19,0.22,-0.25,-0.94,-0.00
2882448, 4.17,-0.99,-8.84,-0.00,-0.02,0.01,8.19,5.56,33.19,0.22,-0.25,-0.94,-0.00
2890022, 4.14,-1.00,-8.88,-0.00,-0.02,0.02,8.19,5.56,33.19,0.22,-0.25,-0.94,-0.00
2894763, 4.14,-1.00,-8.88,-0.00,-0.02,0.02,8.19,5.56,33.19,0.22,-0.25,-0.94,-0.00
2901769, 4.13,-0.98,-8.83,-0.01,-0.02,0.02,8.19,5.56,33.19,0.22,-0.25,-0.94,-0.00
2908582, 4.13,-0.98,-8.83,-0.00,-0.01,0.02,8.19,5.56,33.19,0.22,-0.25,-0.94,-0.00
2924017, 4.19,-1.01,-8.83,-0.00,-0.02,0.01,7.75,5.19,34.69,0.22,-0.25,-0.94,-0.00
2931505, 4.15,-1.01,-8.86,-0.00,-0.01,0.00,7.75,5.19,34.69,0.22,-0.25,-0.94,-0.00
2937853, 4.15,-1.01,-8.86,-0.00,-0.01,-0.01,7.75,5.19,34.69,0.22,-0.25,-0.94,-0.00
2943317, 4.16,-0.96,-8.89,-0.00,-0.01,-0.01,7.75,5.19,34.69,0.22,-0.25,-0.94,-0.00
2950779, 4.16,-0.97,-8.87,-0.00,-0.01,-0.01,7.75,5.19,34.69,0.22,-0.25,-0.94,-0.00
2966279, 4.16,-0.96,-8.83,0.00,-0.01,-0.01,8.19,5.19,33.88,0.22,-0.25,-0.94,-0.00
2972504, 4.17,-0.96,-8.87,0.00,-0.00,-0.01,8.19,5.19,33.88,0.22,-0.25,-0.94,-0.00
2980198, 4.15,-0.95,-8.85,-0.00,0.00,-0.01,8.19,5.19,33.88,0.22,-0.25,-0.94,-0.00
2984891, 4.15,-0.95,-8.85,-0.00,0.00,-0.01,8.19,5.19,33.88,0.22,-0.25,-0.94,-0.00
2991886, 4.15,-1.04,-8.85,0.00,-0.00,-0.01,8.19,5.19,33.88,0.22,-0.25,-0.94,-0.00
2998495, 4.15,-1.04,-8.85,0.00,-0.00,-0.02,8.19,5.19,33.88,0.22,-0.25,-0.94,-0.00
3013764, 4.14,-0.95,-8.83,-0.00,0.01,-0.03,8.19,5.19,33.88,0.22,-0.25,-0.94,-0.00
3018210, 4.14,-0.95,-8.83,-0.00,0.01,-0.03,7.75,6.00,34.25,0.22,-0.25,-0.94,-0.00
3022880, 4.18,-0.92,-8.80,-0.00,0.00,-0.04,7.75,6.00,34.25,0.22,-0.25,-0.94,-0.00
3037534, 4.16,-1.00,-8.84,-0.00,0.00,-0.03,7.75,6.00,34.25,0.22,-0.25,-0.94,-0.00
3043156, 4.16,-0.99,-8.86,-0.00,0.00,-0.03,7.75,6.00,34.25,0.22,-0.25,-0.94,-0.00
3050664, 4.12,-1.00,-8.84,-0.01,-0.00,-0.04,7.75,6.00,34.25,0.22,-0.25,-0.94,-0.00
3055464, 4.12,-1.00,-8.84,-0.01,-0.00,-0.04,7.75,6.00,34.25,0.22,-0.25,-0.94,-0.00
3062352, 4.15,-1.09,-8.85,-0.01,0.00,-0.03,7.75,6.00,34.25,0.22,-0.25,-0.94,-0.00
3077016, 4.15,-0.73,-8.80,-0.02,0.01,0.02,8.19,6.25,34.38,0.22,-0.25,-0.94,-0.00
3082962, 4.18,-0.98,-8.84,-0.01,-0.00,0.01,8.19,6.25,34.38,0.22,-0.25,-0.94,-0.00
3090604, 4.10,-0.90,-8.86,-0.00,-0.01,-0.02,8.19,6.25,34.38,0.22,-0.25,-0.94,-0.00
3095541, 4.10,-0.90,-8.86,-0.00,-0.01,-0.02,8.19,6.25,34.38,0.22,-0.25,-0.94,-0.00
3113845, 4.16,-0.97,-8.83,-0.00,-0.01,0.00,8.19,6.25,34.38,0.22,-0.25,-0.94,-0.00
3128473, 4.13,-0.96,-8.86,-0.00,-0.01,-0.02,8.56,6.69,33.88,0.22,-0.25,-0.94,-0.00
3133725, 4.15,-0.89,-8.87,-0.00,-0.01,-0.02,8.56,6.69,33.88,0.22,-0.25,-0.94,-0.00
3141088, 4.13,-0.93,-8.87,-0.00,-0.01,-0.01,8.56,6.69,33.88,0.22,-0.25,-0.94,-0.00
3146563, 4.13,-0.93,-8.87,-0.00,-0.01,-0.01,8.56,6.69,33.88,0.22,-0.25,-0.94,-0.00
3152752, 4.16,-1.00,-8.88,-0.00,0.00,-0.00,8.56,6.69,33.88,0.22,-0.25,-0.94,-0.00
3160666, 4.15,-0.96,-8.88,-0.00,0.01,-0.02,8.56,6.69,33.88,0.22,-0.25,-0.94,-0.00
3175347, 4.13,-0.91,-8.85,-0.00,0.01,-0.03,8.19,6.25,33.56,0.22,-0.25,-0.94,-0.00
3179794, 4.19,-0.97,-8.82,-0.00,0.01,-0.02,8.19,6.25,33.56,0.22,-0.25,-0.94,-0.00
3184255, 4.19,-0.97,-8.82,-0.00,0.01,-0.02,8.19,6.25,33.56,0.22,-0.25,-0.94,-0.00
3191734, 4.14,-0.98,-8.85,-0.00,0.01,-0.01,8.19,6.25,33.56,0.22,-0.25,-0.94,-0.00
3198017, 4.14,-0.98,-8.85,-0.00,0.01,-0.02,8.19,6.25,33.56,0.22,-0.25,-0.94,-0.00
3213697, 4.16,-0.96,-8.81,0.00,0.01,-0.02,8.19,6.25,33.56,0.22,-0.25,-0.94,-0.00
3218146, 4.16,-0.96,-8.81,0.00,0.01,-0.02,8.19,5.56,34.69,0.22,-0.25,-0.94,-0.00
3223587, 4.17,-0.92,-8.80,0.00,0.01,-0.02,8.19,5.56,34.69,0.22,-0.25,-0.94,-0.00
3231021, 4.16,-0.91,-8.78,-0.00,0.01,-0.02,8.19,5.56,34.69,0.22,-0.25,-0.94,-0.00
3236248, 4.16,-0.91,-8.78,-0.00,0.01,-0.02,8.19,5.56,34.69,0.22,-0.25,-0.94,-0.00
3242717, 4.18,-0.91,-8.81,-0.00,0.01,-0.01,8.19,5.56,34.69,0.22,-0.25,-0.94,-0.00
3259935, 4.19,-0.92,-8.84,-0.00,0.00,0.01,8.19,5.56,34.69,0.22,-0.25,-0.94,-0.00
3264566, 4.19,-0.92,-8.84,-0.00,0.00,0.01,8.19,5.56,34.69,0.22,-0.25,-0.94,-0.00
3270045, 4.17,-0.92,-8.77,-0.00,0.00,0.01,8.56,6.00,34.69,0.22,-0.25,-0.94,-0.00
3284675, 4.15,-0.93,-8.85,-0.00,0.01,-0.00,8.56,6.00,34.69,0.22,-0.25,-0.94,-0.00
3292041, 4.13,-0.85,-8.86,-0.00,-0.00,-0.01,8.56,6.00,34.69,0.22,-0.25,-0.94,-0.00
3298350, 4.13,-0.85,-8.86,0.00,-0.00,0.01,8.56,6.00,34.69,0.22,-0.25,-0.94,-0.00
3303743, 4.16,-0.92,-8.81,0.00,-0.00,0.01,8.56,6.00,34.69,0.22,-0.25,-0.94,-0.00
3311342, 4.15,-0.95,-8.84,0.00,-0.01,0.02,8.56,6.00,34.69,0.22,-0.25,-0.94,-0.00
3326034, 4.18,-0.89,-8.85,0.00,-0.01,0.01,7.75,5.56,35.50,0.22,-0.25,-0.94,-0.00
3332688, 4.14,-0.89,-8.84,-0.00,-0.01,0.02,7.75,5.56,35.50,0.22,-0.25,-0.94,-0.00
3339876, 4.16,-0.94,-8.89,-0.00,-0.01,0.03,7.75,5.56,35.50,0.22,-0.25,-0.94,-0.00
3344461, 4.16,-0.94,-8.89,-0.00,-0.01,0.03,7.75,5.56,35.50,0.22,-0.25,-0.94,-0.00
3352038, 4.21,-0.94,-8.85,-0.00,-0.01,0.04,7.75,5.56,35.50,0.22,-0.25,-0.94,-0.00
3358300, 4.21,-0.94,-8.85,-0.00,-0.01,0.03,7.75,5.56,35.50,0.22,-0.25,-0.94,-0.00
3374132, 4.16,-0.94,-8.82,0.00,-0.01,0.03,8.19,5.19,33.50,0.22,-0.25,-0.94,-0.00
3378572, 4.16,-0.94,-8.82,0.00,-0.01,0.03,8.19,5.19,33.50,0.22,-0.25,-0.94,-0.00
3383248, 4.16,-0.99,-8.85,0.00,-0.01,0.03,8.19,5.19,33.50,0.22,-0.25,-0.94,-0.00
3390827, 4.14,-0.96,-8.84,-0.00,-0.01,0.02,8.19,5.19,33.50,0.22,-0.25,-0.94,-0.00
3406038, 4.16,-1.07,-8.98,0.00,-0.01,0.02,8.19,5.19,33.50,0.22,-0.25,-0.94,-0.00
3412892, 4.18,-1.11,-8.90,-0.00,-0.01,0.03,8.19,5.19,33.50,0.22,-0.25,-0.94,-0.00
3417343, 4.18,-1.11,-8.90,-0.00,-0.01,0.03,8.19,6.25,34.06,0.22,-0.25,-0.94,-0.00
3433170, 4.18,-1.02,-8.88,0.01,0.00,-0.01,8.19,6.25,34.06,0.22,-0.25,-0.94,-0.00
3440909, 4.18,-1.05,-8.83,-0.00,-0.00,0.01,8.19,6.25,34.06,0.22,-0.25,-0.94,-0.00
3445872, 4.18,-1.05,-8.83,-0.00,-0.00,0.01,8.19,6.25,34.06,0.22,-0.25,-0.94,-0.00
3452623, 4.13,-0.94,-8.83,0.00,0.01,-0.00,8.19,6.25,34.06,0.22,-0.25,-0.94,-0.00
3459411, 4.13,-0.94,-8.83,0.00,0.00,-0.01,8.19,6.25,34.06,0.22,-0.25,-0.94,-0.00
3474821, 4.15,-0.89,-8.83,-0.00,0.00,-0.01,8.56,6.25,34.75,0.22,-0.25,-0.94,-0.00
3482249, 4.16,-0.96,-8.81,0.00,0.00,-0.00,8.56,6.25,34.75,0.22,-0.25,-0.94,-0.00
3488819, 4.16,-0.96,-8.81,0.00,0.00,0.00,8.56,6.25,34.75,0.22,-0.25,-0.94,-0.00
3494155, 4.15,-1.02,-8.85,0.00,0.00,0.00,8.56,6.25,34.75,0.22,-0.25,-0.94,-0.00
3501721, 4.16,-0.95,-8.83,0.00,0.00,-0.00,8.56,6.25,34.75,0.22,-0.25,-0.94,-0.00
3507460, 4.16,-0.95,-8.83,0.00,0.00,-0.00,8.56,6.25,34.75,0.22,-0.25,-0.94,-0.00
3513757, 4.16,-0.92,-8.82,-0.00,0.00,-0.01,8.56,6.25,34.75,0.22,-0.25,-0.94,-0.00
3538301, 4.16,-0.98,-8.84,-0.00,0.00,-0.00,8.19,6.00,33.69,0.22,-0.25,-0.94,-0.00
3543889, 4.14,-0.97,-8.84,-0.00,0.00,-0.00,8.19,6.00,33.69,0.22,-0.25,-0.94,-0.00
3551435, 4.17,-0.97,-8.85,-0.00,0.00,-0.01,8.19,6.00,33.69,0.22,-0.25,-0.94,-0.00
3556381, 4.17,-0.97,-8.85,-0.00,0.00,-0.01,8.19,6.00,33.69,0.22,-0.25,-0.94,-0.00
3563268, 4.15,-0.93,-8.87,0.00,0.01,-0.01,8.19,6.00,33.69,0.22,-0.25,-0.94,-0.00
3577883, 4.14,-0.96,-8.82,0.00,0.01,-0.01,8.19,5.19,34.06,0.22,-0.25,-0.94,-0.00
3583710, 4.15,-0.97,-8.83,0.00,0.01,-0.01,8.19,5.19,34.06,0.22,-0.25,-0.94,-0.00
3591288, 4.17,-1.03,-8.85,0.00,0.00,-0.01,8.19,5.19,34.06,0.22,-0.25,-0.94,-0.00
3596308, 4.17,-1.03,-8.85,0.00,0.00,-0.01,8.19,5.19,34.06,0.22,-0.25,-0.94,-0.00
3602969, 4.16,-0.98,-8.79,0.00,0.01,-0.02,8.19,5.19,34.06,0.22,-0.25,-0.94,-0.00
3610091, 4.15,-1.00,-8.83,0.00,0.01,-0.03,8.19,5.19,34.06,0.22,-0.25,-0.94,-0.00
3625111, 4.16,-0.94,-8.85,0.00,0.02,-0.03,8.56,6.25,34.50,0.22,-0.25,-0.94,-0.00
3629556, 4.16,-0.94,-8.85,0.00,0.02,-0.03,8.56,6.25,34.50,0.22,-0.25,-0.94,-0.00
3634250, 4.12,-1.13,-8.85,0.00,0.02,-0.03,8.56,6.25,34.50,0.22,-0.25,-0.94,-0.00
3641465, 4.21,-0.85,-8.89,-0.01,0.02,-0.01,8.56,6.25,34.50,0.22,-0.25,-0.94,-0.00
3656087, 4.14,-0.65,-8.78,-0.01,0.02,0.03,8.56,6.25,34.50,0.22,-0.25,-0.94,-0.00
3663088, 4.16,-0.97,-8.85,-0.00,0.01,-0.02,8.56,6.25,34.50,0.22,-0.25,-0.94,-0.00
3667533, 4.16,-0.97,-8.85,-0.00,0.01,-0.02,9.00,6.00,34.06,0.22,-0.25,-0.94,-0.00
3683195, 4.16,-0.90,-8.81,-0.00,0.01,0.00,9.00,6.00,34.06,0.22,-0.25,-0.94,-0.00
3690294, 4.17,-0.92,-8.84,-0.00,0.00,0.01,9.00,6.00,34.06,0.22,-0.25,-0.94,-0.00
3694934, 4.17,-0.92,-8.84,-0.00,0.00,0.01,9.00,6.00,34.06,0.22,-0.25,-0.94,-0.00
3702388, 4.15,-0.90,-8.83,0.00,0.01,0.00,9.00,6.00,34.06,0.22,-0.25,-0.94,-0.00
3708240, 4.15,-0.90,-8.83,-0.00,0.01,0.01,9.00,6.00,34.06,0.22,-0.25,-0.94,-0.00
3724377, 4.19,-0.96,-8.79,0.00,0.00,0.01,8.19,6.00,34.06,0.22,-0.25,-0.94,-0.00
3731753, 4.16,-0.98,-8.79,-0.00,0.00,0.01,8.19,6.00,34.06,0.22,-0.25,-0.94,-0.00
3736504, 4.16,-0.98,-8.79,-0.00,0.00,0.01,8.19,6.00,34.06,0.22,-0.25,-0.94,-0.00
3743239, 4.16,-0.93,-8.82,0.00,0.01,0.00,8.19,6.00,34.06,0.22,-0.25,-0.94,-0.00
3749818, 4.16,-0.93,-8.82,-0.00,0.00,0.01,8.19,6.00,34.06,0.22,-0.25,-0.94,-0.00
3765055, 4.18,-0.98,-8.82,-0.00,-0.00,0.01,8.19,6.00,34.06,0.22,-0.25,-0.94,-0.00
3770510, 4.16,-0.98,-8.81,-0.00,-0.00,0.01,8.56,6.00,34.06,0.22,-0.25,-0.94,-0.00
3775036, 4.16,-0.98,-8.81,-0.00,-0.00,0.01,8.56,6.00,34.06,0.22,-0.25,-0.94,-0.00
3782398, 4.18,-0.93,-8.81,-0.00,-0.00,0.01,8.56,6.00,34.06,0.22,-0.25,-0.94,-0.00
3788153, 4.18,-0.93,-8.81,-0.00,-0.00,0.01,8.56,6.00,34.06,0.22,-0.25,-0.94,-0.00
3804159, 4.17,-0.95,-8.80,-0.00,-0.01,0.01,8.56,6.00,34.06,0.22,-0.25,-0.94,-0.00
3811644, 4.16,-0.96,-8.85,0.00,-0.01,0.02,8.56,6.00,34.06,0.22,-0.25,-0.94,-0.00
3816088, 4.16,-0.96,-8.85,0.00,-0.01,0.02,8.56,6.00,34.06,0.22,-0.25,-0.94,-0.00
3831666, 4.19,-0.99,-8.81,-0.00,-0.01,0.01,7.75,5.56,33.69,0.22,-0.25,-0.94,-0.00
3836254, 4.19,-0.99,-8.81,-0.00,-0.01,0.01,7.75,5.56,33.69,0.22,-0.25,-0.94,-0.00
3843090, 4.16,-0.97,-8.82,-0.00,-0.01,0.01,7.75,5.56,33.69,0.22,-0.25,-0.94,-0.00
3849213, 4.16,-0.97,-8.82,-0.00,-0.00,0.01,7.75,5.56,33.69,0.22,-0.25,-0.94,-0.00
3854532, 4.15,-0.96,-8.84,-0.00,-0.00,0.01,7.75,5.56,33.69,0.22,-0.25,-0.94,-0.00
3861832, 4.16,-0.97,-8.84,-0.00,-0.00,0.01,7.75,5.56,33.69,0.22,-0.25,-0.94,-0.00
3876502, 4.16,-0.95,-8.83,0.00,-0.01,0.01,7.75,6.25,34.50,0.22,-0.25,-0.94,-0.00
3883256, 4.17,-0.96,-8.83,0.00,-0.01,0.00,7.75,6.25,34.50,0.22,-0.25,-0.94,-0.00
3889469, 4.17,-0.96,-8.83,-0.00,-0.01,0.01,7.75,6.25,34.50,0.22,-0.25,-0.94,-0.00
3894680, 4.17,-0.97,-8.85,-0.00,-0.01,0.01,7.75,6.25,34.50,0.22,-0.25,-0.94,-0.00
3901904, 4.21,-1.00,-8.84,-0.00,-0.00,0.00,7.75,6.25,34.50,0.22,-0.25,-0.94,-0.00
3916558, 4.16,-1.07,-8.84,-0.01,0.00,-0.00,7.75,6.25,34.50,0.22,-0.25,-0.94,-0.00
3921904, 4.16,-1.06,-8.83,-0.00,0.01,-0.01,7.75,6.25,34.06,0.22,-0.25,-0.94,-0.00
3926671, 4.16,-1.06,-8.83,-0.00,0.01,-0.01,7.75,6.25,34.06,0.22,-0.25,-0.94,-0.00
3954320, 4.26,-1.03,-8.80,0.00,0.01,0.00,7.75,6.25,34.06,0.22,-0.25,-0.94,-0.00
3961959, 4.11,-0.86,-8.76,-0.00,0.01,-0.03,7.75,6.25,34.06,0.22,-0.25,-0.94,-0.00
3966403, 4.11,-0.86,-8.76,-0.00,0.01,-0.03,7.75,6.25,34.06,0.22,-0.25,-0.94,-0.00
3981023, 4.27,-0.92,-8.81,-0.00,0.00,-0.03,8.56,6.00,34.50,0.22,-0.25,-0.94,-0.00
3985463, 4.11,-0.88,-8.88,-0.00,0.00,-0.03,8.56,6.00,34.50,0.22,-0.25,-0.94,-0.00
3992294, 4.17,-0.94,-8.80,0.00,0.01,-0.01,8.56,6.00,34.50,0.22,-0.25,-0.94,-0.00
3997516, 4.17,-0.94,-8.80,0.00,0.01,-0.01,8.56,6.00,34.50,0.22,-0.25,-0.94,-0.00
4003823, 4.14,-0.99,-8.83,0.00,0.01,-0.01,8.56,6.00,34.50,0.22,-0.25,-0.94,-0.00
4010925, 4.16,-0.97,-8.81,-0.00,0.01,-0.02,8.56,6.00,34.50,0.22,-0.25,-0.94,-0.00
4025710, 4.18,-0.88,-8.83,-0.00,0.01,-0.02,8.56,6.00,33.69,0.22,-0.25,-0.94,-0.00
4033071, 4.17,-0.91,-8.79,-0.00,0.01,-0.01,8.56,6.00,33.69,0.22,-0.25,-0.94,-0.00
4039273, 4.17,-0.91,-8.79,-0.00,0.01,0.00,8.56,6.00,33.69,0.22,-0.25,-0.94,-0.00
4044771, 4.17,-0.90,-8.83,-0.00,0.01,0.00,8.56,6.00,33.69,0.22,-0.25,-0.94,-0.00
4051878, 4.18,-0.93,-8.82,-0.00,0.00,-0.00,8.56,6.00,33.69,0.22,-0.25,-0.94,-0.00
4066811, 4.17,-0.89,-8.81,-0.00,0.00,-0.01,8.56,6.00,33.69,0.22,-0.25,-0.94,-0.00
4072819, 4.17,-0.89,-8.80,0.00,-0.00,-0.00,8.19,6.00,34.06,0.22,-0.25,-0.94,-0.00
4078623, 4.17,-0.89,-8.80,-0.00,-0.01,0.00,8.19,6.00,34.06,0.22,-0.25,-0.94,-0.00
4084400, 4.18,-0.92,-8.82,-0.00,-0.01,0.00,8.19,6.00,34.06,0.22,-0.25,-0.94,-0.00
4091663, 4.16,-0.89,-8.84,-0.00,-0.00,0.01,8.19,6.00,34.06,0.22,-0.25,-0.94,-0.00
4106291, 4.17,-0.95,-8.83,-0.00,-0.01,0.01,8.19,6.00,34.06,0.22,-0.25,-0.94,-0.00
4113518, 4.18,-0.92,-8.78,-0.00,-0.01,0.01,8.19,6.00,34.06,0.22,-0.25,-0.94,-0.00
4117962, 4.18,-0.92,-8.78,-0.00,-0.01,0.01,8.19,6.00,34.06,0.22,-0.25,-0.94,-0.00
4133538, 4.16,-0.89,-8.80,-0.00,-0.01,0.01,8.19,6.25,33.69,0.22,-0.25,-0.94,-0.00
4139901, 4.16,-0.89,-8.80,0.00,-0.01,0.02,8.19,6.25,33.69,0.22,-0.25,-0.94,-0.00
4144983, 4.21,-0.99,-8.86,0.00,-0.01,0.02,8.19,6.25,33.69,0.22,-0.25,-0.94,-0.00
4152177, 4.13,-0.99,-8.85,-0.00,-0.02,0.02,8.19,6.25,33.69,0.22,-0.25,-0.94,-0.00
4167369, 4.18,-0.90,-8.78,-0.00,-0.01,0.02,8.19,6.25,33.69,0.22,-0.25,-0.94,-0.00
4172034, 4.17,-0.93,-8.82,-0.00,-0.02,0.02,8.56,4.75,34.06,0.22,-0.25,-0.94,-0.00
4176475, 4.17,-0.93,-8.82,-0.00,-0.02,0.02,8.56,4.75,34.06,0.22,-0.25,-0.94,-0.00
4191100, 4.15,-1.01,-8.85,-0.00,-0.02,0.03,8.56,4.75,34.06,0.22,-0.25,-0.94,-0.00
4195540, 4.15,-1.01,-8.85,-0.00,-0.02,0.03,8.56,4.75,34.06,0.22,-0.25,-0.94,-0.00
4202811, 4.21,-1.01,-8.84,0.00,-0.01,0.03,8.56,4.75,34.06,0.22,-0.25,-0.94,-0.00
4208290, 4.21,-1.01,-8.84,0.00,-0.01,0.03,8.56,4.75,34.06,0.22,-0.25,-0.94,-0.00
4214615, 4.16,-1.03,-8.82,-0.00,-0.01,0.02,8.56,4.75,34.06,0.22,-0.25,-0.94,-0.00
4229251, 4.19,-0.97,-8.79,-0.00,-0.01,0.00,7.75,6.69,34.88,0.22,-0.25,-0.94,-0.00
4234865, 4.16,-0.99,-8.78,-0.00,-0.01,0.00,7.75,6.69,34.88,0.22,-0.25,-0.94,-0.00
4242030, 4.16,-0.95,-8.81,0.00,-0.00,-0.00,7.75,6.69,34.88,0.22,-0.25,-0.94,-0.00
4246767, 4.16,-0.95,-8.81,0.00,-0.00,-0.00,7.75,6.69,34.88,0.22,-0.25,-0.94,-0.00
4253597, 4.19,-0.96,-8.80,-0.00,-0.01,-0.01,7.75,6.69,34.88,0.22,-0.25,-0.94,-0.00
4260092, 4.19,-0.96,-8.80,-0.00,-0.01,-0.00,7.75,6.69,34.88,0.22,-0.25,-0.94,-0.00
4275546, 4.11,-0.92,-8.87,-0.00,-0.00,0.00,7.06,5.56,34.06,0.22,-0.25,-0.94,-0.00
4283010, 4.19,-1.03,-8.83,0.00,-0.00,0.01,7.06,5.56,34.06,0.22,-0.25,-0.94,-0.00
4288431, 4.19,-1.03,-8.83,0.00,-0.00,0.01,7.06,5.56,34.06,0.22,-0.25,-0.94,-0.00
4294391, 4.16,-1.01,-8.84,-0.00,-0.01,0.00,7.06,5.56,34.06,0.22,-0.25,-0.94,-0.00
4301872, 4.18,-0.97,-8.80,-0.00,0.00,-0.01,7.06,5.56,34.06,0.22,-0.25,-0.94,-0.00
4316486, 4.18,-1.00,-8.79,-0.00,0.00,-0.01,7.06,5.56,34.06,0.22,-0.25,-0.94,-0.00
4321968, 4.17,-0.97,-8.81,0.00,0.01,-0.02,7.50,6.00,34.88,0.22,-0.25,-0.94,-0.00
4326412, 4.17,-0.97,-8.81,0.00,0.01,-0.02,7.50,6.00,34.88,0.22,-0.25,-0.94,-0.00
4333675, 4.18,-0.92,-8.86,-0.00,0.01,-0.03,7.50,6.00,34.88,0.22,-0.25,-0.94,-0.00
4340027, 4.18,-0.92,-8.86,0.00,0.01,-0.03,7.50,6.00,34.88,0.22,-0.25,-0.94,-0.00
4365335, 4.18,-0.94,-8.82,0.00,0.02,-0.02,7.50,6.00,34.88,0.22,-0.25,-0.94,-0.00
4369812, 4.18,-0.94,-8.82,0.00,0.02,-0.02,7.75,5.56,34.50,0.22,-0.25,-0.94,-0.00
4374465, 4.17,-0.95,-8.84,0.00,0.02,-0.02,7.75,5.56,34.50,0.22,-0.25,-0.94,-0.00
4389133, 4.16,-0.91,-8.83,-0.00,0.02,-0.02,7.75,5.56,34.50,0.22,-0.25,-0.94,-0.00
4394754, 4.15,-0.90,-8.82,-0.00,0.02,-0.02,7.75,5.56,34.50,0.22,-0.25,-0.94,-0.00
4402229, 4.17,-0.90,-8.84,0.00,0.02,-0.02,7.75,5.56,34.50,0.22,-0.25,-0.94,-0.00
4406671, 4.17,-0.90,-8.84,0.00,0.02,-0.02,7.75,5.56,34.50,0.22,-0.25,-0.94,-0.00
4413917, 4.17,-0.93,-8.79,0.00,0.02,-0.01,7.75,5.56,34.50,0.22,-0.25,-0.94,-0.00
4428585, 4.17,-0.81,-8.69,0.00,0.01,-0.01,9.00,5.19,34.06,0.22,-0.25,-0.94,-0.01
4434698, 4.20,-0.98,-8.92,0.00,0.02,-0.01,9.00,5.19,34.06,0.22,-0.25,-0.94,-0.01
4442083, 4.22,-1.10,-8.85,0.01,0.01,0.01,9.00,5.19,34.06,0.22,-0.25,-0.94,-0.01
4446522, 4.22,-1.10,-8.85,0.01,0.01,0.01,9.00,5.19,34.06,0.22,-0.25,-0.94,-0.01
4453674, 4.17,-0.99,-8.82,-0.00,0.00,0.01,9.00,5.19,34.06,0.22,-0.25,-0.94,-0.01
4460062, 4.17,-0.99,-8.82,-0.00,0.00,-0.03,9.00,5.19,34.06,0.22,-0.25,-0.94,-0.01
4475645, 4.15,-0.84,-8.79,0.00,0.01,-0.02,9.00,6.69,33.25,0.22,-0.25,-0.94,-0.01
4480093, 4.15,-0.84,-8.79,0.00,0.00,-0.00,9.00,6.69,33.25,0.22,-0.25,-0.94,-0.01
4484707, 4.18,-0.95,-8.83,0.00,0.00,-0.00,9.00,6.69,33.25,0.22,-0.25,-0.94,-0.01
4491284, 4.17,-0.96,-8.83,0.00,0.00,0.01,9.00,6.69,33.25,0.22,-0.25,-0.94,-0.01
4506101, 4.19,-0.94,-8.80,-0.00,-0.00,-0.00,9.00,6.69,33.25,0.22,-0.25,-0.94,-0.01
4513678, 4.15,-0.91,-8.82,-0.00,-0.00,-0.01,9.00,6.69,33.25,0.22,-0.25,-0.94,-0.01
4518133, 4.15,-0.91,-8.82,-0.00,-0.00,-0.01,9.00,6.69,33.25,0.22,-0.25,-0.94,-0.01
4533694, 4.17,-0.95,-8.83,-0.00,-0.00,0.01,8.19,5.56,34.06,0.22,-0.25,-0.94,-0.01
4539686, 4.17,-0.95,-8.83,-0.00,-0.01,0.01,8.19,5.56,34.06,0.22,-0.25,-0.94,-0.01
4545138, 4.17,-0.97,-8.87,-0.00,-0.01,0.01,8.19,5.56,34.06,0.22,-0.25,-0.94,-0.01
4552494, 4.17,-0.95,-8.81,-0.00,-0.01,0.00,8.19,5.56,34.06,0.22,-0.25,-0.94,-0.01
4567326, 4.19,-0.91,-8.83,-0.00,-0.01,0.00,8.19,5.56,34.06,0.22,-0.25,-0.94,-0.01
4573078, 4.16,-0.94,-8.82,-0.00,-0.01,0.01,7.75,6.00,33.75,0.22,-0.25,-0.94,-0.01
4578596, 4.16,-0.94,-8.82,-0.00,-0.01,0.01,7.75,6.00,33.75,0.22,-0.25,-0.94,-0.01
4584716, 4.17,-0.94,-8.83,-0.00,-0.01,0.01,7.75,6.00,33.75,0.22,-0.25,-0.94,-0.01
4591864, 4.16,-0.96,-8.84,-0.00,-0.01,0.01,7.75,6.00,33.75,0.22,-0.25,-0.94,-0.01
4606552, 4.18,-0.91,-8.84,-0.00,-0.01,0.01,7.75,6.00,33.75,0.22,-0.25,-0.94,-0.01
4613935, 4.20,-0.94,-8.82,-0.00,-0.01,0.02,7.75,6.00,33.75,0.22,-0.25,-0.94,-0.01
4618388, 4.20,-0.94,-8.82,-0.00,-0.01,0.02,7.75,6.00,33.75,0.22,-0.25,-0.94,-0.01
4633783, 4.16,-0.98,-8.81,-0.00,-0.01,0.01,8.19,6.00,35.25,0.22,-0.25,-0.94,-0.01
4639773, 4.16,-0.98,-8.81,-0.00,-0.01,-0.00,8.19,6.00,35.25,0.22,-0.25,-0.94,-0.01
4645343, 4.17,-0.92,-8.84,-0.00,-0.01,-0.00,8.19,6.00,35.25,0.22,-0.25,-0.94,-0.01
4652456, 4.19,-0.91,-8.83,-0.00,-0.00,0.00,8.19,6.00,35.25,0.22,-0.25,-0.94,-0.01
4667339, 4.16,-0.95,-8.84,-0.00,0.00,0.00,8.19,6.00,35.25,0.22,-0.25,-0.94,-0.01
4673125, 4.18,-0.96,-8.82,-0.00,0.00,0.00,7.75,6.25,33.38,0.22,-0.25,-0.94,-0.01
4678699, 4.18,-0.96,-8.82,-0.00,0.00,0.00,7.75,6.25,33.38,0.22,-0.25,-0.94,-0.01
4684729, 4.18,-0.93,-8.85,-0.00,0.00,-0.00,7.75,6.25,33.38,0.22,-0.25,-0.94,-0.01
4692003, 4.19,-0.92,-8.85,-0.00,-0.00,0.00,7.75,6.25,33.38,0.22,-0.25,-0.94,-0.01
4706687, 4.17,-0.96,-8.82,-0.00,0.00,0.00,7.75,6.25,33.38,0.22,-0.25,-0.94,-0.01
4714069, 4.15,-0.93,-8.82,-0.00,0.01,0.01,7.75,6.25,33.38,0.22,-0.25,-0.94,-0.01
4718509, 4.15,-0.93,-8.82,-0.00,0.01,0.01,7.75,6.25,33.38,0.22,-0.25,-0.94,-0.01
4734000, 4.17,-0.97,-8.83,-0.00,0.00,0.00,7.06,5.19,34.50,0.22,-0.25,-0.94,-0.01
4740552, 4.17,-0.97,-8.83,-0.00,0.00,-0.00,7.06,5.19,34.50,0.22,-0.25,-0.94,-0.01
4745631, 4.16,-0.97,-8.85,-0.00,0.00,-0.00,7.06,5.19,34.50,0.22,-0.25,-0.94,-0.01
4753011, 4.18,-0.92,-8.84,-0.00,0.00,-0.00,7.06,5.19,34.50,0.22,-0.25,-0.94,-0.01
4758200, 4.18,-0.92,-8.84,-0.00,0.00,-0.00,7.06,5.19,34.50,0.22,-0.25,-0.94,-0.01
4796081, 4.19,-0.91,-8.83,-0.00,0.00,-0.00,7.75,6.69,34.06,0.22,-0.25,-0.94,-0.01
4803686, 4.16,-0.92,-8.82,-0.00,0.00,-0.00,7.75,6.69,34.06,0.22,-0.25,-0.94,-0.01
4809468, 4.16,-0.92,-8.82,-0.00,-0.00,0.00,7.75,6.69,34.06,0.22,-0.25,-0.94,-0.01
4815429, 4.18,-0.92,-8.81,-0.00,-0.00,0.00,7.75,6.69,34.06,0.22,-0.25,-0.94,-0.01
4830124, 4.16,-0.96,-8.82,-0.00,-0.01,0.00,8.19,6.00,33.75,0.22,-0.25,-0.94,-0.01
4835575, 4.19,-0.92,-8.83,-0.00,-0.01,0.00,8.19,6.00,33.75,0.22,-0.25,-0.94,-0.01
4842913, 4.17,-0.92,-8.82,-0.00,-0.00,0.00,8.19,6.00,33.75,0.22,-0.25,-0.94,-0.01
4847938, 4.17,-0.92,-8.82,-0.00,-0.00,0.00,8.19,6.00,33.75,0.22,-0.25,-0.94,-0.01
4854594, 4.18,-0.97,-8.81,-0.00,-0.00,0.01,8.19,6.00,33.75,0.22,-0.25,-0.94,-0.01
4861365, 4.20,-0.95,-8.81,-0.00,0.00,0.00,8.19,6.00,33.75,0.22,-0.25,-0.94,-0.01
4876476, 4.17,-0.96,-8.80,-0.00,-0.00,0.00,9.00,6.00,33.38,0.22,-0.25,-0.94,-0.01
4883909, 4.17,-0.93,-8.81,-0.00,-0.00,-0.00,9.00,6.00,33.38,0.22,-0.25,-0.94,-0.01
4890015, 4.17,-0.93,-8.81,-0.00,-0.00,0.00,9.00,6.00,33.38,0.22,-0.25,-0.94,-0.01
4895587, 4.15,-0.92,-8.87,-0.00,-0.00,0.00,9.00,6.00,33.38,0.22,-0.25,-0.94,-0.01
4902916, 4.19,-0.93,-8.81,-0.00,-0.00,0.00,9.00,6.00,33.38,0.22,-0.25,-0.94,-0.01
4917905, 4.20,-0.95,-8.84,-0.00,-0.00,0.01,9.00,6.00,33.38,0.22,-0.25,-0.94,-0.01
4923465, 4.18,-0.97,-8.79,-0.00,0.00,0.00,9.25,5.56,35.00,0.22,-0.25,-0.94,-0.01
4929043, 4.18,-0.97,-8.79,-0.00,0.00,0.00,9.25,5.56,35.00,0.22,-0.25,-0.94,-0.01
4935233, 4.18,-0.91,-8.83,-0.00,-0.00,0.00,9.25,5.56,35.00,0.22,-0.25,-0.94,-0.01
4942654, 4.16,-0.94,-8.84,-0.00,0.00,0.00,9.25,5.56,35.00,0.22,-0.25,-0.94,-0.01
4957287, 4.19,-0.94,-8.82,-0.00,-0.01,0.00,9.25,5.56,35.00,0.22,-0.25,-0.94,-0.01
4964475, 4.16,-0.93,-8.81,-0.00,-0.01,0.00,9.25,5.56,35.00,0.22,-0.25,-0.94,-0.01
4968933, 4.16,-0.93,-8.81,-0.00,-0.01,0.00,9.25,6.00,34.06,0.22,-0.25,-0.94,-0.01
4984756, 4.18,-0.91,-8.82,0.00,-0.00,0.00,9.25,6.00,34.06,0.22,-0.25,-0.94,-0.01
4991893, 4.19,-0.90,-8.83,0.00,-0.00,0.01,9.25,6.00,34.06,0.22,-0.25,-0.94,-0.01
4996434, 4.19,-0.90,-8.83,0.00,-0.00,0.01,9.25,6.00,34.06,0.22,-0.25,-0.94,-0.01
5003888, 4.20,-0.93,-8.87,0.00,0.00,0.01,9.25,6.00,34.06,0.22,-0.25,-0.94,-0.01
5009989, 4.20,-0.93,-8.87,-0.00,-0.01,0.02,9.25,6.00,34.06,0.22,-0.25,-0.94,-0.01
5025976, 4.25,-1.14,-8.81,-0.00,-0.00,0.04,7.75,5.56,35.00,0.22,-0.25,-0.94,-0.01
5030415, 4.25,-1.14,-8.81,-0.00,-0.00,0.04,7.75,5.56,35.00,0.22,-0.25,-0.94,-0.01
5035084, 4.18,-0.97,-8.81,-0.00,-0.01,0.02,7.75,5.56,35.00,0.22,-0.25,-0.94,-0.01
5042281, 4.17,-0.85,-8.82,-0.01,0.00,-0.01,7.75,5.56,35.00,0.22,-0.25,-0.94,-0.01
5056947, 4.16,-0.94,-8.86,-0.00,-0.00,0.02,7.75,5.56,35.00,0.22,-0.25,-0.94,-0.01
5064324, 4.18,-1.01,-8.82,0.00,-0.00,0.02,7.75,5.56,35.00,0.22,-0.25,-0.94,-0.01
5068768, 4.18,-1.01,-8.82,0.00,-0.00,0.02,6.75,6.25,34.50,0.22,-0.25,-0.94,-0.01
5074704, 4.18,-0.97,-8.84,0.00,-0.01,0.01,6.75,6.25,34.50,0.22,-0.25,-0.94,-0.01
5081926, 4.16,-0.90,-8.82,0.00,-0.00,0.00,6.75,6.25,34.50,0.22,-0.25,-0.94,-0.01
5096763, 4.16,-0.90,-8.84,0.00,0.00,-0.00,6.75,6.25,34.50,0.22,-0.25,-0.94,-0.01
5104192, 4.17,-0.93,-8.85,0.00,-0.00,0.01,6.75,6.25,34.50,0.22,-0.25,-0.94,-0.01
5110707, 4.17,-0.93,-8.85,0.00,-0.01,0.01,6.75,6.25,34.50,0.22,-0.25,-0.94,-0.01
5116255, 4.18,-0.96,-8.80,0.00,-0.01,0.01,6.75,6.25,34.50,0.22,-0.25,-0.94,-0.01
5130897, 4.17,-0.95,-8.81,0.00,0.00,0.01,9.00,6.00,35.25,0.22,-0.25,-0.94,-0.01
5136131, 4.17,-0.92,-8.84,0.00,0.00,0.01,9.00,6.00,35.25,0.22,-0.25,-0.94,-0.01
5143642, 4.17,-0.92,-8.83,-0.00,-0.00,0.01,9.00,6.00,35.25,0.22,-0.25,-0.94,-0.01
5149574, 4.17,-0.92,-8.83,0.00,-0.00,0.01,9.00,6.00,35.25,0.22,-0.25,-0.94,-0.01
5155428, 4.16,-0.97,-8.83,0.00,-0.00,0.01,9.00,6.00,35.25,0.22,-0.25,-0.94,-0.01
5163233, 4.19,-0.96,-8.82,-0.00,-0.01,0.01,9.00,6.00,35.25,0.22,-0.25,-0.94,-0.01
5177897, 4.15,-0.97,-8.82,0.00,-0.00,0.00,7.50,6.25,33.00,0.22,-0.25,-0.94,-0.01
5184599, 4.14,-0.93,-8.82,0.00,-0.01,-0.00,7.50,6.25,33.00,0.22,-0.25,-0.94,-0.01
5191680, 4.14,-0.93,-8.82,0.00,-0.01,-0.00,7.50,6.25,33.00,0.22,-0.25,-0.94,-0.01
5206372, 4.17,-0.92,-8.84,0.00,-0.00,-0.00,7.50,6.25,33.00,0.22,-0.25,-0.94,-0.01
5214202, 4.19,-0.93,-8.82,-0.00,-0.01,-0.00,7.50,6.25,33.00,0.22,-0.25,-0.94,-0.01
5218649, 4.19,-0.93,-8.82,-0.00,-0.01,-0.00,7.50,6.25,33.00,0.22,-0.25,-0.94,-0.01
5234484, 4.16,-0.96,-8.83,-0.00,-0.01,-0.00,7.50,6.00,34.06,0.22,-0.25,-0.94,-0.01
5241336, 4.16,-0.96,-8.83,0.00,-0.01,-0.00,7.50,6.00,34.06,0.22,-0.25,-0.94,-0.01
5246374, 4.16,-0.94,-8.82,0.00,-0.01,-0.00,7.50,6.00,34.06,0.22,-0.25,-0.94,-0.01
5254075, 4.15,-0.96,-8.82,0.00,-0.01,-0.01,7.50,6.00,34.06,0.22,-0.25,-0.94,-0.01
5260276, 4.15,-0.96,-8.82,0.00,-0.01,-0.01,7.50,6.00,34.06,0.22,-0.25,-0.94,-0.01
5276270, 4.13,-0.97,-8.83,0.00,-0.00,-0.01,8.19,5.56,33.00,0.22,-0.25,-0.94,-0.01
5284002, 4.16,-0.97,-8.81,0.00,-0.01,-0.00,8.19,5.56,33.00,0.22,-0.25,-0.94,-0.01
5290214, 4.16,-0.97,-8.81,0.00,-0.00,-0.00,8.19,5.56,33.00,0.22,-0.25,-0.94,-0.01
5295839, 4.17,-0.95,-8.83,0.00,-0.00,-0.00,8.19,5.56,33.00,0.22,-0.25,-0.94,-0.01
5303490, 4.16,-0.96,-8.82,0.00,-0.01,-0.00,8.19,5.56,33.00,0.22,-0.25,-0.94,-0.01
5308955, 4.16,-0.96,-8.82,0.00,-0.01,-0.00,8.19,5.56,33.00,0.22,-0.25,-0.94,-0.01
5325724, 4.16,-0.95,-8.83,0.00,-0.00,-0.00,10.50,6.00,34.06,0.22,-0.25,-0.94,-0.01
5333474, 4.17,-0.95,-8.85,0.00,0.00,-0.01,10.50,6.00,34.06,0.22,-0.25,-0.94,-0.01
5339071, 4.17,-0.95,-8.85,0.00,0.00,-0.01,10.50,6.00,34.06,0.22,-0.25,-0.94,-0.01
5345398, 4.16,-0.92,-8.84,0.00,0.00,-0.01,10.50,6.00,34.06,0.22,-0.25,-0.94,-0.01
5352983, 4.16,-0.95,-8.82,0.00,0.00,-0.00,10.50,6.00,34.06,0.22,-0.25,-0.94,-0.01
5368164, 4.16,-0.90,-8.81,-0.00,-0.00,0.00,10.50,6.00,34.06,0.22,-0.25,-0.94,-0.01
5374344, 4.17,-0.96,-8.82,-0.00,0.00,0.00,8.56,5.56,33.75,0.22,-0.25,-0.94,-0.01
5380893, 4.17,-0.96,-8.82,0.00,0.00,0.00,8.56,5.56,33.75,0.22,-0.25,-0.94,-0.01
5386230, 4.16,-1.00,-8.84,0.00,0.00,0.00,8.56,5.56,33.75,0.22,-0.25,-0.94,-0.01
5393834, 4.18,-0.98,-8.83,0.00,0.00,-0.00,8.56,5.56,33.75,0.22,-0.25,-0.94,-0.01
5399607, 4.18,-0.98,-8.83,0.00,0.00,-0.00,8.56,5.56,33.75,0.22,-0.25,-0.94,-0.01
5415718, 4.14,-0.93,-8.84,0.00,0.00,-0.00,8.56,5.56,33.75,0.22,-0.25,-0.94,-0.01
5420162, 4.14,-0.93,-8.84,0.00,-0.01,-0.00,9.00,6.00,35.00,0.22,-0.25,-0.94,-0.01
5425780, 4.15,-0.94,-8.82,0.00,-0.01,-0.00,9.00,6.00,35.00,0.22,-0.25,-0.94,-0.01
5433378, 4.16,-0.97,-8.79,0.00,-0.01,0.00,9.00,6.00,35.00,0.22,-0.25,-0.94,-0.01
5438722, 4.16,-0.97,-8.79,0.00,-0.01,0.00,9.00,6.00,35.00,0.22,-0.25,-0.94,-0.01
5445188, 4.16,-0.96,-8.88,0.00,-0.00,-0.00,9.00,6.00,35.00,0.22,-0.25,-0.94,-0.01
5452677, 4.17,-0.94,-8.84,-0.00,-0.00,-0.00,9.00,6.00,35.00,0.22,-0.25,-0.94,-0.01
5467353, 4.15,-0.96,-8.84,0.00,-0.00,0.00,9.00,6.00,35.00,0.22,-0.25,-0.94,-0.01
5473467, 4.16,-0.93,-8.83,0.00,-0.00,0.00,8.56,6.25,34.56,0.22,-0.25,-0.94,-0.01
5479111, 4.16,-0.93,-8.83,0.00,-0.00,0.00,8.56,6.25,34.56,0.22,-0.25,-0.94,-0.01
5485391, 4.14,-0.85,-8.83,-0.00,-0.01,-0.00,8.56,6.25,34.56,0.22,-0.25,-0.94,-0.01
5492970, 4.13,-0.95,-8.88,-0.00,-0.01,0.01,8.56,6.25,34.56,0.22,-0.25,-0.94,-0.01
5507815, 4.20,-0.95,-8.85,-0.00,-0.00,0.01,8.56,6.25,34.56,0.22,-0.25,-0.94,-0.01
5515002, 4.16,-1.00,-8.82,0.00,-0.00,0.01,8.56,6.25,34.56,0.22,-0.25,-0.94,-0.01
5519448, 4.16,-1.00,-8.82,0.00,-0.00,0.01,8.19,6.00,35.00,0.22,-0.25,-0.94,-0.01
5535109, 4.14,-0.97,-8.82,0.00,-0.00,0.00,8.19,6.00,35.00,0.22,-0.25,-0.94,-0.01
5542377, 4.15,-0.99,-8.86,0.00,-0.00,0.00,8.19,6.00,35.00,0.22,-0.25,-0.94,-0.01
5546959, 4.15,-0.99,-8.86,0.00,-0.00,0.00,8.19,6.00,35.00,0.22,-0.25,-0.94,-0.01
5554449, 4.19,-0.98,-8.86,0.00,-0.00,-0.00,8.19,6.00,35.00,0.22,-0.25,-0.94,-0.01
5560768, 4.19,-0.98,-8.86,0.00,0.00,-0.00,8.19,6.00,35.00,0.22,-0.25,-0.94,-0.01
5576637, 4.17,-0.93,-8.83,-0.00,-0.00,-0.00,7.75,5.56,34.56,0.22,-0.25,-0.94,-0.01
5584366, 4.15,-0.90,-8.82,-0.00,0.00,-0.00,7.75,5.56,34.56,0.22,-0.25,-0.94,-0.01
5590601, 4.15,-0.90,-8.82,-0.00,0.00,0.00,7.75,5.56,34.56,0.22,-0.25,-0.94,-0.01
5596208, 4.17,-0.92,-8.84,-0.00,0.00,0.00,7.75,5.56,34.56,0.22,-0.25,-0.94,-0.01
5603753, 4.16,-0.95,-8.80,-0.00,0.00,0.00,7.75,5.56,34.56,0.22,-0.25,-0.94,-0.01
5631645, 4.16,-0.95,-8.81,-0.00,-0.00,0.00,7.50,6.69,34.19,0.22,-0.25,-0.94,-0.01
5636749, 4.14,-0.94,-8.83,-0.00,-0.00,0.00,7.50,6.69,34.19,0.22,-0.25,-0.94,-0.01
5644408, 4.16,-0.93,-8.86,0.00,0.00,0.00,7.50,6.69,34.19,0.22,-0.25,-0.94,-0.01
5650306, 4.16,-0.93,-8.86,0.00,0.00,0.00,7.50,6.69,34.19,0.22,-0.25,-0.94,-0.01
5656056, 4.16,-0.98,-8.84,0.00,0.00,0.00,7.50,6.69,34.19,0.22,-0.25,-0.94,-0.01
5663742, 4.13,-0.97,-8.82,-0.00,0.00,0.00,7.50,6.69,34.19,0.22,-0.25,-0.94,-0.01
5678407, 4.15,-0.93,-8.81,0.00,-0.00,0.00,7.75,6.00,32.56,0.22,-0.25,-0.94,-0.01
5685174, 4.16,-0.93,-8.83,-0.00,0.00,0.00,7.75,6.00,32.56,0.22,-0.25,-0.94,-0.01
5692032, 4.16,-0.93,-8.83,-0.00,0.00,0.01,7.75,6.00,32.56,0.22,-0.25,-0.94,-0.01
5696872, 4.16,-0.94,-8.82,-0.00,0.00,0.01,7.75,6.00,32.56,0.22,-0.25,-0.94,-0.01
5704489, 4.17,-0.96,-8.82,0.00,0.00,0.01,7.75,6.00,32.56,0.22,-0.25,-0.94,-0.01
5710501, 4.17,-0.96,-8.82,0.00,-0.00,0.01,7.75,6.00,32.56,0.22,-0.25,-0.94,-0.01
5726548, 4.15,-0.91,-8.84,0.00,0.00,0.00,9.00,6.00,34.19,0.22,-0.25,-0.94,-0.01
5734184, 4.15,-0.94,-8.82,0.00,-0.00,0.01,9.00,6.00,34.19,0.22,-0.25,-0.94,-0.01
5739964, 4.15,-0.94,-8.82,0.00,-0.00,0.01,9.00,6.00,34.19,0.22,-0.25,-0.94,-0.01
5745957, 4.16,-0.97,-8.84,0.00,-0.01,0.01,9.00,6.00,34.19,0.22,-0.25,-0.94,-0.01
5753571, 4.16,-0.97,-8.81,0.00,-0.00,0.01,9.00,6.00,34.19,0.22,-0.25,-0.94,-0.01
5758694, 4.16,-0.97,-8.81,0.00,-0.00,0.01,9.00,6.00,34.19,0.22,-0.25,-0.94,-0.01
5765556, 4.16,-0.96,-8.84,0.00,-0.00,0.01,9.00,6.00,34.19,0.22,-0.25,-0.94,-0.01
5780248, 4.15,-0.95,-8.84,0.00,-0.00,0.01,9.00,5.56,34.19,0.22,-0.25,-0.94,-0.01
5786078, 4.15,-0.98,-8.84,0.00,-0.00,0.01,9.00,5.56,34.19,0.22,-0.25,-0.94,-0.01
5793705, 4.17,-0.96,-8.86,0.00,0.00,0.00,9.00,5.56,34.19,0.22,-0.25,-0.94,-0.01
5798945, 4.17,-0.96,-8.86,0.00,0.00,0.00,9.00,5.56,34.19,0.22,-0.25,-0.94,-0.01
5805541, 4.20,-0.94,-8.83,0.00,0.00,0.00,9.00,5.56,34.19,0.22,-0.25,-0.94,-0.01
5812700, 4.14,-0.95,-8.83,0.00,0.00,-0.00,9.00,5.56,34.19,0.22,-0.25,-0.94,-0.01
5827615, 4.20,-0.94,-8.83,-0.00,-0.01,-0.00,8.19,6.00,33.75,0.22,-0.25,-0.94,-0.01
5834851, 4.18,-0.93,-8.82,0.00,-0.01,-0.00,8.19,6.00,33.75,0.22,-0.25,-0.94,-0.01
5841416, 4.18,-0.93,-8.82,0.00,-0.00,0.00,8.19,6.00,33.75,0.22,-0.25,-0.94,-0.01
5846623, 4.13,-0.99,-8.85,0.00,-0.00,0.00,8.19,6.00,33.75,0.22,-0.25,-0.94,-0.01
5854241, 4.17,-0.96,-8.83,0.00,-0.01,-0.00,8.19,6.00,33.75,0.22,-0.25,-0.94,-0.01
5859833, 4.17,-0.96,-8.83,0.00,-0.01,-0.00,8.19,6.00,33.75,0.22,-0.25,-0.94,-0.01
5876225, 4.12,-0.96,-8.83,-0.00,-0.00,-0.00,8.19,5.56,33.38,0.22,-0.25,-0.94,-0.01
5883839, 4.16,-0.95,-8.80,-0.00,-0.01,0.00,8.19,5.56,33.38,0.22,-0.25,-0.94,-0.01
5889040, 4.16,-0.95,-8.80,-0.00,-0.01,0.00,8.19,5.56,33.38,0.22,-0.25,-0.94,-0.01
5895665, 4.17,-0.98,-8.82,-0.00,-0.00,0.00,8.19,5.56,33.38,0.22,-0.25,-0.94,-0.01
5902840, 4.18,-0.92,-8.81,0.00,-0.00,0.00,8.19,5.56,33.38,0.22,-0.25,-0.94,-0.01
5917489, 4.15,-0.97,-8.84,-0.00,-0.00,-0.01,8.19,5.56,33.38,0.22,-0.25,-0.94,-0.01
5922968, 4.16,-0.96,-8.80,0.00,-0.00,-0.00,8.19,6.25,33.38,0.22,-0.25,-0.94,-0.01
5927407, 4.16,-0.96,-8.80,0.00,-0.00,-0.00,8.19,6.25,33.38,0.22,-0.25,-0.94,-0.01
5934911, 4.14,-0.96,-8.84,0.00,0.00,-0.00,8.19,6.25,33.38,0.22,-0.25,-0.94,-0.01
5941114, 4.14,-0.96,-8.84,-0.00,0.00,-0.01,8.19,6.25,33.38,0.22,-0.25,-0.94,-0.01
5956794, 4.14,-0.95,-8.84,0.00,0.00,-0.01,8.19,6.25,33.38,0.22,-0.25,-0.94,-0.01
5964697, 4.13,-0.93,-8.84,0.00,0.00,-0.01,8.19,6.25,33.38,0.22,-0.25,-0.94,-0.01
5969142, 4.13,-0.93,-8.84,0.00,0.00,-0.01,8.19,6.25,33.38,0.22,-0.25,-0.94,-0.01
5975010, 4.16,-0.93,-8.82,0.00,0.00,-0.01,8.19,6.25,33.75,0.22,-0.25,-0.94,-0.01
5991666, 4.13,-0.93,-8.87,0.00,-0.00,-0.01,8.19,6.25,33.75,0.22,-0.25,-0.94,-0.01
5996878, 4.15,-0.93,-8.85,0.00,-0.00,-0.01,8.19,6.25,33.75,0.22,-0.25,-0.94,-0.01
6004377, 4.15,-0.94,-8.82,0.00,0.00,0.00,8.19,6.25,33.75,0.22,-0.25,-0.94,-0.01
6009954, 4.15,-0.94,-8.82,0.00,0.00,0.00,8.19,6.25,33.75,0.22,-0.25,-0.94,-0.01
6016337, 4.16,-0.95,-8.82,-0.00,0.00,0.00,8.19,6.25,33.75,0.22,-0.25,-0.94,-0.01
6040889, 4.16,-0.92,-8.80,-0.00,0.00,0.00,7.50,6.69,34.19,0.22,-0.25,-0.94,-0.01
6046575, 4.15,-0.97,-8.87,-0.00,0.00,0.00,7.50,6.69,34.19,0.22,-0.25,-0.94,-0.01
6054052, 4.17,-0.97,-8.78,0.00,0.01,0.01,7.50,6.69,34.19,0.22,-0.25,-0.94,-0.01
6059259, 4.17,-0.97,-8.78,0.00,0.01,0.01,7.50,6.69,34.19,0.22,-0.25,-0.94,-0.01
6066000, 4.20,-0.94,-8.78,0.00,0.01,-0.00,7.50,6.69,34.19,0.22,-0.25,-0.94,-0.01
6080675, 4.11,-1.00,-8.87,0.00,0.00,-0.00,7.75,6.25,34.56,0.22,-0.25,-0.94,-0.01
6086454, 4.23,-0.98,-8.84,0.00,0.00,-0.00,7.75,6.25,34.56,0.22,-0.25,-0.94,-0.01
6093982, 4.11,-0.97,-8.82,0.00,-0.00,-0.02,7.75,6.25,34.56,0.22,-0.25,-0.94,-0.01
6098699, 4.11,-0.97,-8.82,0.00,-0.00,-0.02,7.75,6.25,34.56,0.22,-0.25,-0.94,-0.01
6105587, 4.13,-0.92,-8.87,0.00,0.00,-0.01,7.75,6.25,34.56,0.22,-0.25,-0.94,-0.01
6112462, 4.13,-0.92,-8.87,0.00,-0.00,-0.01,7.75,6.25,34.56,0.22,-0.25,-0.94,-0.01
6127717, 4.17,-0.99,-8.83,0.00,-0.00,-0.01,9.00,6.00,33.38,0.22,-0.25,-0.94,-0.01
6135038, 4.16,-0.96,-8.82,0.00,-0.01,-0.01,9.00,6.00,33.38,0.22,-0.25,-0.94,-0.01
6141429, 4.16,-0.96,-8.82,-0.00,0.00,-0.01,9.00,6.00,33.38,0.22,-0.25,-0.94,-0.01
6146903, 4.12,-0.93,-8.84,-0.00,0.00,-0.01,9.00,6.00,33.38,0.22,-0.25,-0.94,-0.01
6154457, 4.15,-0.96,-8.86,0.00,-0.00,0.00,9.00,6.00,33.38,0.22,-0.25,-0.94,-0.01
6160169, 4.15,-0.96,-8.86,0.00,-0.00,0.00,9.00,6.00,33.38,0.22,-0.25,-0.94,-0.01
6176583, 4.16,-0.99,-8.86,-0.00,0.00,0.00,8.56,6.69,34.19,0.22,-0.25,-0.94,-0.01
6184411, 4.16,-0.97,-8.83,0.00,0.00,0.00,8.56,6.69,34.19,0.22,-0.25,-0.94,-0.01
6190057, 4.16,-0.97,-8.83,0.00,0.00,0.00,8.56,6.69,34.19,0.22,-0.25,-0.94,-0.01
6196213, 4.16,-0.94,-8.86,0.00,0.00,0.00,8.56,6.69,34.19,0.22,-0.25,-0.94,-0.01
6203821, 4.16,-0.97,-8.82,0.00,-0.00,0.00,8.56,6.69,34.19,0.22,-0.25,-0.94,-0.01
6208831, 4.16,-0.97,-8.82,0.00,-0.00,0.00,8.56,6.69,34.19,0.22,-0.25,-0.94,-0.01
6215866, 4.15,-0.97,-8.84,0.00,0.00,-0.00,8.56,6.69,34.19,0.22,-0.25,-0.94,-0.01
6230559, 4.15,-0.95,-8.84,0.00,-0.00,-0.01,8.19,5.19,33.38,0.22,-0.25,-0.94,-0.01
6236444, 4.14,-0.93,-8.80,-0.00,0.00,-0.01,8.19,5.19,33.38,0.22,-0.25,-0.94,-0.01
6244238, 4.16,-0.92,-8.83,0.00,0.00,-0.00,8.19,5.19,33.38,0.22,-0.25,-0.94,-0.01
6249295, 4.16,-0.92,-8.83,0.00,0.00,-0.00,8.19,5.19,33.38,0.22,-0.25,-0.94,-0.01
6255955, 4.15,-0.95,-8.83,0.00,0.00,-0.00,8.19,5.19,33.38,0.22,-0.25,-0.94,-0.01
6263328, 4.17,-0.93,-8.83,0.00,-0.00,0.00,8.19,5.19,33.38,0.22,-0.25,-0.94,-0.01
6278147, 4.15,-0.97,-8.84,-0.00,0.00,-0.00,8.56,4.75,33.38,0.22,-0.25,-0.94,-0.01
6285380, 4.17,-0.98,-8.82,0.00,-0.00,0.00,8.56,4.75,33.38,0.22,-0.25,-0.94,-0.01
6291887, 4.17,-0.98,-8.82,0.00,0.00,0.00,8.56,4.75,33.38,0.22,-0.25,-0.94,-0.01
6297221, 4.15,-0.98,-8.81,0.00,0.00,0.00,8.56,4.75,33.38,0.22,-0.25,-0.94,-0.01
6304743, 4.16,-0.95,-8.82,0.00,0.00,-0.01,8.56,4.75,33.38,0.22,-0.25,-0.94,-0.01
6310552, 4.16,-0.95,-8.82,0.00,0.00,-0.01,8.56,4.75,33.38,0.22,-0.25,-0.94,-0.01
6326908, 4.18,-0.95,-8.82,-0.00,-0.00,-0.01,8.19,5.56,33.38,0.22,-0.25,-0.94,-0.01
6334695, 4.16,-0.92,-8.80,0.00,0.00,-0.00,8.19,5.56,33.38,0.22,-0.25,-0.94,-0.01
6340364, 4.16,-0.92,-8.80,0.00,0.00,-0.00,8.19,5.56,33.38,0.22,-0.25,-0.94,-0.01
6346449, 4.15,-0.92,-8.82,0.00,-0.00,-0.01,8.19,5.56,33.38,0.22,-0.25,-0.94,-0.01
6354054, 4.16,-0.95,-8.83,0.00,-0.00,-0.00,8.19,5.56,33.38,0.22,-0.25,-0.94,-0.01
6369296, 4.15,-0.92,-8.83,0.00,0.00,-0.00,8.19,5.56,33.38,0.22,-0.25,-0.94,-0.01
6375546, 4.16,-0.96,-8.84,-0.00,0.00,0.00,9.25,6.25,33.75,0.22,-0.25,-0.94,-0.01
6382243, 4.16,-0.96,-8.84,0.00,0.00,0.00,9.25,6.25,33.75,0.22,-0.25,-0.94,-0.01
6387321, 4.14,-0.96,-8.84,0.00,0.00,0.00,9.25,6.25,33.75,0.22,-0.25,-0.94,-0.01
6394985, 4.16,-0.97,-8.85,0.00,0.00,-0.00,9.25,6.25,33.75,0.22,-0.25,-0.94,-0.01
6400782, 4.16,-0.97,-8.85,0.00,0.00,-0.00,9.25,6.25,33.75,0.22,-0.25,-0.94,-0.01
6416901, 4.15,-0.97,-8.83,-0.00,-0.00,-0.01,9.25,6.25,33.75,0.22,-0.25,-0.94,-0.01
6421350, 4.15,-0.97,-8.83,0.00,-0.00,-0.01,6.75,6.00,33.75,0.22,-0.25,-0.94,-0.01
6426855, 4.16,-0.96,-8.83,0.00,-0.00,-0.01,6.75,6.00,33.75,0.22,-0.25,-0.94,-0.01
6544833, 4.16,-0.95,-8.83,-0.00,-0.00,-0.01,9.00,6.25,31.75,0.22,-0.25,-0.94,-0.01
6550243, 4.16,-0.95,-8.83,-0.00,-0.00,-0.01,9.00,6.25,31.75,0.22,-0.25,-0.94,-0.01
6556530, 4.18,-0.98,-8.81,0.00,-0.00,-0.01,9.00,6.25,31.75,0.22,-0.25,-0.94,-0.01
6564001, 4.14,-0.92,-8.83,-0.00,-0.00,-0.01,9.00,6.25,31.75,0.22,-0.25,-0.94,-0.01
6568444, 4.14,-0.92,-8.83,-0.00,-0.00,-0.01,9.00,6.25,31.75,0.22,-0.25,-0.94,-0.01
6584494, 4.15,-0.96,-8.83,-0.00,0.00,-0.01,9.25,5.56,33.38,0.22,-0.25,-0.94,-0.01
6589575, 4.15,-0.96,-8.83,-0.00,0.00,-0.01,9.25,5.56,33.38,0.22,-0.25,-0.94,-0.01
6596280, 4.17,-0.93,-8.84,0.00,-0.00,-0.01,9.25,5.56,33.38,0.22,-0.25,-0.94,-0.01
6603075, 4.17,-0.93,-8.84,-0.00,-0.00,-0.01,9.25,5.56,33.38,0.22,-0.25,-0.94,-0.01
6607911, 4.15,-0.94,-8.84,-0.00,-0.00,-0.01,9.25,5.56,33.38,0.22,-0.25,-0.94,-0.01
6615606, 4.16,-0.94,-8.81,0.00,0.00,-0.01,9.25,5.56,33.38,0.22,-0.25,-0.94,-0.01
6630254, 4.16,-0.96,-8.82,0.00,-0.00,0.00,8.19,6.00,33.75,0.22,-0.25,-0.94,-0.01
6636665, 4.14,-0.94,-8.84,0.00,-0.00,-0.01,8.19,6.00,33.75,0.22,-0.25,-0.94,-0.01
6644047, 4.16,-0.96,-8.82,0.00,0.00,-0.00,8.19,6.00,33.75,0.22,-0.25,-0.94,-0.01
6648495, 4.16,-0.96,-8.82,0.00,0.00,-0.00,8.19,6.00,33.75,0.22,-0.25,-0.94,-0.01
6655737, 4.17,-0.95,-8.83,-0.00,-0.00,-0.00,8.19,6.00,33.75,0.22,-0.25,-0.94,-0.01
6662496, 4.17,-0.95,-8.83,-0.00,-0.00,-0.00,8.19,6.00,33.75,0.22,-0.25,-0.94,-0.01
6678129, 4.14,-0.97,-8.83,-0.00,0.00,-0.01,8.56,5.56,33.38,0.22,-0.25,-0.94,-0.01
6685685, 4.14,-0.94,-8.80,0.00,-0.00,-0.01,8.56,5.56,33.38,0.22,-0.25,-0.94,-0.01
6691886, 4.14,-0.94,-8.80,0.00,-0.00,-0.00,8.56,5.56,33.38,0.22,-0.25,-0.94,-0.01
6697458, 4.16,-0.91,-8.86,0.00,-0.00,-0.00,8.56,5.56,33.38,0.22,-0.25,-0.94,-0.01
6704987, 4.15,-0.94,-8.82,0.00,-0.00,-0.00,8.56,5.56,33.38,0.22,-0.25,-0.94,-0.01
6720617, 4.16,-0.95,-8.83,0.00,0.00,-0.00,7.75,6.00,33.75,0.22,-0.25,-0.94,-0.01
6726520, 4.15,-0.93,-8.81,0.00,0.00,-0.00,7.75,6.00,33.75,0.22,-0.25,-0.94,-0.01
6733982, 4.18,-0.91,-8.84,-0.00,0.00,-0.00,7.75,6.00,33.75,0.22,-0.25,-0.94,-0.01
6738422, 4.18,-0.91,-8.84,-0.00,0.00,-0.00,7.75,6.00,33.75,0.22,-0.25,-0.94,-0.01
6745855, 4.15,-0.95,-8.83,-0.00,-0.00,-0.00,7.75,6.00,33.75,0.22,-0.25,-0.94,-0.01
6752323, 4.15,-0.95,-8.83,0.00,-0.00,-0.00,7.75,6.00,33.75,0.22,-0.25,-0.94,-0.01
6767891, 4.16,-0.98,-8.81,-0.00,0.00,-0.00,7.75,6.00,33.75,0.22,-0.25,-0.94,-0.01
6773492, 4.16,-0.95,-8.83,-0.00,0.00,-0.00,9.00,5.56,35.25,0.22,-0.25,-0.94,-0.01
6778228, 4.16,-0.95,-8.83,-0.00,0.00,-0.00,9.00,5.56,35.25,0.22,-0.25,-0.94,-0.01
6785731, 4.14,-0.95,-8.80,0.00,0.00,-0.00,9.00,5.56,35.25,0.22,-0.25,-0.94,-0.01
6792153, 4.14,-0.95,-8.80,0.00,0.00,-0.00,9.00,5.56,35.25,0.22,-0.25,-0.94,-0.01
6807835, 4.20,-0.84,-8.78,0.00,0.00,0.00,9.00,5.56,35.25,0.22,-0.25,-0.94,-0.01
6815714, 4.13,-0.81,-8.83,-0.00,-0.01,0.02,9.00,5.56,35.25,0.22,-0.25,-0.94,-0.01
6820160, 4.13,-0.81,-8.83,-0.00,-0.01,0.02,9.00,5.56,35.25,0.22,-0.25,-0.94,-0.01
6835039, 4.12,-0.90,-8.80,-0.00,-0.01,0.01,8.19,6.69,34.56,0.22,-0.25,-0.94,-0.01
6839636, 4.12,-0.90,-8.80,-0.00,-0.01,0.01,8.19,6.69,34.56,0.22,-0.25,-0.94,-0.01
6846419, 4.12,-1.09,-8.88,0.00,0.01,0.01,8.19,6.69,34.56,0.22,-0.25,-0.94,-0.01
6853267, 4.12,-1.09,-8.88,-0.00,-0.01,0.01,8.19,6.69,34.56,0.22,-0.25,-0.94,-0.01
6858135, 4.14,-1.02,-8.89,-0.00,-0.01,0.01,8.19,6.69,34.56,0.22,-0.25,-0.94,-0.01
6865949, 4.13,-0.97,-8.86,-0.00,0.00,0.00,8.19,6.69,34.56,0.22,-0.25,-0.94,-0.01
6880570, 4.17,-0.97,-8.84,-0.00,-0.00,0.01,8.19,6.25,34.88,0.22,-0.25,-0.94,-0.01
6886864, 4.17,-1.02,-8.84,0.00,0.00,-0.00,8.19,6.25,34.88,0.22,-0.25,-0.94,-0.01
6894589, 4.16,-0.92,-8.87,-0.00,0.00,-0.01,8.19,6.25,34.88,0.22,-0.25,-0.94,-0.01
6899271, 4.16,-0.92,-8.87,-0.00,0.00,-0.01,8.19,6.25,34.88,0.22,-0.25,-0.94,-0.01
6906361, 4.14,-0.93,-8.84,0.00,0.00,-0.00,8.19,6.25,34.88,0.22,-0.25,-0.94,-0.01
6913097, 4.14,-0.93,-8.84,0.00,0.00,-0.01,8.19,6.25,34.88,0.22,-0.25,-0.94,-0.01
6928584, 4.15,-0.95,-8.79,0.00,0.00,-0.01,8.19,6.25,34.06,0.22,-0.25,-0.94,-0.01
6936025, 4.16,-0.92,-8.83,0.00,-0.00,-0.01,8.19,6.25,34.06,0.22,-0.25,-0.94,-0.01
6952286, 4.16,-0.92,-8.84,0.00,-0.00,-0.00,8.19,6.25,34.06,0.22,-0.25,-0.94,-0.01
6957820, 4.16,-0.94,-8.83,0.00,-0.00,-0.00,8.19,6.25,34.06,0.22,-0.25,-0.94,-0.01
6965543, 4.17,-0.94,-8.83,0.00,-0.00,-0.00,8.19,6.25,34.06,0.22,-0.25,-0.94,-0.01
6969987, 4.17,-0.94,-8.83,0.00,-0.00,-0.00,8.19,6.25,34.06,0.22,-0.25,-0.94,-0.01
6975964, 4.13,-0.96,-8.82,-0.00,-0.00,0.00,8.56,6.25,34.06,0.22,-0.25,-0.94,-0.01
6992597, 4.16,-0.97,-8.81,0.00,-0.00,0.00,8.56,6.25,34.06,0.22,-0.25,-0.94,-0.01
6997927, 4.15,-0.95,-8.86,0.00,-0.00,0.00,8.56,6.25,34.06,0.22,-0.25,-0.94,-0.01
7005423, 4.15,-0.97,-8.82,0.00,-0.00,0.00,8.56,6.25,34.06,0.22,-0.25,-0.94,-0.01
7011109, 4.15,-0.97,-8.82,0.00,-0.00,0.00,8.56,6.25,34.06,0.22,-0.25,-0.94,-0.01
7017459, 4.13,-0.95,-8.81,0.00,-0.00,0.00,8.56,6.25,34.06,0.22,-0.25,-0.94,-0.01
7032126, 4.14,-0.96,-8.83,0.00,-0.00,-0.00,8.56,5.56,34.88,0.22,-0.25,-0.94,-0.01
7037706, 4.16,-0.94,-8.82,0.00,-0.00,-0.00,8.56,5.56,34.88,0.22,-0.25,-0.94,-0.01
7045353, 4.14,-0.96,-8.83,0.00,-0.00,-0.00,8.56,5.56,34.88,0.22,-0.25,-0.94,-0.01
7050842, 4.14,-0.96,-8.83,0.00,-0.00,-0.00,8.56,5.56,34.88,0.22,-0.25,-0.94,-0.01
7057133, 4.14,-0.98,-8.83,0.00,-0.00,-0.00,8.56,5.56,34.88,0.22,-0.25,-0.94,-0.01
7065014, 4.16,-0.94,-8.82,0.00,0.00,-0.00,8.56,5.56,34.88,0.22,-0.25,-0.94,-0.01
7079696, 4.16,-0.94,-8.84,0.00,-0.00,-0.00,9.25,6.00,33.69,0.22,-0.25,-0.94,-0.01
7086589, 4.16,-0.92,-8.82,-0.00,-0.00,0.00,9.25,6.00,33.69,0.22,-0.25,-0.94,-0.01
7093540, 4.16,-0.92,-8.82,-0.00,-0.00,0.00,9.25,6.00,33.69,0.22,-0.25,-0.94,-0.01
7098374, 4.13,-0.97,-8.87,-0.00,-0.00,0.00,9.25,6.00,33.69,0.22,-0.25,-0.94,-0.01
7105971, 4.15,-0.94,-8.83,0.00,-0.00,0.00,9.25,6.00,33.69,0.22,-0.25,-0.94,-0.01
7112327, 4.15,-0.94,-8.83,-0.00,-0.00,0.00,9.25,6.00,33.69,0.22,-0.25,-0.94,-0.01
7128308, 4.17,-0.88,-8.82,-0.00,-0.00,0.01,8.56,6.25,33.38,0.22,-0.25,-0.94,-0.01
7135998, 4.16,-1.01,-8.81,-0.00,-0.00,0.01,8.56,6.25,33.38,0.22,-0.25,-0.94,-0.01
7142221, 4.16,-1.01,-8.81,-0.00,-0.00,0.00,8.56,6.25,33.38,0.22,-0.25,-0.94,-0.01
7147818, 4.16,-0.95,-8.81,-0.00,-0.00,0.00,8.56,6.25,33.38,0.22,-0.25,-0.94,-0.01
7155300, 4.15,-0.92,-8.80,-0.00,-0.00,-0.00,8.56,6.25,33.38,0.22,-0.25,-0.94,-0.01
7171016, 4.16,-0.91,-8.83,-0.00,-0.01,0.00,8.19,6.25,33.69,0.22,-0.25,-0.94,-0.01
7177249, 4.18,-0.88,-8.82,-0.00,-0.01,0.01,8.19,6.25,33.69,0.22,-0.25,-0.94,-0.01
7184380, 4.08,-0.89,-8.88,-0.01,-0.01,0.02,8.19,6.25,33.69,0.22,-0.25,-0.94,-0.01
7188825, 4.08,-0.89,-8.88,-0.01,-0.01,0.02,8.19,6.25,33.69,0.22,-0.25,-0.94,-0.01
7196284, 4.23,-0.94,-8.74,-0.00,-0.01,0.02,8.19,6.25,33.69,0.22,-0.25,-0.94,-0.01
7202350, 4.23,-0.94,-8.74,-0.01,-0.01,-0.00,8.19,6.25,33.69,0.22,-0.25,-0.94,-0.01
7218188, 4.08,-0.94,-8.86,0.00,-0.00,0.01,8.19,6.25,33.69,0.22,-0.25,-0.94,-0.01
7222631, 4.08,-0.94,-8.86,-0.00,-0.01,0.01,8.19,6.25,34.88,0.22,-0.25,-0.94,-0.01
7228084, 4.14,-0.98,-8.81,-0.00,-0.01,0.01,8.19,6.25,34.88,0.22,-0.25,-0.94,-0.01
7235486, 4.14,-0.94,-8.85,-0.00,0.00,-0.01,8.19,6.25,34.88,0.22,-0.25,-0.94,-0.01
7240716, 4.14,-0.94,-8.85,-0.00,0.00,-0.01,8.19,6.25,34.88,0.22,-0.25,-0.94,-0.01
7257387, 4.14,-0.92,-8.86,0.00,0.00,-0.00,8.19,6.25,34.88,0.22,-0.25,-0.94,-0.01
7265188, 4.15,-0.99,-8.81,0.00,0.01,0.00,8.19,6.25,34.88,0.22,-0.25,-0.94,-0.01
7269631, 4.15,-0.99,-8.81,0.00,0.01,0.00,8.19,6.25,34.88,0.22,-0.25,-0.94,-0.01
7275407, 4.14,-0.99,-8.83,-0.00,0.00,0.00,7.75,6.25,34.50,0.22,-0.25,-0.94,-0.01
7290589, 4.13,-0.98,-8.84,0.00,0.00,0.00,7.75,6.25,34.50,0.22,-0.25,-0.94,-0.01
7297177, 4.14,-0.98,-8.87,-0.00,0.00,-0.00,7.75,6.25,34.50,0.22,-0.25,-0.94,-0.01
7304162, 4.13,-0.95,-8.83,0.00,0.00,0.00,7.75,6.25,34.50,0.22,-0.25,-0.94,-0.01
7308817, 4.13,-0.95,-8.83,0.00,0.00,0.00,7.75,6.25,34.50,0.22,-0.25,-0.94,-0.01
7316428, 4.16,-0.93,-8.82,0.00,0.00,0.01,7.75,6.25,34.50,0.22,-0.25,-0.94,-0.01
7331084, 4.13,-0.96,-8.80,-0.00,0.00,0.01,8.56,6.00,34.06,0.22,-0.25,-0.94,-0.01
7337390, 4.13,-0.97,-8.83,0.00,0.00,0.00,8.56,6.00,34.06,0.22,-0.25,-0.94,-0.01
7344698, 4.15,-0.97,-8.86,0.00,0.00,0.00,8.56,6.00,34.06,0.22,-0.25,-0.94,-0.01
7370767, 4.14,-0.97,-8.82,0.00,-0.00,0.00,8.56,6.00,34.06,0.22,-0.25,-0.94,-0.01
7376766, 4.13,-0.96,-8.82,-0.00,0.00,-0.00,7.50,6.00,34.06,0.22,-0.25,-0.94,-0.01
7383443, 4.13,-0.96,-8.82,0.00,0.00,0.00,7.50,6.00,34.06,0.22,-0.25,-0.94,-0.01
7388547, 4.15,-0.95,-8.85,0.00,0.00,0.00,7.50,6.00,34.06,0.22,-0.25,-0.94,-0.01
7395972, 4.15,-1.02,-8.87,0.00,0.00,0.00,7.50,6.00,34.06,0.22,-0.25,-0.94,-0.01
7401540, 4.15,-1.02,-8.87,0.00,0.00,0.00,7.50,6.00,34.06,0.22,-0.25,-0.94,-0.01
7417871, 4.14,-0.92,-8.83,-0.00,-0.00,-0.01,7.50,6.00,34.06,0.22,-0.25,-0.94,-0.01
7422318, 4.14,-0.92,-8.83,0.00,0.00,-0.01,8.56,6.00,34.50,0.22,-0.25,-0.94,-0.01
7427794, 4.17,-0.95,-8.81,0.00,0.00,-0.01,8.56,6.00,34.50,0.22,-0.25,-0.94,-0.01
7435342, 4.11,-0.95,-8.82,0.00,-0.00,-0.00,8.56,6.00,34.50,0.22,-0.25,-0.94,-0.01
7440115, 4.11,-0.95,-8.82,0.00,-0.00,-0.00,8.56,6.00,34.50,0.22,-0.25,-0.94,-0.01
7457163, 4.14,-0.94,-8.81,0.00,0.00,-0.01,8.56,6.00,34.50,0.22,-0.25,-0.94,-0.01
7464199, 4.15,-0.97,-8.84,0.00,0.00,-0.00,8.56,6.00,34.50,0.22,-0.25,-0.94,-0.01
7469079, 4.15,-0.97,-8.84,0.00,0.00,-0.00,8.56,6.00,34.50,0.22,-0.25,-0.94,-0.01
7474464, 4.14,-0.95,-8.83,0.00,0.00,-0.00,8.19,6.00,33.69,0.22,-0.25,-0.94,-0.01
7489167, 4.15,-0.96,-8.84,-0.00,0.01,-0.00,8.19,6.00,33.69,0.22,-0.25,-0.94,-0.01
7496543, 4.16,-1.00,-8.85,-0.00,0.01,-0.00,8.19,6.00,33.69,0.22,-0.25,-0.94,-0.01
7502750, 4.16,-1.00,-8.85,-0.00,0.00,-0.01,8.19,6.00,33.69,0.22,-0.25,-0.94,-0.01
7508235, 4.13,-1.00,-8.83,-0.00,0.00,-0.01,8.19,6.00,33.69,0.22,-0.25,-0.94,-0.01
7515824, 4.13,-0.98,-8.81,0.00,0.00,-0.01,8.19,6.00,33.69,0.22,-0.25,-0.94,-0.01
7530450, 4.14,-0.99,-8.84,-0.00,0.00,-0.02,9.00,6.00,33.69,0.22,-0.25,-0.94,-0.01
7537162, 4.16,-0.97,-8.82,-0.00,0.01,-0.02,9.00,6.00,33.69,0.22,-0.25,-0.94,-0.01
7543788, 4.16,-0.97,-8.82,0.00,0.00,-0.02,9.00,6.00,33.69,0.22,-0.25,-0.94,-0.01
7548880, 4.16,-0.98,-8.87,0.00,0.00,-0.02,9.00,6.00,33.69,0.22,-0.25,-0.94,-0.01
7556394, 4.11,-0.98,-8.85,0.00,0.00,-0.02,9.00,6.00,33.69,0.22,-0.25,-0.94,-0.01
7562176, 4.11,-0.98,-8.85,0.00,0.00,-0.02,9.00,6.00,33.69,0.22,-0.25,-0.94,-0.01
7578361, 4.16,-0.96,-8.81,0.00,0.00,-0.02,9.00,4.75,32.88,0.22,-0.25,-0.94,-0.01
7586052, 4.15,-0.94,-8.83,0.00,-0.00,-0.02,9.00,4.75,32.88,0.22,-0.25,-0.94,-0.01
7591851, 4.15,-0.94,-8.83,0.00,-0.00,-0.02,9.00,4.75,32.88,0.22,-0.25,-0.94,-0.01
7597925, 4.15,-0.91,-8.85,-0.00,-0.00,-0.02,9.00,4.75,32.88,0.22,-0.25,-0.94,-0.01
7605514, 4.15,-0.94,-8.83,0.00,-0.00,-0.01,9.00,4.75,32.88,0.22,-0.25,-0.94,-0.01
7620830, 4.14,-0.97,-8.84,0.00,0.00,-0.00,9.00,4.75,32.88,0.22,-0.25,-0.94,-0.01
7626714, 4.16,-0.94,-8.82,0.00,0.00,-0.01,7.19,5.56,33.69,0.22,-0.25,-0.94,-0.01
7633310, 4.16,-0.94,-8.82,0.00,0.00,-0.01,7.19,5.56,33.69,0.22,-0.25,-0.94,-0.01
7638631, 4.14,-0.95,-8.81,0.00,0.00,-0.01,7.19,5.56,33.69,0.22,-0.25,-0.94,-0.01
7646101, 4.16,-0.97,-8.84,-0.00,0.00,-0.01,7.19,5.56,33.69,0.22,-0.25,-0.94,-0.01
7651882, 4.16,-0.97,-8.84,-0.00,0.00,-0.01,7.19,5.56,33.69,0.22,-0.25,-0.94,-0.01
7668260, 4.15,-0.97,-8.81,0.00,-0.00,-0.01,7.19,5.56,33.69,0.22,-0.25,-0.94,-0.01
7673135, 4.15,-0.97,-8.81,0.00,-0.00,-0.01,8.56,6.25,33.38,0.22,-0.25,-0.94,-0.01
7678483, 4.15,-0.92,-8.84,0.00,-0.00,-0.01,8.56,6.25,33.38,0.22,-0.25,-0.94,-0.01
7686148, 4.14,-0.93,-8.81,0.00,-0.00,-0.01,8.56,6.25,33.38,0.22,-0.25,-0.94,-0.01
7691840, 4.14,-0.93,-8.81,0.00,-0.00,-0.01,8.56,6.25,33.38,0.22,-0.25,-0.94,-0.01
7697981, 4.15,-0.96,-8.85,0.00,-0.00,-0.00,8.56,6.25,33.38,0.22,-0.25,-0.94,-0.01
7705566, 4.16,-0.94,-8.81,0.00,-0.00,-0.00,8.56,6.25,33.38,0.22,-0.25,-0.94,-0.01
7720676, 4.12,-0.96,-8.83,0.00,-0.01,-0.01,8.56,6.25,33.38,0.22,-0.25,-0.94,-0.01
7726513, 4.14,-0.91,-8.82,0.00,-0.00,-0.01,7.75,6.00,35.25,0.22,-0.25,-0.94,-0.01
7732753, 4.14,-0.91,-8.82,-0.00,-0.00,-0.01,7.75,6.00,35.25,0.22,-0.25,-0.94,-0.01
7738378, 4.17,-0.95,-8.84,-0.00,-0.00,-0.01,7.75,6.00,35.25,0.22,-0.25,-0.94,-0.01
7745798, 4.13,-0.92,-8.86,0.00,-0.00,-0.00,7.75,6.00,35.25,0.22,-0.25,-0.94,-0.01
7761531, 4.14,-0.90,-8.84,-0.00,-0.01,0.01,7.75,6.00,35.25,0.22,-0.25,-0.94,-0.01
7777919, 4.15,-0.93,-8.81,-0.00,-0.00,0.02,8.19,6.69,35.25,0.22,-0.25,-0.94,-0.01
7785664, 4.14,-0.92,-8.83,-0.00,-0.00,0.02,8.19,6.69,35.25,0.22,-0.25,-0.94,-0.01
7790604, 4.14,-0.92,-8.83,-0.00,-0.00,0.02,8.19,6.69,35.25,0.22,-0.25,-0.94,-0.01
7797361, 4.16,-0.95,-8.82,-0.00,-0.01,0.03,8.19,6.69,35.25,0.22,-0.25,-0.94,-0.01
7804226, 4.16,-0.95,-8.82,-0.00,-0.01,0.02,8.19,6.69,35.25,0.22,-0.25,-0.94,-0.01
7819307, 4.14,-0.97,-8.83,-0.00,-0.01,0.03,8.19,6.69,35.25,0.22,-0.25,-0.94,-0.01
7824667, 4.16,-1.02,-8.82,-0.00,-0.00,0.02,7.75,6.69,33.00,0.22,-0.25,-0.94,-0.01
7829329, 4.16,-1.02,-8.82,-0.00,-0.00,0.02,7.75,6.69,33.00,0.22,-0.25,-0.94,-0.01
7836856, 4.14,-1.02,-8.82,-0.00,-0.01,0.01,7.75,6.69,33.00,0.22,-0.25,-0.94,-0.01
7843326, 4.14,-1.02,-8.82,-0.00,-0.00,0.00,7.75,6.69,33.00,0.22,-0.25,-0.94,-0.01
7858919, 4.12,-1.00,-8.83,-0.00,-0.00,-0.00,7.75,6.69,33.00,0.22,-0.25,-0.94,-0.01
7866915, 4.12,-0.97,-8.82,-0.00,-0.00,-0.00,7.75,6.69,33.00,0.22,-0.25,-0.94,-0.01
7871359, 4.12,-0.97,-8.82,-0.00,-0.00,-0.00,7.75,6.69,33.00,0.22,-0.25,-0.94,-0.01
7887540, 4.15,-0.98,-8.84,0.00,-0.00,-0.00,7.75,6.25,34.06,0.22,-0.25,-0.94,-0.01
7894943, 4.12,-0.97,-8.86,-0.00,-0.00,-0.01,7.75,6.25,34.06,0.22,-0.25,-0.94,-0.01
7899403, 4.12,-0.97,-8.86,-0.00,-0.00,-0.01,7.75,6.25,34.06,0.22,-0.25,-0.94,-0.01
7906808, 4.12,-0.96,-8.86,-0.00,0.00,-0.01,7.75,6.25,34.06,0.22,-0.25,-0.94,-0.01
7913127, 4.12,-0.96,-8.86,-0.00,-0.00,-0.01,7.75,6.25,34.06,0.22,-0.25,-0.94,-0.01
7929111, 4.14,-0.99,-8.88,-0.00,0.00,-0.01,9.00,6.00,34.19,0.22,-0.25,-0.94,-0.01
7936807, 4.12,-0.99,-8.84,0.00,0.00,-0.02,9.00,6.00,34.19,0.22,-0.25,-0.94,-0.01
7942966, 4.12,-0.99,-8.84,0.00,0.00,-0.02,9.00,6.00,34.19,0.22,-0.25,-0.94,-0.01
7948564, 4.16,-0.97,-8.86,0.00,0.00,-0.02,9.00,6.00,34.19,0.22,-0.25,-0.94,-0.01
7956061, 4.11,-0.99,-8.84,-0.00,0.00,-0.02,9.00,6.00,34.19,0.22,-0.25,-0.94,-0.01
7971230, 4.10,-0.88,-8.82,0.00,-0.00,-0.02,9.00,6.00,34.19,0.22,-0.25,-0.94,-0.01
7977306, 4.15,-0.91,-8.81,0.00,0.00,-0.00,8.56,5.56,34.50,0.22,-0.25,-0.94,-0.01
7983838, 4.15,-0.91,-8.81,0.00,0.00,-0.01,8.56,5.56,34.50,0.22,-0.25,-0.94,-0.01
7989051, 4.17,-0.98,-8.80,0.00,0.00,-0.01,8.56,5.56,34.50,0.22,-0.25,-0.94,-0.01
7996371, 4.15,-0.96,-8.86,0.00,0.00,-0.01,8.56,5.56,34.50,0.22,-0.25,-0.94,-0.01
8001975, 4.15,-0.96,-8.86,0.00,0.00,-0.01,8.56,5.56,34.50,0.22,-0.25,-0.94,-0.01
8018417, 4.14,-0.94,-8.83,0.00,0.00,-0.01,8.56,5.56,34.50,0.22,-0.25,-0.94,-0.01
8022862, 4.14,-0.94,-8.83,-0.00,0.00,-0.01,8.19,6.00,33.38,0.22,-0.25,-0.94,-0.01
8028495, 4.14,-0.97,-8.85,-0.00,0.00,-0.01,8.19,6.00,33.38,0.22,-0.25,-0.94,-0.01
8036168, 4.15,-0.95,-8.80,0.00,0.00,-0.01,8.19,6.00,33.38,0.22,-0.25,-0.94,-0.01
8041581, 4.15,-0.95,-8.80,0.00,0.00,-0.01,8.19,6.00,33.38,0.22,-0.25,-0.94,-0.01
8048014, 4.16,-0.92,-8.83,-0.00,0.00,-0.01,8.19,6.00,33.38,0.22,-0.25,-0.94,-0.01
8055366, 4.15,-0.97,-8.83,0.00,0.00,-0.01,8.19,6.00,33.38,0.22,-0.25,-0.94,-0.01
8070051, 4.15,-0.97,-8.81,0.00,0.00,-0.01,8.19,6.00,33.38,0.22,-0.25,-0.94,-0.01
8076142, 4.15,-0.97,-8.83,0.00,0.00,-0.01,8.56,5.56,34.19,0.22,-0.25,-0.94,-0.01
8081651, 4.15,-0.97,-8.83,0.00,0.00,-0.01,8.56,5.56,34.19,0.22,-0.25,-0.94,-0.01
8088093, 4.15,-0.95,-8.83,0.00,0.01,-0.01,8.56,5.56,34.19,0.22,-0.25,-0.94,-0.01
8095694, 4.16,-0.90,-8.86,0.00,0.00,-0.00,8.56,5.56,34.19,0.22,-0.25,-0.94,-0.01
8100573, 4.16,-0.90,-8.86,0.00,0.00,-0.00,8.56,5.56,34.19,0.22,-0.25,-0.94,-0.01
8117757, 4.15,-0.98,-8.83,0.00,0.00,-0.00,8.56,5.56,34.19,0.22,-0.25,-0.94,-0.01
8122211, 4.15,-0.98,-8.83,0.00,0.00,-0.00,7.50,6.25,34.50,0.22,-0.25,-0.94,-0.01
8127925, 4.13,-0.95,-8.82,-0.00,0.00,-0.01,7.50,6.25,34.50,0.22,-0.25,-0.94,-0.01
8135151, 4.13,-0.95,-8.80,-0.00,-0.00,-0.01,7.50,6.25,34.50,0.22,-0.25,-0.94,-0.01
8149851, 4.14,-0.92,-8.84,0.00,0.00,-0.01,7.50,6.25,34.50,0.22,-0.25,-0.94,-0.01
8157300, 4.14,-0.94,-8.84,0.00,0.00,-0.00,7.50,6.25,34.50,0.22,-0.25,-0.94,-0.01
8163924, 4.14,-0.94,-8.84,0.00,0.00,-0.00,7.50,6.25,34.50,0.22,-0.25,-0.94,-0.01
8169310, 4.15,-0.96,-8.82,0.00,0.00,-0.00,7.50,6.25,34.50,0.22,-0.25,-0.94,-0.01
8196266, 4.16,-0.90,-8.81,0.00,0.00,0.00,7.75,6.00,34.88,0.22,-0.25,-0.94,-0.01
8201652, 4.16,-0.90,-8.81,0.00,0.00,0.00,7.75,6.00,34.88,0.22,-0.25,-0.94,-0.01
8208059, 4.16,-0.93,-8.84,0.00,0.00,0.00,7.75,6.00,34.88,0.22,-0.25,-0.94,-0.01
8215440, 4.08,-0.95,-8.87,0.01,0.00,-0.01,7.75,6.00,34.88,0.22,-0.25,-0.94,-0.01
8219925, 4.08,-0.95,-8.87,0.01,0.00,-0.01,7.75,6.00,34.88,0.22,-0.25,-0.94,-0.01
8235208, 4.12,-0.97,-8.87,0.00,-0.01,0.01,7.75,6.25,33.69,0.22,-0.25,-0.94,-0.01
8239717, 4.12,-0.97,-8.87,0.00,-0.01,0.01,7.75,6.25,33.69,0.22,-0.25,-0.94,-0.01
8247161, 4.16,-0.92,-8.79,0.00,-0.01,-0.01,7.75,6.25,33.69,0.22,-0.25,-0.94,-0.01
8253259, 4.16,-0.92,-8.79,0.01,-0.01,-0.01,7.75,6.25,33.69,0.22,-0.25,-0.94,-0.01
8258858, 4.13,-0.93,-8.85,0.01,-0.01,-0.01,7.75,6.25,33.69,0.22,-0.25,-0.94,-0.01
8266605, 4.21,-0.97,-8.82,-0.00,-0.01,0.00,7.75,6.25,33.69,0.22,-0.25,-0.94,-0.01
8281243, 4.14,-0.95,-8.78,0.00,-0.01,-0.01,8.56,5.19,33.38,0.22,-0.25,-0.94,-0.01
8287999, 4.09,-0.95,-8.86,0.00,-0.01,-0.01,8.56,5.19,33.38,0.22,-0.25,-0.94,-0.01
8295263, 4.17,-0.96,-8.88,0.00,-0.01,-0.01,8.56,5.19,33.38,0.22,-0.25,-0.94,-0.01
8299769, 4.17,-0.96,-8.88,0.00,-0.01,-0.01,8.56,5.19,33.38,0.22,-0.25,-0.94,-0.01
8307166, 4.09,-0.95,-8.84,0.00,-0.01,-0.01,8.56,5.19,33.38,0.22,-0.25,-0.94,-0.01
8313652, 4.09,-0.95,-8.84,0.00,-0.01,-0.00,8.56,5.19,33.38,0.22,-0.25,-0.94,-0.01
8329518, 4.13,-0.95,-8.85,0.00,-0.01,-0.01,8.56,5.19,33.38,0.22,-0.25,-0.94,-0.01
8337134, 4.11,-0.92,-8.82,0.00,-0.01,-0.01,8.56,5.19,33.38,0.22,-0.25,-0.94,-0.01
8343504, 4.11,-0.92,-8.82,0.00,-0.01,-0.01,8.56,5.19,33.38,0.22,-0.25,-0.94,-0.01
8349111, 4.14,-0.95,-8.83,0.00,-0.01,-0.01,8.56,5.19,33.38,0.22,-0.25,-0.94,-0.01
8356694, 4.13,-0.95,-8.84,0.00,-0.01,0.00,8.56,5.19,33.38,0.22,-0.25,-0.94,-0.01
8362363, 4.13,-0.95,-8.84,0.00,-0.01,0.00,8.56,5.19,33.38,0.22,-0.25,-0.94,-0.01
8378940, 4.13,-0.92,-8.85,0.00,-0.01,0.00,8.19,6.00,34.50,0.22,-0.25,-0.94,-0.01
8386770, 4.14,-0.97,-8.85,0.00,-0.01,0.00,8.19,6.00,34.50,0.22,-0.25,-0.94,-0.01
8392037, 4.14,-0.97,-8.85,0.00,-0.01,0.00,8.19,6.00,34.50,0.22,-0.25,-0.94,-0.01
8398317, 4.13,-0.98,-8.86,0.00,-0.01,0.01,8.19,6.00,34.50,0.22,-0.25,-0.94,-0.01
8405573, 4.14,-0.97,-8.85,0.00,-0.01,0.01,8.19,6.00,34.50,0.22,-0.25,-0.94,-0.01
8420239, 4.13,-0.94,-8.87,-0.00,-0.01,0.00,8.19,6.00,34.50,0.22,-0.25,-0.94,-0.01
8425553, 4.12,-1.00,-8.92,0.00,-0.01,0.00,8.56,6.25,33.69,0.22,-0.25,-0.94,-0.01
8429998, 4.12,-1.00,-8.92,0.00,-0.01,0.00,8.56,6.25,33.69,0.22,-0.25,-0.94,-0.01
8437379, 4.15,-0.90,-8.74,-0.01,-0.01,0.01,8.56,6.25,33.69,0.22,-0.25,-0.94,-0.01
8443408, 4.15,-0.90,-8.74,-0.00,-0.01,0.01,8.56,6.25,33.69,0.22,-0.25,-0.94,-0.01
8459287, 4.15,-0.90,-8.81,-0.00,-0.01,0.00,8.56,6.25,33.69,0.22,-0.25,-0.94,-0.01
8467285, 4.11,-0.96,-8.89,0.00,-0.01,0.00,8.56,6.25,33.69,0.22,-0.25,-0.94,-0.01
8471726, 4.11,-0.96,-8.89,0.00,-0.01,0.00,8.56,6.25,33.69,0.22,-0.25,-0.94,-0.01
8487546, 4.07,-0.95,-8.89,0.01,-0.01,0.01,7.19,6.69,34.50,0.22,-0.25,-0.94,-0.01
8493829, 4.07,-0.95,-8.89,-0.00,-0.01,-0.00,7.19,6.69,34.50,0.22,-0.25,-0.94,-0.01
8499311, 4.12,-0.90,-8.84,-0.00,-0.01,-0.00,7.19,6.69,34.50,0.22,-0.25,-0.94,-0.01
8506677, 4.13,-0.96,-8.84,0.00,-0.01,0.00,7.19,6.69,34.50,0.22,-0.25,-0.94,-0.01
8511923, 4.13,-0.96,-8.84,0.00,-0.01,0.00,7.19,6.69,34.50,0.22,-0.25,-0.94,-0.01
8518518, 4.12,-1.00,-8.84,0.00,-0.01,0.01,7.19,6.69,34.50,0.22,-0.25,-0.94,-0.01
8533202, 4.12,-0.99,-8.84,-0.00,-0.01,0.00,7.19,5.56,34.50,0.22,-0.25,-0.94,-0.01
8539004, 4.12,-0.98,-8.78,-0.00,-0.01,0.00,7.19,5.56,34.50,0.22,-0.25,-0.94,-0.01
8546354, 4.14,-0.97,-8.81,-0.00,-0.01,-0.00,7.19,5.56,34.50,0.22,-0.25,-0.94,-0.01
8551308, 4.14,-0.97,-8.81,-0.00,-0.01,-0.00,7.19,5.56,34.50,0.22,-0.25,-0.94,-0.01
8558026, 4.12,-0.97,-8.82,-0.00,-0.01,-0.00,7.19,5.56,34.50,0.22,-0.25,-0.94,-0.01
8564868, 4.12,-0.97,-8.82,-0.00,-0.02,-0.00,7.19,5.56,34.50,0.22,-0.25,-0.94,-0.00
8580176, 4.10,-0.89,-8.88,-0.00,-0.02,-0.00,8.19,6.69,33.38,0.22,-0.25,-0.94,-0.00
8587538, 4.14,-0.85,-8.83,-0.01,-0.02,-0.01,8.19,6.69,33.38,0.22,-0.25,-0.94,-0.00
8603871, 4.08,-0.86,-8.82,-0.00,-0.02,0.02,8.19,6.69,33.38,0.22,-0.25,-0.94,-0.00
8609356, 4.11,-0.95,-8.86,-0.00,-0.02,0.02,8.19,6.69,33.38,0.22,-0.25,-0.94,-0.00
8617019, 4.11,-0.99,-8.85,0.00,-0.02,0.03,8.19,6.69,33.38,0.22,-0.25,-0.94,-0.00
8621458, 4.11,-0.99,-8.85,0.00,-0.02,0.03,8.19,6.69,33.38,0.22,-0.25,-0.94,-0.00
8636347, 4.10,-0.97,-8.90,-0.01,-0.02,0.02,7.75,6.00,34.50,0.22,-0.25,-0.94,-0.00
8640793, 4.10,-0.97,-8.90,-0.01,-0.02,0.02,7.75,6.00,34.50,0.22,-0.25,-0.94,-0.00
8647986, 4.08,-1.00,-8.88,-0.01,-0.03,0.02,7.75,6.00,34.50,0.22,-0.25,-0.94,-0.00
8654810, 4.08,-1.00,-8.88,-0.00,-0.02,0.03,7.75,6.00,34.50,0.22,-0.25,-0.94,-0.00
8659840, 4.07,-1.00,-8.90,-0.00,-0.02,0.03,7.75,6.00,34.50,0.22,-0.25,-0.94,-0.00
8667498, 4.06,-0.98,-8.88,-0.01,-0.02,0.02,7.75,6.00,34.50,0.22,-0.25,-0.94,-0.00
8682161, 4.08,-0.94,-8.85,-0.00,-0.02,0.01,8.19,6.06,33.00,0.22,-0.25,-0.94,-0.00
8688611, 4.09,-0.96,-8.91,-0.00,-0.02,0.02,8.19,6.06,33.00,0.22,-0.25,-0.94,-0.00
8696013, 4.11,-0.89,-8.87,-0.01,-0.02,0.02,8.19,6.06,33.00,0.22,-0.25,-0.94,-0.00
8700453, 4.11,-0.89,-8.87,-0.01,-0.02,0.02,8.19,6.06,33.00,0.22,-0.25,-0.94,-0.00
8707731, 4.05,-0.92,-8.93,-0.01,-0.01,0.03,8.19,6.06,33.00,0.22,-0.25,-0.94,-0.00
8714294, 4.05,-0.92,-8.93,-0.01,-0.00,0.04,8.19,6.06,33.00,0.22,-0.25,-0.94,-0.00
8730009, 4.10,-1.05,-8.89,-0.01,-0.01,0.04,8.19,6.06,34.19,0.22,-0.25,-0.94,-0.00
8734450, 4.10,-1.05,-8.89,-0.01,-0.01,0.04,8.19,6.06,34.19,0.22,-0.25,-0.94,-0.00
8739115, 4.03,-0.87,-8.94,-0.01,-0.00,0.01,8.19,6.06,34.19,0.22,-0.25,-0.94,-0.00
8746084, 4.09,-0.86,-8.88,-0.00,0.00,0.00,8.19,6.06,34.19,0.22,-0.25,-0.94,-0.00
8760718, 4.08,-1.09,-8.90,0.00,0.00,0.02,8.19,6.06,34.19,0.22,-0.25,-0.94,-0.00
8768148, 4.05,-1.03,-8.94,0.00,0.01,0.03,8.19,6.06,34.19,0.22,-0.25,-0.94,-0.00
8772594, 4.05,-1.03,-8.94,0.00,0.01,0.03,8.19,6.06,34.19,0.22,-0.25,-0.94,-0.00
8787472, 4.04,-0.95,-8.92,0.00,0.02,0.02,9.00,5.25,34.19,0.22,-0.25,-0.94,-0.00
8793118, 4.04,-0.95,-8.92,0.00,0.02,0.02,9.00,5.25,34.19,0.22,-0.25,-0.94,-0.00
8799027, 4.09,-1.00,-8.89,-0.00,0.02,0.02,9.00,5.25,34.19,0.22,-0.25,-0.94,-0.00
8806619, 4.14,-1.07,-8.89,0.00,0.03,0.02,9.00,5.25,34.19,0.22,-0.25,-0.94,-0.00
8811176, 4.14,-1.07,-8.89,0.00,0.03,0.02,9.00,5.25,34.19,0.22,-0.25,-0.94,-0.00
8818359, 4.08,-1.04,-8.93,0.00,0.03,0.02,9.00,5.25,34.19,0.22,-0.25,-0.94,-0.00
8833015, 4.13,-1.01,-8.92,-0.00,0.03,0.00,9.00,6.75,35.00,0.22,-0.25,-0.94,-0.00
8837657, 4.08,-1.02,-8.95,0.00,0.04,-0.00,9.00,6.75,35.00,0.22,-0.25,-0.94,-0.00
8842756, 4.08,-1.02,-8.95,0.00,0.04,-0.00,9.00,6.75,35.00,0.22,-0.25,-0.94,-0.00
8848912, 4.07,-1.09,-8.95,0.00,0.04,-0.01,9.00,6.75,35.00,0.22,-0.25,-0.94,-0.00
8856537, 4.11,-1.07,-8.96,0.01,0.06,-0.02,9.00,6.75,35.00,0.22,-0.25,-0.94,-0.00
8871215, 4.08,-1.08,-8.98,0.01,0.08,-0.03,9.00,6.75,35.00,0.22,-0.25,-0.94,-0.00
8875656, 4.08,-1.08,-8.98,0.00,0.11,-0.04,7.50,6.06,34.19,0.22,-0.25,-0.94,-0.00
8880210, 4.08,-0.85,-8.98,0.00,0.11,-0.04,7.50,6.06,34.19,0.22,-0.25,-0.94,-0.00
8894892, 3.91,-0.74,-8.97,-0.03,0.24,-0.01,7.50,6.06,34.19,0.23,-0.25,-0.94,-0.01
8900002, 4.10,-1.03,-9.04,-0.03,0.24,-0.01,7.50,6.06,34.19,0.23,-0.25,-0.94,-0.01
8907063, 4.13,-0.80,-9.05,-0.04,0.33,0.03,7.50,6.06,34.19,0.23,-0.25,-0.94,-0.01
8911502, 4.13,-0.80,-9.05,-0.04,0.33,0.03,7.50,6.06,34.19,0.23,-0.26,-0.94,-0.01
8920000, 4.09,-0.85,-8.98,-0.04,0.35,0.09,7.50,6.06,34.19,0.23,-0.26,-0.94,-0.01
8934677, 4.09,-0.77,-9.12,-0.05,0.35,0.06,7.50,6.37,33.38,0.23,-0.26,-0.94,-0.01
8940004, 4.14,-0.52,-9.18,-0.06,0.36,0.08,7.50,6.37,33.38,0.23,-0.26,-0.94,-0.01
8950000, 4.04,-0.67,-9.27,-0.07,0.39,0.14,7.50,6.37,33.38,0.24,-0.26,-0.94,-0.01
8960004, 3.71,-0.81,-9.20,-0.11,0.44,0.23,7.50,6.37,33.38,0.24,-0.26,-0.94,-0.01
8970000, 3.85,-0.79,-9.02,-0.24,0.67,0.32,7.50,6.37,33.38,0.24,-0.26,-0.94,-0.01
8980004, 3.02,-1.16,-9.79,-0.53,0.94,0.35,6.37,6.00,34.50,0.24,-0.26,-0.93,-0.01
8990005, 2.22,-1.25,-9.41,-0.58,1.27,0.35,6.37,6.00,34.50,0.26,-0.27,-0.93,-0.02
9000004, 4.11,-1.33,-9.23,-0.93,2.42,0.42,6.37,6.00,34.50,0.27,-0.27,-0.92,-0.03
9029197, 9.51,0.21,-9.11,-0.62,2.97,0.51,5.25,5.19,34.38,0.30,-0.27,-0.91,-0.05
9033694, 9.51,0.21,-9.11,-0.62,2.97,0.51,5.25,5.19,34.38,0.31,-0.28,-0.91,-0.05
9038353, 7.95,-0.31,-9.26,-0.48,2.29,0.51,5.25,5.19,34.38,0.31,-0.28,-0.91,-0.05
9045109, 7.95,-0.31,-9.26,-0.57,2.27,0.50,5.25,5.19,34.38,0.32,-0.28,-0.91,-0.06
9060394, 6.76,0.63,-9.83,-0.78,2.11,0.35,5.25,5.19,34.38,0.33,-0.28,-0.90,-0.07
9068158, 6.99,0.44,-9.47,-0.82,1.87,0.39,5.25,5.19,34.38,0.33,-0.28,-0.90,-0.07
9072599, 6.99,0.44,-9.47,-0.82,1.87,0.39,5.25,5.19,34.38,0.33,-0.28,-0.90,-0.07
9087395, 7.82,0.72,-9.31,-0.36,1.68,0.48,-0.19,3.56,32.75,0.35,-0.29,-0.89,-0.08
9093241, 7.82,0.72,-9.31,-0.36,1.68,0.48,-0.19,3.56,32.75,0.35,-0.29,-0.89,-0.08
9100004, 7.58,0.43,-8.85,-0.08,1.54,0.46,-0.19,3.56,32.75,0.36,-0.29,-0.88,-0.08
9110005, 7.67,0.17,-8.71,0.05,1.46,0.40,-0.19,3.56,32.75,0.36,-0.29,-0.88,-0.08
9120005, 7.38,-0.17,-8.83,-0.00,1.33,0.33,-0.19,3.56,32.75,0.36,-0.29,-0.88,-0.08
9130000, 4.58,-0.49,-11.67,0.12,1.23,0.36,-7.00,0.37,33.50,0.37,-0.29,-0.88,-0.08
9140004, 10.33,-5.86,-13.16,0.19,0.99,0.43,-7.00,0.37,33.50,0.37,-0.30,-0.87,-0.08
9150005, 15.18,0.80,-3.64,-0.86,-0.06,1.13,-7.00,0.37,33.50,0.37,-0.30,-0.87,-0.09
9160004, -0.98,9.63,-7.84,-1.68,0.44,0.14,-7.00,0.37,33.50,0.37,-0.30,-0.87,-0.10
9170004, 5.83,9.99,-7.97,-1.66,1.07,-0.72,-7.00,0.37,33.50,0.37,-0.30,-0.87,-0.10
9180000, 6.66,6.87,-7.16,-0.35,0.85,-1.36,-10.88,1.00,34.38,0.38,-0.30,-0.87,-0.10
9190000, 5.21,3.57,-6.70,1.11,1.00,-1.19,-10.88,1.00,34.38,0.39,-0.28,-0.87,-0.10
9200000, 3.22,-0.32,-7.96,0.92,1.13,-0.57,-10.88,1.00,34.38,0.39,-0.28,-0.87,-0.10
9210004, 4.28,1.56,-7.48,0.47,1.08,-0.94,-10.88,1.00,34.38,0.40,-0.27,-0.87,-0.11
9220005, 4.15,2.46,-7.36,0.20,1.06,-1.33,-10.88,1.00,34.38,0.40,-0.27,-0.87,-0.11
9230005, 3.69,2.32,-7.42,0.03,1.03,-1.30,-13.00,-1.06,34.25,0.40,-0.27,-0.87,-0.11
9240004, 4.33,1.45,-7.56,0.16,0.98,-1.45,-13.00,-1.06,34.25,0.40,-0.26,-0.87,-0.11
9250004, 4.39,2.01,-7.68,0.28,0.88,-1.88,-13.00,-1.06,34.25,0.41,-0.24,-0.87,-0.12
9260000, 4.20,2.02,-7.98,0.27,0.75,-1.82,-13.00,-1.06,34.25,0.41,-0.24,-0.87,-0.12
9270004, 4.92,1.05,-7.99,0.16,0.63,-1.50,-13.00,-1.06,34.25,0.41,-0.24,-0.87,-0.12
9280000, 4.94,0.94,-8.00,0.14,0.46,-1.35,-15.75,-2.06,32.56,0.41,-0.23,-0.87,-0.13
9290004, 4.80,1.00,-8.05,0.09,0.25,-1.38,-15.75,-2.06,32.56,0.41,-0.22,-0.87,-0.13
9300000, 4.91,1.13,-8.04,-0.01,0.05,-1.33,-15.75,-2.06,32.56,0.41,-0.22,-0.87,-0.13
9310005, 5.08,1.36,-7.72,-0.10,-0.15,-1.16,-15.75,-2.06,32.56,0.41,-0.21,-0.88,-0.13
9320000, 4.94,1.38,-7.62,-0.14,-0.36,-0.98,-15.75,-2.06,32.56,0.41,-0.21,-0.88,-0.14
9330004, 4.52,1.32,-7.49,-0.15,-0.54,-0.85,-17.06,-3.50,31.50,0.41,-0.21,-0.88,-0.14
9340000, 4.30,1.33,-7.30,-0.10,-0.68,-0.69,-17.06,-3.50,31.50,0.40,-0.20,-0.88,-0.14
9350005, 4.30,0.76,-7.21,-0.08,-0.78,-0.52,-17.06,-3.50,31.50,0.39,-0.20,-0.89,-0.14
9360000, 4.42,0.70,-7.16,-0.07,-0.85,-0.42,-17.06,-3.50,31.50,0.39,-0.20,-0.89,-0.14
9370005, 4.50,0.79,-7.09,-0.12,-0.93,-0.41,-17.06,-3.50,31.50,0.39,-0.20,-0.89,-0.14
9380004, 4.48,1.09,-6.83,-0.17,-1.03,-0.42,-17.25,-4.06,33.69,0.39,-0.20,-0.89,-0.14
9390000, 4.30,1.06,-6.92,-0.19,-1.09,-0.46,-17.25,-4.06,33.69,0.38,-0.20,-0.89,-0.14
9400000, 4.73,1.20,-6.89,-0.18,-1.11,-0.49,-17.25,-4.06,33.69,0.37,-0.20,-0.89,-0.14
9410000, 5.28,1.30,-6.82,-0.14,-1.11,-0.50,-17.25,-4.06,33.69,0.37,-0.20,-0.90,-0.14
9420000, 5.06,1.16,-6.90,-0.06,-1.14,-0.54,-17.25,-4.06,33.69,0.36,-0.19,-0.90,-0.14
9430005, 4.98,0.99,-6.83,0.04,-1.15,-0.60,-16.19,-4.50,34.56,0.36,-0.19,-0.90,-0.14
9440000, 5.03,0.95,-6.64,0.13,-1.15,-0.65,-16.19,-4.50,34.56,0.35,-0.19,-0.90,-0.14
9450005, 4.90,0.88,-6.73,0.25,-1.12,-0.69,-16.19,-4.50,34.56,0.35,-0.19,-0.91,-0.14
9460000, 5.15,0.75,-7.17,0.38,-1.06,-0.70,-16.19,-4.50,34.56,0.34,-0.19,-0.91,-0.14
9470005, 5.71,0.51,-7.84,0.50,-0.98,-0.70,-16.19,-4.50,34.56,0.34,-0.18,-0.91,-0.14
9480000, 6.79,0.40,-8.44,0.55,-0.88,-0.67,-14.56,-5.87,35.38,0.34,-0.18,-0.92,-0.14
9490005, 8.21,0.30,-8.86,0.58,-0.88,-0.63,-14.56,-5.87,35.38,0.33,-0.18,-0.92,-0.13
9507817, 8.96,0.32,-8.47,0.61,-1.53,-0.99,-14.56,-5.87,35.38,0.32,-0.17,-0.92,-0.13
9513735, 8.96,0.32,-8.47,0.61,-1.53,-0.99,-14.56,-5.87,35.38,0.31,-0.16,-0.93,-0.13
9520056, 6.51,0.04,-8.10,0.62,-1.81,-1.05,-14.56,-5.87,35.38,0.31,-0.16,-0.93,-0.13
9534692, 5.07,-0.68,-7.80,0.62,-1.81,-0.96,-13.69,-4.56,37.00,0.30,-0.15,-0.94,-0.12
9540001, 5.77,-0.96,-7.89,0.61,-1.66,-0.90,-13.69,-4.56,37.00,0.30,-0.15,-0.94,-0.12
9550000, 6.21,-1.12,-7.98,0.60,-1.51,-0.85,-13.69,-4.56,37.00,0.29,-0.15,-0.94,-0.12
9560000, 6.54,-1.10,-8.15,0.52,-1.43,-0.78,-13.69,-4.56,37.00,0.28,-0.15,-0.94,-0.12
9570000, 6.50,-1.11,-8.10,0.44,-1.42,-0.73,-13.69,-4.56,37.00,0.28,-0.14,-0.94,-0.11
9580000, 6.28,-1.16,-7.98,0.40,-1.42,-0.65,-9.06,-3.00,38.06,0.27,-0.14,-0.95,-0.11
9590005, 6.45,-1.20,-7.92,0.37,-1.39,-0.53,-9.06,-3.00,38.06,0.26,-0.14,-0.95,-0.11
9600005, 6.81,-1.12,-7.91,0.31,-1.34,-0.38,-9.06,-3.00,38.06,0.26,-0.14,-0.95,-0.11
9610004, 7.32,-0.66,-7.84,0.24,-1.31,-0.22,-9.06,-3.00,38.06,0.25,-0.14,-0.95,-0.11
9620005, 7.55,-0.12,-7.81,0.17,-1.30,-0.05,-9.06,-3.00,38.06,0.24,-0.14,-0.95,-0.10
9630004, 7.50,0.14,-7.76,0.16,-1.33,0.11,-5.75,-2.87,40.06,0.24,-0.14,-0.96,-0.10
9640004, 7.00,-0.59,-7.39,0.25,-1.36,0.27,-5.75,-2.87,40.06,0.23,-0.14,-0.96,-0.10
9650004, 7.06,-1.04,-7.12,0.31,-1.34,0.43,-5.75,-2.87,40.06,0.23,-0.14,-0.96,-0.10
9660004, 7.32,-1.18,-6.97,0.27,-1.28,0.55,-5.75,-2.87,40.06,0.22,-0.15,-0.96,-0.09
9670004, 7.96,-0.78,-7.12,0.12,-1.18,0.59,-5.75,-2.87,40.06,0.22,-0.15,-0.96,-0.09
9680000, 8.72,0.52,-6.29,-0.04,-1.09,0.57,-4.00,-3.19,41.19,0.21,-0.15,-0.96,-0.09
9690004, 7.77,0.72,-5.69,-0.01,-1.09,0.57,-4.00,-3.19,41.19,0.21,-0.15,-0.96,-0.09
9700000, 6.89,0.57,-5.36,0.09,-1.03,0.56,-4.00,-3.19,41.19,0.20,-0.16,-0.96,-0.09
9710000, 6.75,0.49,-5.03,0.19,-0.85,0.55,-4.00,-3.19,41.19,0.20,-0.16,-0.96,-0.09
9720004, 7.53,0.54,-4.70,0.23,-0.62,0.51,-4.00,-3.19,41.19,0.20,-0.16,-0.96,-0.08
9730000, 7.63,0.61,-4.61,0.23,-0.42,0.45,-0.75,-2.69,41.25,0.19,-0.16,-0.96,-0.08
9740005, 7.66,0.65,-4.48,0.21,-0.28,0.37,-0.75,-2.69,41.25,0.19,-0.17,-0.96,-0.08
9750000, 7.67,0.68,-4.54,0.19,-0.16,0.25,-0.75,-2.69,41.25,0.19,-0.17,-0.96,-0.08
9760004, 7.87,0.80,-4.62,0.13,-0.01,0.15,-0.75,-2.69,41.25,0.19,-0.17,-0.96,-0.08
9770005, 7.94,0.67,-4.64,0.08,0.12,0.07,-0.75,-2.69,41.25,0.19,-0.17,-0.96,-0.08
9780005, 7.85,2.12,-5.19,0.15,0.18,-0.01,-0.06,-1.75,42.25,0.19,-0.17,-0.96,-0.08
9790000, 3.45,1.62,-3.04,1.05,0.44,0.09,-0.06,-1.75,42.25,0.20,-0.17,-0.96,-0.07
9800000, -0.74,0.88,-10.34,1.68,1.20,0.32,-0.06,-1.75,42.25,0.20,-0.17,-0.96,-0.07
9810000, 0.90,0.41,-15.03,1.34,1.50,0.22,-0.06,-1.75,42.25,0.21,-0.17,-0.96,-0.06
9820004, 1.95,-0.87,-16.62,1.34,1.33,0.20,-0.06,-1.75,42.25,0.22,-0.17,-0.96,-0.06
9830005, 6.53,0.76,-13.02,0.16,1.53,0.40,-1.50,-0.37,42.69,0.23,-0.17,-0.96,-0.06
9840000, 10.73,2.17,-7.98,-0.63,1.43,0.77,-1.50,-0.37,42.69,0.23,-0.17,-0.96,-0.06
9850004, 11.42,1.17,-4.54,-0.37,1.38,0.84,-1.50,-0.37,42.69,0.24,-0.17,-0.95,-0.06
9860000, 10.36,1.43,-5.92,0.06,1.37,0.68,-1.50,-0.37,42.69,0.25,-0.18,-0.95,-0.06
9870005, 7.84,1.90,-11.00,0.17,1.11,0.48,-1.50,-0.37,42.69,0.25,-0.18,-0.95,-0.06
9880000, 7.45,2.98,-10.31,0.34,0.85,0.08,-4.87,1.00,42.38,0.26,-0.18,-0.95,-0.06
9890000, 7.72,0.90,-8.87,0.62,0.68,-0.32,-4.87,1.00,42.38,0.26,-0.18,-0.95,-0.06
9900000, 3.31,-0.51,-8.13,0.51,0.69,-0.48,-4.87,1.00,42.38,0.26,-0.17,-0.95,-0.06
9910005, 4.71,-2.19,-8.54,0.49,0.69,-0.34,-4.87,1.00,42.38,0.27,-0.17,-0.95,-0.05
9920000, 6.64,-1.36,-8.69,0.43,0.56,-0.55,-4.87,1.00,42.38,0.27,-0.17,-0.95,-0.05
9930000, 6.51,0.01,-8.55,0.29,0.31,-0.44,-5.75,2.00,41.69,0.27,-0.16,-0.95,-0.05
9940004, 5.52,-0.67,-8.61,0.34,0.29,-0.34,-5.75,2.00,41.69,0.27,-0.16,-0.95,-0.05
9950005, 5.91,0.16,-8.73,0.20,0.10,0.04,-5.75,2.00,41.69,0.27,-0.16,-0.95,-0.05
9960000, 5.89,-0.36,-8.24,0.23,-0.01,0.26,-5.75,2.00,41.69,0.27,-0.16,-0.95,-0.05
9970000, 5.58,-0.23,-8.37,0.16,-0.05,0.10,-5.75,2.00,41.69,0.27,-0.16,-0.95,-0.05
9980000, 5.07,0.05,-8.51,0.17,-0.09,0.03,-8.00,2.75,42.38,0.27,-0.16,-0.95,-0.05
9996625, 5.10,-0.16,-8.57,0.12,-0.12,0.07,-8.00,2.75,42.38,0.27,-0.16,-0.95,-0.05
10001401, 5.10,-0.16,-8.57,0.12,-0.12,0.07,-8.00,2.75,42.38,0.27,-0.16,-0.95,-0.05
10018417, 5.02,-0.15,-8.42,0.09,-0.10,0.03,-8.00,2.75,42.38,0.27,-0.16,-0.95,-0.05
10022912, 5.02,-0.15,-8.42,0.09,-0.10,0.03,-8.00,2.75,42.38,0.27,-0.16,-0.95,-0.05
10030000, 5.15,-0.07,-8.37,0.07,-0.12,0.01,-8.38,3.37,42.00,0.27,-0.16,-0.95,-0.05
10040000, 5.19,-0.11,-8.39,0.06,-0.15,-0.00,-8.38,3.37,42.00,0.27,-0.16,-0.95,-0.05
10050000, 5.03,0.03,-8.41,0.05,-0.19,-0.01,-8.38,3.37,42.00,0.27,-0.16,-0.95,-0.04
10060004, 4.98,0.13,-8.34,0.06,-0.24,-0.02,-8.38,3.37,42.00,0.27,-0.16,-0.95,-0.04
10070000, 4.96,0.24,-8.32,0.06,-0.27,-0.01,-8.38,3.37,42.00,0.27,-0.16,-0.95,-0.04
10080000, 5.00,0.06,-8.32,0.05,-0.30,0.02,-7.25,2.25,40.88,0.27,-0.16,-0.95,-0.04
10090000, 4.66,-0.26,-8.56,0.04,-0.30,0.05,-7.25,2.25,40.88,0.26,-0.16,-0.95,-0.04
10100000, 4.65,-0.01,-8.46,0.03,-0.28,0.04,-7.25,2.25,40.88,0.26,-0.16,-0.95,-0.04
10110000, 4.86,-0.14,-8.62,0.03,-0.29,0.03,-7.25,2.25,40.88,0.26,-0.16,-0.95,-0.04
10120005, 4.84,-0.12,-8.54,0.03,-0.28,0.01,-7.25,2.25,40.88,0.26,-0.16,-0.95,-0.04
10130000, 4.78,0.06,-8.69,0.01,-0.26,0.02,-6.06,2.75,42.69,0.26,-0.16,-0.95,-0.04
10140004, 4.44,-0.51,-8.63,0.04,-0.27,0.03,-6.06,2.75,42.69,0.26,-0.16,-0.95,-0.04
10150005, 4.62,-0.23,-8.78,0.01,-0.24,0.05,-6.06,2.75,42.69,0.26,-0.16,-0.95,-0.04
10160000, 4.78,-0.01,-8.68,-0.02,-0.22,0.02,-6.06,2.75,42.69,0.26,-0.17,-0.95,-0.04
10170000, 4.36,-0.28,-8.70,0.00,-0.20,0.01,-6.06,2.75,42.69,0.25,-0.17,-0.95,-0.04
10180004, 4.50,-0.04,-8.71,-0.02,-0.17,0.01,-5.37,3.06,41.88,0.25,-0.17,-0.95,-0.04
10190000, 4.86,0.17,-8.57,-0.04,-0.14,-0.02,-5.37,3.06,41.88,0.25,-0.17,-0.95,-0.04
10200000, 4.52,0.34,-8.55,-0.02,-0.10,-0.04,-5.37,3.06,41.88,0.25,-0.17,-0.95,-0.04
10210005, 4.37,0.07,-8.63,-0.01,-0.10,0.01,-5.37,3.06,41.88,0.25,-0.17,-0.95,-0.04
10220000, 4.53,-0.12,-8.65,-0.01,-0.07,0.06,-5.37,3.06,41.88,0.25,-0.17,-0.95,-0.04
10230000, 4.76,-0.18,-8.68,-0.04,-0.00,0.04,-4.56,3.56,42.56,0.25,-0.17,-0.95,-0.04
10240005, 4.61,0.23,-8.52,-0.03,0.02,0.01,-4.56,3.56,42.56,0.25,-0.17,-0.95,-0.04
10250004, 4.69,0.21,-8.50,-0.03,0.03,0.02,-4.56,3.56,42.56,0.25,-0.17,-0.95,-0.04
10260004, 4.73,0.01,-8.54,-0.03,0.02,0.08,-4.56,3.56,42.56,0.25,-0.17,-0.95,-0.04
10270000, 4.82,-0.10,-8.55,-0.02,0.00,0.12,-4.56,3.56,42.56,0.25,-0.17,-0.95,-0.04
10280004, 4.68,-0.09,-8.49,-0.01,0.01,0.12,-6.06,3.56,42.75,0.25,-0.17,-0.95,-0.04
10290000, 4.59,-0.06,-8.56,0.00,0.01,0.09,-6.06,3.56,42.75,0.25,-0.17,-0.95,-0.04
10300004, 4.65,0.02,-8.59,-0.03,-0.00,0.09,-6.06,3.56,42.75,0.25,-0.17,-0.95,-0.04
10310005, 4.68,0.03,-8.56,-0.02,0.01,0.09,-6.06,3.56,42.75,0.25,-0.17,-0.95,-0.04
10320000, 4.60,-0.02,-8.43,0.01,0.05,0.08,-6.06,3.56,42.75,0.25,-0.17,-0.95,-0.04
10330005, 4.77,0.01,-8.45,-0.03,0.08,0.09,-5.87,3.50,42.75,0.25,-0.17,-0.95,-0.04
10340004, 4.84,0.06,-8.43,-0.03,0.07,0.09,-5.87,3.50,42.75,0.25,-0.17,-0.95,-0.04
10350005, 4.76,-0.02,-8.54,-0.02,0.06,0.10,-5.87,3.50,42.75,0.25,-0.17,-0.95,-0.04
10360004, 4.71,-0.02,-8.54,-0.02,0.06,0.11,-5.87,3.50,42.75,0.25,-0.17,-0.95,-0.04
10370000, 4.75,-0.08,-8.54,-0.02,0.09,0.11,-5.87,3.50,42.75,0.25,-0.17,-0.95,-0.04
10380005, 4.75,-0.09,-8.54,-0.01,0.09,0.11,-5.87,3.87,42.25,0.25,-0.17,-0.95,-0.04
10390000, 4.81,-0.03,-8.56,-0.02,0.07,0.10,-5.87,3.87,42.25,0.25,-0.17,-0.95,-0.04
10400005, 4.72,-0.10,-8.60,-0.02,0.05,0.11,-5.87,3.87,42.25,0.25,-0.17,-0.95,-0.04
10410000, 4.74,-0.13,-8.58,-0.01,0.03,0.11,-5.87,3.87,42.25,0.25,-0.17,-0.95,-0.04
10420004, 4.58,0.05,-8.65,-0.02,0.02,0.10,-5.87,3.87,42.25,0.25,-0.17,-0.95,-0.04
10430000, 4.57,-0.10,-8.55,-0.02,0.05,0.09,-4.69,3.50,43.50,0.25,-0.17,-0.95,-0.04
10440005, 4.92,-0.07,-8.42,-0.02,0.17,0.11,-4.69,3.50,43.50,0.26,-0.17,-0.95,-0.04
10450005, 4.84,-0.07,-8.43,-0.03,0.17,0.09,-4.69,3.50,43.50,0.26,-0.18,-0.95,-0.04
10460005, 4.86,-0.03,-8.51,-0.04,0.14,0.09,-4.69,3.50,43.50,0.26,-0.18,-0.95,-0.04
10470004, 4.86,-0.06,-8.51,-0.03,0.12,0.10,-4.69,3.50,43.50,0.26,-0.18,-0.95,-0.04
10480000, 4.87,-0.10,-8.45,-0.03,0.08,0.10,-5.50,3.06,41.06,0.26,-0.18,-0.95,-0.04
10490005, 4.94,-0.07,-8.37,-0.03,0.04,0.09,-5.50,3.06,41.06,0.26,-0.18,-0.95,-0.04
10504344, 4.88,-0.21,-8.34,-0.02,0.00,0.09,-5.50,3.06,41.06,0.26,-0.18,-0.95,-0.04
10510705, 4.84,-0.22,-8.48,-0.00,-0.03,0.08,-5.50,3.06,41.06,0.26,-0.18,-0.95,-0.04
10520000, 4.83,-0.10,-8.50,0.00,-0.05,0.05,-5.50,3.06,41.06,0.26,-0.18,-0.95,-0.04
10530005, 4.73,0.08,-8.54,0.01,-0.05,0.03,-7.00,3.56,41.56,0.26,-0.18,-0.95,-0.04
10540005, 4.80,0.00,-8.52,0.01,-0.06,0.06,-7.00,3.56,41.56,0.26,-0.18,-0.95,-0.04
10550004, 4.89,-0.12,-8.44,0.01,-0.06,0.09,-7.00,3.56,41.56,0.26,-0.18,-0.95,-0.04
10560000, 4.87,-0.17,-8.41,0.01,-0.05,0.09,-7.00,3.56,41.56,0.26,-0.18,-0.95,-0.04
10570004, 4.61,-0.33,-8.55,0.00,-0.04,0.07,-7.00,3.56,41.56,0.26,-0.18,-0.95,-0.04
10580000, 4.90,-0.44,-8.49,-0.01,0.04,0.04,-5.50,2.75,41.56,0.26,-0.18,-0.95,-0.04
10590000, 4.80,-0.41,-8.56,0.00,0.09,-0.01,-5.50,2.75,41.56,0.26,-0.18,-0.95,-0.04
10600000, 4.67,-0.28,-8.64,0.00,0.09,-0.05,-5.50,2.75,41.56,0.26,-0.18,-0.95,-0.04
10610000, 4.88,-0.13,-8.48,0.01,0.08,-0.06,-5.50,2.75,41.56,0.26,-0.18,-0.95,-0.04
10620000, 4.81,-0.08,-8.50,0.00,0.04,-0.06,-5.50,2.75,41.56,0.26,-0.18,-0.95,-0.04
10630000, 4.85,-0.04,-8.50,0.01,0.02,-0.05,-5.06,3.19,41.19,0.26,-0.18,-0.95,-0.04
10640000, 4.83,0.04,-8.52,0.01,-0.00,-0.04,-5.06,3.19,41.19,0.26,-0.18,-0.95,-0.04
10650000, 4.83,-0.02,-8.54,0.00,-0.01,-0.02,-5.06,3.19,41.19,0.26,-0.18,-0.95,-0.04
10660004, 4.87,-0.03,-8.54,0.00,-0.02,0.01,-5.06,3.19,41.19,0.26,-0.18,-0.95,-0.04
10670000, 4.82,-0.06,-8.48,0.00,-0.01,0.01,-5.06,3.19,41.19,0.26,-0.18,-0.95,-0.04
10680000, 4.79,-0.14,-8.52,0.00,-0.00,0.00,-7.00,3.19,42.38,0.26,-0.18,-0.95,-0.04
10690004, 4.74,-0.18,-8.57,0.00,0.01,-0.01,-7.00,3.19,42.38,0.26,-0.18,-0.95,-0.04
10700000, 4.68,-0.26,-8.71,0.00,0.05,-0.03,-7.00,3.19,42.38,0.26,-0.18,-0.95,-0.04
10710004, 4.58,-0.22,-8.66,-0.01,0.12,-0.06,-7.00,3.19,42.38,0.26,-0.18,-0.95,-0.04
10720005, 4.47,-0.31,-8.69,-0.03,0.22,-0.08,-7.00,3.19,42.38,0.26,-0.18,-0.95,-0.04
10730000, 4.54,-0.33,-8.92,-0.09,0.35,-0.08,-5.87,2.75,42.38,0.26,-0.18,-0.95,-0.04
10740000, 4.42,-0.40,-9.08,-0.16,0.48,-0.11,-5.87,2.75,42.38,0.26,-0.18,-0.95,-0.04
10750000, 4.73,0.09,-8.74,-0.22,0.71,-0.12,-5.87,2.75,42.38,0.26,-0.18,-0.95,-0.04
10760004, 4.65,-0.03,-8.96,-0.25,0.91,-0.15,-5.87,2.75,42.38,0.27,-0.18,-0.95,-0.05
10770005, 4.71,0.34,-9.00,-0.34,1.01,-0.09,-5.87,2.75,42.38,0.27,-0.18,-0.94,-0.05
10780000, 4.96,0.03,-8.89,-0.31,1.07,-0.05,-7.37,3.19,42.06,0.28,-0.18,-0.94,-0.05
10790000, 5.30,-0.49,-8.93,-0.26,1.21,-0.07,-7.37,3.19,42.06,0.28,-0.18,-0.94,-0.05
10800004, 5.37,-0.25,-9.11,-0.20,1.34,-0.16,-7.37,3.19,42.06,0.29,-0.18,-0.94,-0.06
10810004, 5.18,0.09,-9.08,-0.17,1.45,-0.28,-7.37,3.19,42.06,0.30,-0.17,-0.94,-0.06
10820000, 5.31,-0.07,-8.97,-0.15,1.63,-0.33,-7.37,3.19,42.06,0.30,-0.17,-0.94,-0.06
10830005, 5.13,-0.48,-8.73,-0.17,1.86,-0.39,-8.88,2.06,42.88,0.31,-0.17,-0.93,-0.06
10840000, 4.61,-0.14,-8.36,-0.35,2.10,-0.56,-8.88,2.06,42.88,0.32,-0.17,-0.93,-0.07
10850000, 5.45,0.29,-8.62,-0.84,2.35,-0.76,-8.88,2.06,42.88,0.33,-0.16,-0.93,-0.08
10860000, 5.26,-0.08,-8.83,-1.26,2.74,-0.94,-8.88,2.06,42.88,0.34,-0.16,-0.92,-0.08
10870004, 7.93,0.60,-8.16,-1.64,3.30,-1.11,-8.88,2.06,42.88,0.35,-0.16,-0.92,-0.10
10880000, 10.05,2.41,-7.80,-1.56,3.55,-1.31,-13.25,1.25,40.50,0.37,-0.15,-0.91,-0.11
10890004, 9.40,4.19,-6.84,-1.64,3.36,-1.16,-13.25,1.25,40.50,0.38,-0.15,-0.91,-0.12
10900000, 7.07,0.86,-6.57,-1.44,2.91,-0.49,-13.25,1.25,40.50,0.39,-0.15,-0.90,-0.13
10910000, 8.72,0.61,-7.83,-1.18,2.31,-0.02,-13.25,1.25,40.50,0.40,-0.15,-0.89,-0.14
10920005, 7.71,1.53,-7.28,-1.10,1.91,-0.04,-13.25,1.25,40.50,0.41,-0.15,-0.89,-0.14
10930000, 7.22,2.29,-7.10,-0.82,1.76,0.05,-20.06,-2.19,39.56,0.41,-0.15,-0.89,-0.15
10940004, 7.90,2.12,-7.00,-0.69,1.55,0.17,-20.06,-2.19,39.56,0.42,-0.15,-0.88,-0.15
10950000, 9.50,1.22,-3.71,-0.62,1.45,0.29,-20.06,-2.19,39.56,0.43,-0.15,-0.88,-0.15
10960004, 8.48,-0.87,-1.68,-1.18,1.55,0.20,-20.06,-2.19,39.56,0.43,-0.15,-0.87,-0.16
10970000, 7.26,1.01,-8.98,-2.89,1.64,0.12,-20.06,-2.19,39.56,0.44,-0.16,-0.87,-0.17
10980004, 8.12,6.31,-9.90,-1.49,1.25,0.81,-24.75,-3.56,36.19,0.44,-0.16,-0.86,-0.18
10996497, 8.53,3.51,-10.25,1.54,0.93,1.77,-24.75,-3.56,36.19,0.46,-0.17,-0.86,-0.16
11001998, 6.18,4.25,-8.81,1.54,0.93,1.77,-24.75,-3.56,36.19,0.46,-0.17,-0.86,-0.16
11020578, 2.87,-1.39,-4.49,0.15,1.76,1.16,-24.75,-3.56,36.19,0.47,-0.18,-0.85,-0.15
11025091, 2.87,-1.39,-4.49,0.15,1.76,1.16,-24.75,-3.56,36.19,0.47,-0.18,-0.85,-0.15
11030001, 11.28,3.54,-10.47,-2.02,1.76,0.06,-27.00,-5.19,35.75,0.48,-0.18,-0.85,-0.16
11044679, 14.84,4.02,-6.98,-0.31,1.60,0.60,-27.00,-5.19,35.75,0.49,-0.19,-0.84,-0.16
11051152, 5.40,-0.25,-5.45,-0.29,1.79,1.07,-27.00,-5.19,35.75,0.49,-0.19,-0.84,-0.16
11060005, 8.79,1.48,-5.67,-0.65,1.76,0.84,-27.00,-5.19,35.75,0.50,-0.19,-0.83,-0.16
11070004, 10.24,2.32,-6.33,-0.56,1.79,0.73,-27.00,-5.19,35.75,0.51,-0.19,-0.82,-0.17
11080004, 9.40,1.35,-6.75,-0.59,1.82,0.83,-30.00,-2.37,33.50,0.51,-0.19,-0.82,-0.17
11090000, 8.24,1.26,-6.77,-0.51,1.81,0.84,-30.00,-2.37,33.50,0.52,-0.20,-0.81,-0.17
11100004, 8.41,1.49,-7.34,-0.49,1.82,0.78,-30.00,-2.37,33.50,0.53,-0.20,-0.81,-0.17
11110000, 9.40,1.87,-7.77,-0.48,1.78,0.75,-30.00,-2.37,33.50,0.54,-0.20,-0.80,-0.17
11120005, 9.25,2.36,-7.65,-0.39,1.68,0.73,-30.00,-2.37,33.50,0.54,-0.21,-0.80,-0.17
11130000, 8.60,1.51,-7.30,-0.17,1.58,0.76,-32.00,-1.75,32.19,0.55,-0.21,-0.79,-0.17
11140004, 8.31,0.98,-6.81,-0.11,1.46,0.77,-32.00,-1.75,32.19,0.56,-0.21,-0.79,-0.17
11150000, 8.30,0.65,-5.93,-0.07,1.38,0.75,-32.00,-1.75,32.19,0.56,-0.21,-0.78,-0.17
11160000, 8.43,1.38,-4.70,-0.04,1.31,0.73,-32.00,-1.75,32.19,0.57,-0.21,-0.78,-0.17
11170000, 8.19,2.96,-4.27,0.04,1.26,0.67,-32.00,-1.75,32.19,0.57,-0.21,-0.77,-0.17
11180005, 7.35,2.56,-5.49,0.37,1.33,0.61,-35.69,-0.56,29.69,0.58,-0.22,-0.77,-0.17
11190000, 7.88,2.52,-4.32,0.74,1.26,0.58,-35.69,-0.56,29.69,0.58,-0.21,-0.77,-0.17
11200004, 9.13,0.37,-8.46,1.20,1.20,0.47,-35.69,-0.56,29.69,0.59,-0.21,-0.76,-0.16
11210005, 8.37,-1.94,-13.33,1.13,0.59,0.02,-35.69,-0.56,29.69,0.59,-0.21,-0.76,-0.16
11220000, 5.19,0.70,-5.70,0.43,-0.36,-0.26,-35.69,-0.56,29.69,0.59,-0.21,-0.76,-0.16
11230000, 2.24,2.83,-2.64,0.76,0.13,-0.02,-36.19,0.50,27.06,0.59,-0.20,-0.76,-0.16
11240004, 2.63,1.94,-7.31,0.04,0.55,-0.32,-36.19,0.50,27.06,0.59,-0.20,-0.76,-0.16
11250000, 9.12,2.56,-7.47,0.16,0.29,-0.19,-36.19,0.50,27.06,0.60,-0.20,-0.76,-0.16
11260000, 7.18,1.36,-7.43,0.56,0.02,-0.21,-36.19,0.50,27.06,0.60,-0.20,-0.76,-0.16
11270004, 3.37,0.11,-6.24,0.69,-0.29,-0.16,-36.19,0.50,27.06,0.60,-0.20,-0.76,-0.15
11280000, 3.28,0.32,-5.53,0.59,-0.57,-0.24,-37.75,2.25,26.19,0.59,-0.19,-0.77,-0.15
11290000, 3.45,0.75,-5.63,0.47,-0.63,-0.25,-37.75,2.25,26.19,0.59,-0.19,-0.77,-0.15
11300000, 4.27,1.08,-6.16,0.34,-0.70,-0.20,-37.75,2.25,26.19,0.59,-0.19,-0.77,-0.15
11310004, 6.06,1.40,-6.72,0.33,-0.87,-0.19,-37.75,2.25,26.19,0.59,-0.19,-0.77,-0.15
11320000, 6.15,1.28,-6.58,0.38,-1.14,-0.24,-37.75,2.25,26.19,0.58,-0.19,-0.78,-0.14
11330005, 5.70,1.09,-6.29,0.45,-1.43,-0.29,-38.19,2.00,27.37,0.58,-0.19,-0.78,-0.14
11340000, 5.25,1.01,-5.99,0.46,-1.65,-0.32,-38.19,2.00,27.37,0.57,-0.19,-0.79,-0.14
11350004, 5.33,1.15,-5.78,0.46,-1.78,-0.33,-38.19,2.00,27.37,0.56,-0.18,-0.79,-0.14
11360004, 5.81,1.12,-5.91,0.45,-1.88,-0.31,-38.19,2.00,27.37,0.56,-0.18,-0.80,-0.14
11370000, 6.43,1.07,-5.99,0.44,-1.98,-0.29,-38.19,2.00,27.37,0.55,-0.18,-0.80,-0.13
11380004, 6.65,1.02,-5.99,0.43,-2.10,-0.31,-36.06,2.50,31.56,0.54,-0.18,-0.81,-0.13
11390004, 6.63,0.96,-5.97,0.41,-2.21,-0.33,-36.06,2.50,31.56,0.53,-0.18,-0.82,-0.13
11400004, 6.88,0.99,-5.94,0.36,-2.29,-0.36,-36.06,2.50,31.56,0.52,-0.18,-0.82,-0.12
11410004, 6.99,1.03,-6.00,0.32,-2.36,-0.38,-36.06,2.50,31.56,0.52,-0.18,-0.83,-0.12
11420000, 7.53,1.23,-5.90,0.27,-2.39,-0.41,-36.06,2.50,31.56,0.51,-0.18,-0.84,-0.12
11430000, 7.77,1.47,-5.93,0.24,-2.43,-0.45,-31.69,2.06,35.00,0.50,-0.18,-0.84,-0.12
11440004, 7.89,1.66,-6.01,0.23,-2.43,-0.51,-31.69,2.06,35.00,0.49,-0.17,-0.85,-0.12
11450000, 8.24,1.67,-6.30,0.25,-2.41,-0.57,-31.69,2.06,35.00,0.48,-0.17,-0.85,-0.11
11460000, 9.39,1.06,-6.22,0.23,-2.43,-0.65,-31.69,2.06,35.00,0.47,-0.17,-0.86,-0.11
11470005, 9.39,0.83,-5.96,0.20,-2.51,-0.72,-31.69,2.06,35.00,0.45,-0.17,-0.87,-0.11
11480000, 9.03,0.64,-5.78,0.14,-2.51,-0.74,-27.50,2.69,36.38,0.44,-0.17,-0.87,-0.11
11490004, 8.97,0.52,-5.66,0.04,-2.46,-0.71,-27.50,2.69,36.38,0.43,-0.17,-0.88,-0.11
11505680, 9.61,0.48,-5.53,-0.07,-2.40,-0.65,-27.50,2.69,36.38,0.41,-0.16,-0.89,-0.11
11511922, 9.61,0.60,-5.43,-0.18,-2.35,-0.56,-27.50,2.69,36.38,0.41,-0.16,-0.89,-0.11
11520003, 9.35,0.68,-4.70,-0.21,-2.30,-0.49,-27.50,2.69,36.38,0.40,-0.16,-0.89,-0.11
11530000, 7.57,0.55,-3.72,-0.15,-2.18,-0.39,-23.38,2.56,40.50,0.39,-0.16,-0.90,-0.11
11540000, 8.08,0.73,-4.08,-0.17,-1.93,-0.32,-23.38,2.56,40.50,0.38,-0.16,-0.90,-0.11
11550005, 9.71,1.18,-5.16,-0.26,-1.69,-0.30,-23.38,2.56,40.50,0.37,-0.16,-0.91,-0.11
11560004, 10.98,1.64,-5.70,-0.31,-1.62,-0.32,-23.38,2.56,40.50,0.37,-0.16,-0.91,-0.11
11570000, 9.36,1.56,-5.12,-0.06,-1.62,-0.39,-23.38,2.56,40.50,0.36,-0.16,-0.91,-0.11
11580004, 7.88,1.14,-4.81,0.24,-1.60,-0.46,-19.00,0.69,42.38,0.35,-0.16,-0.92,-0.11
11590004, 6.98,0.71,-4.58,0.43,-1.45,-0.48,-19.00,0.69,42.38,0.35,-0.16,-0.92,-0.11
11600000, 6.98,0.18,-5.37,0.50,-1.21,-0.43,-19.00,0.69,42.38,0.34,-0.16,-0.92,-0.10
11610004, 10.23,-1.25,-6.72,0.39,-0.99,-0.36,-19.00,0.69,42.38,0.34,-0.15,-0.92,-0.10
11620000, 10.92,-1.43,-6.99,0.23,-0.99,-0.40,-19.00,0.69,42.38,0.33,-0.15,-0.93,-0.10
11630000, 10.27,-1.06,-7.53,0.02,-1.21,-0.61,-15.69,0.25,44.06,0.33,-0.15,-0.93,-0.10
11640004, 9.89,0.21,-7.11,-0.10,-1.36,-0.77,-15.69,0.25,44.06,0.32,-0.15,-0.93,-0.10
11650004, 9.11,0.52,-6.56,-0.07,-1.44,-0.77,-15.69,0.25,44.06,0.31,-0.15,-0.93,-0.10
11660005, 7.94,0.70,-6.35,0.02,-1.43,-0.70,-15.69,0.25,44.06,0.31,-0.14,-0.94,-0.10
11670000, 7.77,0.94,-6.46,0.05,-1.26,-0.59,-15.69,0.25,44.06,0.30,-0.14,-0.94,-0.10
11680000, 10.08,1.38,-6.82,0.04,-1.00,-0.54,-14.25,0.69,45.25,0.30,-0.14,-0.94,-0.10
11690004, 9.97,1.45,-6.95,0.06,-0.92,-0.53,-14.25,0.69,45.25,0.29,-0.14,-0.94,-0.10
11700000, 9.22,1.50,-6.97,0.12,-0.94,-0.50,-14.25,0.69,45.25,0.29,-0.13,-0.94,-0.10
11710005, 8.67,1.04,-7.19,0.18,-0.95,-0.41,-14.25,0.69,45.25,0.28,-0.13,-0.94,-0.10
11720000, 11.02,-0.52,-8.27,0.07,-0.91,-0.29,-14.25,0.69,45.25,0.28,-0.13,-0.95,-0.10
11730000, 12.24,-0.84,-8.05,-0.16,-0.97,-0.31,-13.56,0.75,45.88,0.27,-0.13,-0.95,-0.10
11740005, 10.81,-0.48,-7.62,-0.39,-1.28,-0.51,-13.56,0.75,45.88,0.27,-0.13,-0.95,-0.10
11750004, 7.46,0.36,-6.20,-0.55,-1.49,-0.66,-13.56,0.75,45.88,0.26,-0.13,-0.95,-0.10
11760005, 7.18,0.37,-5.82,-0.58,-1.49,-0.61,-13.56,0.75,45.88,0.25,-0.13,-0.95,-0.11
11770004, 8.23,0.45,-5.71,-0.60,-1.28,-0.42,-13.56,0.75,45.88,0.25,-0.13,-0.95,-0.11
11780000, 8.75,0.06,-5.76,-0.54,-1.13,-0.20,-12.50,1.56,47.19,0.24,-0.13,-0.96,-0.11
11790005, 8.70,-0.98,-5.74,-0.54,-1.13,0.06,-12.50,1.56,47.19,0.23,-0.13,-0.96,-0.11
11800005, 8.73,-1.23,-5.15,-0.62,-1.15,0.25,-12.50,1.56,47.19,0.23,-0.13,-0.96,-0.12
11810000, 8.14,-1.24,-4.67,-0.72,-1.16,0.34,-12.50,1.56,47.19,0.22,-0.13,-0.96,-0.12
11820000, 7.48,-1.05,-4.38,-0.83,-1.16,0.42,-12.50,1.56,47.19,0.22,-0.14,-0.96,-0.12
11830000, 7.92,0.17,-3.77,-0.80,-1.12,0.54,-8.88,0.88,47.56,0.21,-0.14,-0.96,-0.12
11840000, 7.95,-0.11,-3.96,-0.77,-0.90,0.54,-8.88,0.88,47.56,0.21,-0.15,-0.96,-0.13
11850004, 8.21,-0.10,-3.83,-0.57,-0.79,0.55,-8.88,0.88,47.56,0.20,-0.15,-0.96,-0.13
11860000, 7.91,-0.36,-3.22,-0.39,-0.72,0.53,-8.88,0.88,47.56,0.20,-0.15,-0.96,-0.13
11870000, 7.21,-0.54,-3.02,-0.20,-0.64,0.43,-8.88,0.88,47.56,0.20,-0.15,-0.96,-0.13
11880000, 6.95,-0.47,-2.69,-0.05,-0.49,0.26,-6.69,-0.50,49.88,0.20,-0.16,-0.96,-0.13
11890000, 7.07,-0.58,-2.83,0.07,-0.21,0.04,-6.69,-0.50,49.88,0.19,-0.16,-0.96,-0.13
11900004, 7.46,3.53,-5.46,0.36,0.04,-0.16,-6.69,-0.50,49.88,0.20,-0.16,-0.96,-0.13
11910000, 5.87,0.21,-2.78,2.43,0.22,0.03,-6.69,-0.50,49.88,0.20,-0.15,-0.96,-0.11
11920000, -0.66,-0.54,-10.05,2.54,0.81,0.93,-6.69,-0.50,49.88,0.20,-0.15,-0.96,-0.10
11930000, -0.09,1.48,-18.01,1.10,0.52,1.36,-6.69,-0.56,50.38,0.21,-0.16,-0.96,-0.10
11940000, -4.07,10.82,-17.15,0.32,0.20,0.96,-6.69,-0.56,50.38,0.21,-0.16,-0.96,-0.09
11950000, 2.15,14.19,-10.74,0.40,1.60,0.65,-6.69,-0.56,50.38,0.22,-0.17,-0.96,-0.09
11960005, 20.75,9.19,-0.81,0.81,1.36,-0.03,-6.69,-0.56,50.38,0.22,-0.16,-0.96,-0.09
11976560, 19.52,2.94,-1.29,0.31,0.67,0.11,-6.69,-0.56,50.38,0.24,-0.17,-0.95,-0.08
11981302, 10.53,-1.86,-10.78,1.40,1.28,0.79,-5.87,4.50,49.06,0.24,-0.17,-0.95,-0.08
11990005, 7.53,-4.92,-12.37,1.08,0.93,0.64,-5.87,4.50,49.06,0.24,-0.17,-0.95,-0.08
12000005, -1.37,-2.72,-10.05,0.42,1.05,0.85,-5.87,4.50,49.06,0.25,-0.17,-0.95,-0.08
12014173, 8.34,-2.62,-9.25,0.83,0.95,0.08,-5.87,4.50,49.06,0.25,-0.17,-0.95,-0.07
12021795, 11.00,-1.14,-9.49,0.39,0.52,-0.55,-5.87,4.50,49.06,0.25,-0.17,-0.95,-0.07
12030004, 6.46,-0.97,-8.72,0.39,0.57,-0.40,-9.38,6.37,49.00,0.26,-0.16,-0.95,-0.07
12040000, 4.34,-0.71,-8.89,0.32,0.60,-0.02,-9.38,6.37,49.00,0.26,-0.16,-0.95,-0.07
12050004, 6.20,-0.51,-9.07,0.19,0.38,0.07,-9.38,6.37,49.00,0.26,-0.16,-0.95,-0.07
12060005, 6.85,-0.36,-8.41,0.14,0.28,-0.11,-9.38,6.37,49.00,0.26,-0.16,-0.95,-0.07
12070000, 5.53,0.51,-8.25,0.09,0.23,-0.18,-9.38,6.37,49.00,0.26,-0.16,-0.95,-0.07
12080000, 4.59,0.65,-8.11,0.12,0.23,-0.19,-11.00,7.69,48.56,0.27,-0.16,-0.95,-0.07
12090000, 4.73,1.16,-8.26,0.09,0.21,-0.04,-11.00,7.69,48.56,0.27,-0.16,-0.95,-0.07
12100004, 5.23,1.40,-8.05,0.15,0.19,-0.00,-11.00,7.69,48.56,0.27,-0.16,-0.95,-0.07
12110000, 5.14,0.75,-8.21,0.09,0.17,-0.05,-11.00,7.69,48.56,0.27,-0.16,-0.95,-0.07
12120000, 5.20,0.10,-8.27,0.12,0.16,0.02,-11.00,7.69,48.56,0.27,-0.16,-0.95,-0.07
12130005, 5.29,-0.10,-8.55,0.10,0.13,0.02,-12.50,7.50,47.69,0.27,-0.16,-0.95,-0.07
12140000, 5.33,0.05,-8.38,0.09,0.13,-0.01,-12.50,7.50,47.69,0.27,-0.16,-0.95,-0.07
12150000, 5.26,0.46,-8.27,0.09,0.13,-0.02,-12.50,7.50,47.69,0.27,-0.16,-0.95,-0.07
12160000, 4.97,0.74,-8.21,0.10,0.13,-0.03,-12.50,7.50,47.69,0.27,-0.16,-0.95,-0.07
12170000, 5.00,0.57,-8.26,0.10,0.11,0.02,-12.50,7.50,47.69,0.27,-0.16,-0.95,-0.07
12180000, 5.04,0.36,-8.31,0.09,0.10,0.07,-13.19,7.37,47.38,0.27,-0.16,-0.95,-0.06
12190004, 5.18,0.20,-8.32,0.09,0.09,0.11,-13.19,7.37,47.38,0.27,-0.16,-0.95,-0.06
12200000, 5.25,0.27,-8.33,0.09,0.08,0.11,-13.19,7.37,47.38,0.27,-0.16,-0.95,-0.06
12210000, 5.04,0.18,-8.23,0.08,0.07,0.11,-13.19,7.37,47.38,0.27,-0.16,-0.95,-0.06
12220000, 4.92,0.25,-8.29,0.11,0.04,0.16,-13.19,7.37,47.38,0.27,-0.16,-0.95,-0.06
12230000, 5.18,0.65,-8.32,0.09,0.05,0.17,-13.19,8.50,47.00,0.27,-0.16,-0.95,-0.06
12240000, 5.34,0.00,-8.39,0.08,0.07,0.17,-13.19,8.50,47.00,0.28,-0.16,-0.95,-0.06
12250000, 5.52,-0.56,-8.52,0.07,0.05,0.14,-13.19,8.50,47.00,0.28,-0.16,-0.95,-0.06
12260000, 5.35,-0.67,-8.57,0.06,0.03,0.07,-13.19,8.50,47.00,0.28,-0.16,-0.95,-0.06
12270000, 5.10,0.12,-8.34,0.07,0.05,-0.04,-13.19,8.50,47.00,0.28,-0.16,-0.95,-0.06
12280000, 5.15,0.39,-8.28,0.04,0.05,-0.08,-13.56,8.06,47.38,0.28,-0.16,-0.95,-0.06
12290000, 5.18,0.33,-8.26,0.03,0.03,-0.05,-13.56,8.06,47.38,0.28,-0.16,-0.95,-0.06
12300000, 5.19,0.23,-8.28,0.02,0.02,-0.03,-13.56,8.06,47.38,0.28,-0.16,-0.95,-0.06
12310000, 5.23,0.37,-8.21,0.03,0.01,-0.03,-13.56,8.06,47.38,0.28,-0.16,-0.95,-0.06
12320000, 5.19,0.52,-8.16,0.04,-0.02,-0.02,-13.56,8.06,47.38,0.28,-0.16,-0.95,-0.06
12330000, 5.12,0.51,-8.15,0.04,-0.04,0.02,-14.38,8.69,47.75,0.28,-0.16,-0.95,-0.06
12340000, 5.12,0.37,-8.19,0.04,-0.07,0.06,-14.38,8.69,47.75,0.28,-0.16,-0.95,-0.06
12350000, 5.15,0.21,-8.26,0.03,-0.10,0.09,-14.38,8.69,47.75,0.28,-0.16,-0.95,-0.06
12360000, 5.20,0.21,-8.19,0.04,-0.12,0.09,-14.38,8.69,47.75,0.27,-0.16,-0.95,-0.06
12370000, 5.24,0.21,-8.17,0.04,-0.16,0.11,-14.38,8.69,47.75,0.27,-0.16,-0.95,-0.06
12380000, 5.16,0.19,-8.23,0.04,-0.21,0.12,-13.50,9.38,47.00,0.27,-0.16,-0.95,-0.06
12390000, 5.21,0.08,-8.23,0.05,-0.26,0.14,-13.50,9.38,47.00,0.27,-0.16,-0.95,-0.06
12400000, 5.29,0.00,-8.28,0.05,-0.34,0.17,-13.50,9.38,47.00,0.27,-0.16,-0.95,-0.06
12410005, 5.31,-0.03,-8.34,0.04,-0.44,0.16,-13.50,9.38,47.00,0.27,-0.16,-0.95,-0.06
12420005, 5.31,0.19,-8.41,0.03,-0.51,0.15,-13.50,9.38,47.00,0.27,-0.16,-0.95,-0.05
12430000, 5.14,0.25,-8.42,0.03,-0.54,0.17,-12.37,7.87,47.38,0.26,-0.17,-0.95,-0.05
12440004, 4.97,0.15,-8.44,0.03,-0.55,0.18,-12.37,7.87,47.38,0.26,-0.17,-0.95,-0.05
12450000, 4.89,0.15,-8.48,0.04,-0.54,0.21,-12.37,7.87,47.38,0.26,-0.17,-0.95,-0.05
12460004, 4.84,0.18,-8.44,0.05,-0.54,0.21,-12.37,7.87,47.38,0.26,-0.17,-0.95,-0.05
12470004, 4.88,0.30,-8.44,0.02,-0.52,0.22,-12.37,7.87,47.38,0.25,-0.17,-0.95,-0.05
12480000, 4.66,0.36,-8.42,0.01,-0.51,0.26,-11.25,8.56,47.38,0.25,-0.17,-0.95,-0.05
12490004, 4.78,0.77,-8.56,0.02,-0.50,0.30,-11.25,8.56,47.38,0.25,-0.17,-0.95,-0.05
12504507, 4.42,-0.27,-8.47,0.04,-0.52,0.27,-11.25,8.56,47.38,0.25,-0.18,-0.95,-0.05
12512093, 4.49,0.03,-8.81,0.02,-0.45,0.23,-11.25,8.56,47.38,0.25,-0.18,-0.95,-0.05
12520000, 4.51,0.29,-8.64,0.07,-0.38,0.14,-11.25,8.56,47.38,0.24,-0.18,-0.95,-0.05
12530005, 4.23,-1.02,-8.60,0.08,-0.38,-0.05,-10.50,9.00,48.19,0.24,-0.18,-0.95,-0.05
12540000, 4.58,0.17,-8.97,0.00,-0.29,0.03,-10.50,9.00,48.19,0.24,-0.18,-0.95,-0.05
12550000, 4.36,-0.68,-8.44,0.06,-0.21,0.07,-10.50,9.00,48.19,0.24,-0.18,-0.95,-0.05
12560000, 4.39,0.11,-8.77,-0.05,-0.13,0.09,-10.50,9.00,48.19,0.24,-0.18,-0.95,-0.05
12570000, 4.84,0.45,-8.83,-0.01,-0.10,0.07,-10.50,9.00,48.19,0.24,-0.18,-0.95,-0.05
12580000, 4.47,-0.43,-8.41,0.04,-0.17,0.01,-9.00,9.38,49.38,0.24,-0.18,-0.95,-0.04
12590005, 4.26,0.05,-8.71,-0.03,-0.13,0.05,-9.00,9.38,49.38,0.24,-0.18,-0.95,-0.04
12600000, 4.46,0.03,-8.65,0.02,-0.10,0.06,-9.00,9.38,49.38,0.24,-0.18,-0.95,-0.04
12610004, 4.46,-0.04,-8.69,-0.05,-0.06,0.08,-9.00,9.38,49.38,0.24,-0.18,-0.95,-0.04
12620005, 4.52,0.00,-8.66,-0.03,-0.04,0.06,-9.00,9.38,49.38,0.24,-0.18,-0.95,-0.04
12630004, 4.51,-0.02,-8.69,-0.04,-0.04,0.07,-8.69,9.38,48.19,0.24,-0.18,-0.95,-0.04
12640000, 4.34,-0.64,-8.49,0.00,-0.07,0.06,-8.69,9.38,48.19,0.24,-0.18,-0.95,-0.04
12650000, 4.22,0.19,-8.74,-0.03,-0.07,0.06,-8.69,9.38,48.19,0.24,-0.18,-0.95,-0.04
12660000, 4.51,-0.04,-8.67,-0.04,0.00,0.02,-8.69,9.38,48.19,0.24,-0.18,-0.95,-0.04
12670000, 4.57,0.00,-8.71,-0.04,-0.00,0.04,-8.69,9.38,48.19,0.24,-0.18,-0.95,-0.04
12680004, 4.40,-0.01,-8.66,-0.04,-0.01,0.06,-9.06,9.38,48.87,0.24,-0.18,-0.95,-0.04
12690005, 4.50,-0.07,-8.66,-0.03,0.02,0.05,-9.06,9.38,48.87,0.24,-0.18,-0.95,-0.04
12700000, 4.57,-0.07,-8.67,-0.04,0.02,0.03,-9.06,9.38,48.87,0.24,-0.18,-0.95,-0.05
12710000, 4.50,-0.06,-8.66,-0.03,0.02,0.02,-9.06,9.38,48.87,0.24,-0.18,-0.95,-0.05
12720000, 4.53,0.03,-8.67,-0.03,0.02,0.01,-9.06,9.38,48.87,0.24,-0.18,-0.95,-0.05
12730000, 4.53,0.03,-8.67,-0.03,0.03,-0.01,-8.69,9.38,47.75,0.24,-0.18,-0.95,-0.05
12740004, 4.46,0.07,-8.69,-0.03,0.03,-0.00,-8.69,9.38,47.75,0.24,-0.18,-0.95,-0.05
12750004, 4.41,0.11,-8.69,-0.03,0.05,-0.00,-8.69,9.38,47.75,0.24,-0.18,-0.95,-0.05
12760005, 4.53,0.14,-8.67,-0.03,0.06,-0.00,-8.69,9.38,47.75,0.24,-0.18,-0.95,-0.05
12770000, 4.51,0.10,-8.66,-0.04,0.07,0.00,-8.69,9.38,47.75,0.24,-0.18,-0.95,-0.05
12780004, 4.47,0.11,-8.69,-0.03,0.08,-0.00,-8.69,9.75,48.56,0.24,-0.18,-0.95,-0.05
12790004, 4.45,0.11,-8.74,-0.04,0.10,-0.02,-8.69,9.75,48.56,0.24,-0.18,-0.95,-0.05
12800000, 4.34,0.18,-9.01,-0.05,0.13,-0.03,-8.69,9.75,48.56,0.24,-0.18,-0.95,-0.05
12810000, 4.21,0.35,-9.09,-0.04,0.19,-0.00,-8.69,9.75,48.56,0.24,-0.18,-0.95,-0.05
12820000, 4.21,0.52,-9.00,-0.04,0.26,0.09,-8.69,9.75,48.56,0.24,-0.18,-0.95,-0.05
12830004, 4.18,0.52,-9.00,-0.05,0.33,0.17,-8.69,9.00,48.56,0.24,-0.18,-0.95,-0.05
12840000, 4.39,-0.70,-8.92,-0.12,0.43,0.25,-8.69,9.00,48.56,0.24,-0.18,-0.95,-0.05
12850004, 4.16,-0.62,-9.09,-0.22,0.71,0.25,-8.69,9.00,48.56,0.25,-0.18,-0.95,-0.05
12860000, 2.43,-0.51,-9.27,-0.53,1.67,0.15,-8.69,9.00,48.56,0.25,-0.18,-0.95,-0.05
12870005, 4.61,-0.10,-9.24,-0.60,1.96,-0.09,-8.69,9.00,48.56,0.26,-0.18,-0.95,-0.06
12880004, 5.79,-0.64,-8.98,-0.84,2.13,-0.42,-9.06,9.00,49.69,0.27,-0.18,-0.94,-0.07
12890000, 3.67,-0.59,-9.40,-0.97,2.78,-0.77,-9.06,9.00,49.69,0.28,-0.18,-0.94,-0.07
12900000, 4.27,0.06,-9.40,-1.06,3.09,-1.03,-9.06,9.00,49.69,0.30,-0.18,-0.94,-0.08
12910005, 6.22,0.80,-9.16,-0.99,3.06,-1.05,-9.06,9.00,49.69,0.31,-0.17,-0.93,-0.09
12920000, 7.04,1.25,-8.81,-1.13,3.00,-0.93,-9.06,9.00,49.69,0.32,-0.17,-0.93,-0.10
12930000, 6.38,1.78,-9.18,-1.08,3.08,-0.53,-13.19,7.19,46.69,0.33,-0.16,-0.92,-0.11
12940004, 5.97,1.69,-8.84,-1.06,2.96,-0.32,-13.19,7.19,46.69,0.35,-0.16,-0.92,-0.12
12950000, 7.89,1.09,-7.51,-1.54,2.76,-0.36,-13.19,7.19,46.69,0.36,-0.16,-0.91,-0.12
12960004, 9.46,3.10,-6.66,-1.46,2.29,0.11,-13.19,7.19,46.69,0.36,-0.16,-0.91,-0.13
12970004, 3.32,-0.76,-8.03,-1.94,1.95,0.58,-13.19,7.19,46.69,0.37,-0.17,-0.90,-0.14
12980004, 6.68,0.68,-8.75,-2.25,1.54,0.73,-21.75,4.06,44.69,0.38,-0.18,-0.90,-0.15
12996407, 8.49,1.10,-8.16,-1.69,1.37,0.92,-21.75,4.06,44.69,0.39,-0.19,-0.89,-0.16
13003373, 8.36,3.53,-8.18,-1.33,1.13,1.33,-21.75,4.06,44.69,0.39,-0.19,-0.89,-0.16
13021245, 8.12,1.27,-10.33,-0.78,0.80,0.71,-21.75,4.06,44.69,0.39,-0.20,-0.88,-0.17
13025740, 8.12,1.27,-10.33,-0.78,0.80,0.71,-21.75,4.06,44.69,0.39,-0.20,-0.88,-0.17
13030201, 8.12,1.27,-10.33,-0.44,0.39,0.94,-26.75,0.75,42.75,0.40,-0.20,-0.88,-0.17
13045063, 9.13,2.49,-6.23,0.58,0.38,1.09,-26.75,0.75,42.75,0.40,-0.20,-0.88,-0.16
13052395, -1.32,3.51,-9.83,-0.52,0.61,0.81,-26.75,0.75,42.75,0.40,-0.21,-0.88,-0.17
13060000, -1.32,3.51,-9.83,-0.36,0.34,0.42,-26.75,0.75,42.75,0.40,-0.21,-0.87,-0.17
13070000, 8.06,4.28,-9.29,0.13,0.20,0.36,-26.75,0.75,42.75,0.41,-0.21,-0.87,-0.17
13080004, 8.19,1.70,-7.95,0.14,0.19,0.46,-25.25,0.19,43.38,0.41,-0.21,-0.87,-0.16
13090004, 1.07,0.94,-8.01,-0.03,-0.09,0.29,-25.25,0.19,43.38,0.41,-0.22,-0.87,-0.16
13100004, 3.28,2.32,-8.01,0.00,-0.16,0.20,-25.25,0.19,43.38,0.41,-0.22,-0.87,-0.16
13110000, 3.92,2.21,-8.28,0.09,-0.18,0.21,-25.25,0.19,43.38,0.41,-0.22,-0.87,-0.16
13120000, 3.81,1.53,-8.21,0.11,-0.24,0.12,-25.25,0.19,43.38,0.40,-0.22,-0.87,-0.16
13130005, 3.71,1.90,-8.02,0.11,-0.24,0.12,-25.69,1.06,41.75,0.40,-0.22,-0.87,-0.16
13140000, 4.07,2.12,-7.60,0.15,-0.25,0.08,-25.69,1.06,41.75,0.40,-0.22,-0.87,-0.16
13150004, 4.27,2.24,-7.69,0.19,-0.17,0.04,-25.69,1.06,41.75,0.40,-0.22,-0.88,-0.16
13160000, 5.51,1.50,-7.55,0.13,-0.06,0.07,-25.69,1.06,41.75,0.40,-0.22,-0.88,-0.16
13170000, 4.34,1.46,-7.61,0.08,-0.01,0.09,-25.69,1.06,41.75,0.40,-0.22,-0.88,-0.16
13180005, 4.73,1.41,-7.73,-0.04,-0.01,0.09,-25.25,1.87,41.69,0.40,-0.22,-0.88,-0.16
13190004, 5.41,1.39,-8.03,-0.09,-0.01,0.11,-25.25,1.87,41.69,0.40,-0.22,-0.87,-0.16
13200005, 5.55,1.69,-8.12,-0.09,-0.01,0.16,-25.25,1.87,41.69,0.40,-0.22,-0.87,-0.16
13210000, 5.55,1.91,-8.15,-0.07,0.00,0.23,-25.25,1.87,41.69,0.40,-0.22,-0.87,-0.16
13220000, 5.53,2.10,-8.20,-0.09,0.01,0.26,-25.25,1.87,41.69,0.40,-0.22,-0.87,-0.16
13230005, 5.58,2.29,-8.13,-0.08,0.00,0.29,-25.37,3.00,41.19,0.40,-0.22,-0.87,-0.16
13240000, 5.62,2.46,-8.32,-0.07,0.00,0.29,-25.37,3.00,41.19,0.40,-0.22,-0.87,-0.16
13250000, 5.74,2.68,-8.44,-0.03,-0.02,0.27,-25.37,3.00,41.19,0.40,-0.23,-0.87,-0.16
13260004, 5.63,2.95,-8.23,0.06,-0.01,0.26,-25.37,3.00,41.19,0.40,-0.23,-0.87,-0.16
13270000, 5.41,2.79,-8.21,0.09,-0.01,0.20,-25.37,3.00,41.19,0.40,-0.23,-0.87,-0.15
13280000, 5.78,3.11,-8.36,0.09,-0.01,0.20,-26.50,3.56,39.50,0.40,-0.23,-0.87,-0.15
13290000, 5.69,3.15,-8.13,0.13,-0.04,-0.01,-26.50,3.56,39.50,0.40,-0.23,-0.87,-0.15
13300000, 5.39,3.02,-8.01,0.14,-0.05,-0.11,-26.50,3.56,39.50,0.40,-0.23,-0.87,-0.15
13310004, 5.29,3.04,-8.06,0.18,-0.07,-0.22,-26.50,3.56,39.50,0.40,-0.23,-0.87,-0.15
13320004, 5.51,3.03,-8.06,0.23,-0.08,-0.31,-26.50,3.56,39.50,0.40,-0.22,-0.87,-0.15
13330005, 5.64,3.02,-8.09,0.30,-0.08,-0.40,-25.88,4.19,40.25,0.40,-0.22,-0.88,-0.15
13340004, 5.77,3.00,-8.03,0.40,-0.09,-0.50,-25.88,4.19,40.25,0.40,-0.22,-0.88,-0.15
13350004, 5.86,2.30,-7.46,0.52,-0.06,-0.57,-25.88,4.19,40.25,0.40,-0.21,-0.88,-0.15
13360005, 5.79,2.00,-7.30,0.59,-0.01,-0.63,-25.88,4.19,40.25,0.40,-0.21,-0.88,-0.15
13370000, 5.72,1.56,-7.15,0.68,0.04,-0.62,-25.88,4.19,40.25,0.40,-0.21,-0.88,-0.15
13380000, 5.83,1.58,-6.75,0.68,0.04,-0.62,-27.50,5.19,41.00,0.40,-0.20,-0.88,-0.15
13390005, 5.08,0.66,-6.44,0.69,0.14,-0.64,-27.50,5.19,41.00,0.40,-0.20,-0.88,-0.15
13400005, 5.08,0.26,-6.98,0.42,0.28,-0.41,-27.50,5.19,41.00,0.40,-0.20,-0.88,-0.14
13410000, 6.45,0.37,-7.14,0.32,0.19,-0.37,-27.50,5.19,41.00,0.40,-0.19,-0.88,-0.14
13420000, 7.23,0.33,-7.33,0.43,0.05,-0.22,-27.50,5.19,41.00,0.40,-0.19,-0.88,-0.14
13430000, 7.13,1.60,-6.69,0.43,0.05,-0.22,-29.25,5.19,42.56,0.40,-0.19,-0.88,-0.14
13440000, 7.41,0.67,-7.33,0.10,0.07,-0.36,-29.25,5.19,42.56,0.40,-0.19,-0.88,-0.14
13450004, 8.02,0.88,-7.48,-0.16,-0.02,-0.60,-29.25,5.19,42.56,0.40,-0.19,-0.88,-0.15
13460000, 9.74,2.40,-7.13,-0.07,-0.28,-0.50,-29.25,5.19,42.56,0.40,-0.18,-0.89,-0.15
13470000, 9.13,2.52,-6.51,0.18,-0.48,-0.39,-29.25,5.19,42.56,0.40,-0.18,-0.89,-0.15
13480000, 7.66,2.17,-5.71,0.18,-0.48,-0.39,-31.06,5.19,44.19,0.40,-0.18,-0.89,-0.15
13490005, 6.36,1.65,-5.00,0.36,-0.51,-0.25,-31.06,5.19,44.19,0.40,-0.18,-0.89,-0.14
13504757, 7.52,0.63,-4.98,0.27,-0.19,-0.14,-31.06,5.19,44.19,0.40,-0.18,-0.89,-0.14
13512430, 7.66,0.68,-4.81,0.22,-0.16,-0.19,-31.06,5.19,44.19,0.39,-0.18,-0.89,-0.14
13520004, 7.66,0.68,-4.81,0.22,-0.15,-0.21,-31.06,5.19,44.19,0.39,-0.18,-0.89,-0.14
13530000, 7.26,0.85,-4.78,0.22,-0.15,-0.21,-27.69,4.19,44.69,0.39,-0.17,-0.89,-0.14
13540000, 7.28,0.81,-5.02,0.19,-0.08,-0.15,-27.69,4.19,44.69,0.39,-0.17,-0.89,-0.14
13550000, 8.16,0.59,-5.98,-0.08,-0.12,-0.15,-27.69,4.19,44.69,0.39,-0.17,-0.89,-0.14
13560000, 9.85,0.50,-6.72,-0.15,-0.47,-0.39,-27.69,4.19,44.69,0.39,-0.17,-0.89,-0.14
13570000, 11.65,1.46,-6.60,-0.06,-0.93,-0.59,-27.69,4.19,44.69,0.39,-0.17,-0.90,-0.14
13580000, 10.14,1.63,-5.94,-0.06,-0.93,-0.59,-26.06,4.06,42.69,0.38,-0.17,-0.90,-0.14
13590004, 7.36,1.70,-5.16,0.09,-1.22,-0.64,-26.06,4.06,42.69,0.37,-0.17,-0.90,-0.14
13600000, 5.25,1.59,-4.47,0.33,-1.03,-0.60,-26.06,4.06,42.69,0.37,-0.16,-0.90,-0.14
13610000, 4.76,0.72,-4.28,0.23,-0.83,-0.59,-26.06,4.06,42.69,0.37,-0.16,-0.91,-0.14
13620000, 5.49,0.55,-4.75,0.14,-0.72,-0.69,-26.06,4.06,42.69,0.36,-0.16,-0.91,-0.14
13630004, 5.85,0.59,-5.14,0.14,-0.72,-0.69,-22.75,1.69,44.19,0.36,-0.16,-0.91,-0.14
13640004, 5.55,0.77,-4.99,0.15,-0.69,-0.79,-22.75,1.69,44.19,0.36,-0.15,-0.91,-0.14
13650000, 4.53,0.93,-4.89,0.30,-0.48,-0.75,-22.75,1.69,44.19,0.35,-0.15,-0.91,-0.14
13660005, 4.56,0.65,-5.59,0.28,-0.35,-0.68,-22.75,1.69,44.19,0.35,-0.15,-0.91,-0.14
13670000, 6.23,0.16,-6.36,0.19,-0.45,-0.70,-22.75,1.69,44.19,0.35,-0.14,-0.92,-0.14
13680004, 8.42,-0.14,-7.08,0.19,-0.45,-0.70,-19.75,-0.06,45.50,0.35,-0.14,-0.92,-0.14
13690000, 8.62,-0.06,-7.42,0.15,-0.77,-0.81,-19.75,-0.06,45.50,0.34,-0.14,-0.92,-0.14
13700004, 7.82,0.05,-7.17,0.13,-1.28,-0.86,-19.75,-0.06,45.50,0.33,-0.13,-0.92,-0.14
13710000, 6.88,0.01,-6.76,0.17,-1.33,-0.82,-19.75,-0.06,45.50,0.33,-0.13,-0.93,-0.14
13720005, 6.39,0.05,-6.36,0.23,-1.32,-0.73,-19.75,-0.06,45.50,0.32,-0.13,-0.93,-0.14
13730005, 6.66,0.01,-6.51,0.23,-1.32,-0.73,-19.37,-2.00,44.56,0.32,-0.12,-0.93,-0.14
13740000, 6.99,-0.03,-6.49,0.30,-1.29,-0.62,-19.37,-2.00,44.56,0.31,-0.12,-0.93,-0.14
13750004, 7.02,-0.14,-6.21,0.43,-1.21,-0.42,-19.37,-2.00,44.56,0.30,-0.12,-0.94,-0.13
13760005, 6.65,-0.26,-6.20,0.34,-1.09,-0.29,-19.37,-2.00,44.56,0.30,-0.12,-0.94,-0.13
13770000, 7.44,-0.05,-6.28,0.30,-1.02,-0.16,-19.37,-2.00,44.56,0.29,-0.12,-0.94,-0.13
13780000, 8.19,0.44,-6.63,0.30,-1.02,-0.16,-17.25,-2.50,47.00,0.29,-0.12,-0.94,-0.13
13790000, 8.86,0.59,-7.29,0.29,-1.00,-0.09,-17.25,-2.50,47.00,0.29,-0.12,-0.94,-0.13
13800000, 10.81,1.12,-7.19,0.29,-1.31,-0.01,-17.25,-2.50,47.00,0.28,-0.12,-0.94,-0.12
13810004, 10.42,1.30,-6.93,0.28,-1.43,-0.01,-17.25,-2.50,47.00,0.27,-0.12,-0.95,-0.12
13820000, 9.57,1.25,-6.55,0.22,-1.46,0.02,-17.25,-2.50,47.00,0.27,-0.12,-0.95,-0.12
13830000, 8.13,0.94,-5.59,0.22,-1.46,0.02,-13.25,-0.69,45.75,0.26,-0.12,-0.95,-0.12
13840004, 7.85,0.59,-5.35,0.13,-1.36,0.04,-13.25,-0.69,45.75,0.25,-0.12,-0.95,-0.12
13850004, 8.09,0.16,-5.41,-0.18,-1.07,0.01,-13.25,-0.69,45.75,0.25,-0.12,-0.95,-0.12
13860005, 8.55,0.01,-5.54,-0.31,-0.98,-0.03,-13.25,-0.69,45.75,0.24,-0.12,-0.95,-0.12
13870000, 9.33,0.09,-5.27,-0.35,-0.95,-0.04,-13.25,-0.69,45.75,0.24,-0.12,-0.96,-0.12
13880004, 8.91,0.12,-5.03,-0.35,-0.95,-0.04,-13.25,-0.69,45.75,0.24,-0.12,-0.96,-0.12
13890000, 8.40,0.01,-4.82,-0.35,-0.88,0.00,-10.50,-1.00,47.06,0.23,-0.13,-0.96,-0.12
13900004, 8.57,-0.05,-5.03,-0.35,-0.70,0.14,-10.50,-1.00,47.06,0.23,-0.13,-0.96,-0.12
13910005, 9.25,-0.02,-4.62,-0.35,-0.67,0.22,-10.50,-1.00,47.06,0.23,-0.13,-0.96,-0.12
13920004, 8.91,0.20,-4.42,-0.31,-0.63,0.32,-10.50,-1.00,47.06,0.22,-0.13,-0.96,-0.12
13930000, 8.32,0.30,-4.18,-0.31,-0.63,0.32,-7.50,-1.37,47.75,0.22,-0.13,-0.96,-0.13
13940004, 7.64,0.14,-4.02,-0.30,-0.55,0.44,-7.50,-1.37,47.75,0.22,-0.14,-0.96,-0.13
13950005, 7.62,0.05,-4.06,0.41,-0.40,0.66,-7.50,-1.37,47.75,0.22,-0.14,-0.96,-0.12
13960005, 9.31,5.25,-6.59,2.54,-0.16,1.28,-7.50,-1.37,47.75,0.22,-0.14,-0.96,-0.11
13970000, 10.23,3.43,-1.68,1.09,0.26,2.62,-7.50,-1.37,47.75,0.22,-0.15,-0.96,-0.10
13987641, 2.11,-0.34,-13.24,0.68,-0.22,3.04,-6.00,-2.00,47.50,0.22,-0.17,-0.96,-0.10
13992137, 3.48,4.48,-15.33,0.51,-0.32,1.84,-6.00,-2.00,47.50,0.22,-0.18,-0.95,-0.09
14000004, 3.48,4.48,-15.33,-0.33,0.32,-0.11,-6.00,-2.00,47.50,0.22,-0.18,-0.95,-0.09
14015218, 10.95,5.54,-6.20,0.12,0.50,-1.11,-6.00,-2.00,47.50,0.23,-0.17,-0.95,-0.09
14023252, 9.33,2.24,-3.93,0.37,0.48,-0.09,-6.00,-2.00,47.50,0.23,-0.17,-0.95,-0.09
14030000, 9.33,2.24,-3.93,0.37,0.48,-0.09,-6.00,-2.00,47.50,0.23,-0.17,-0.95,-0.09
14040005, 6.08,2.92,-5.88,0.56,0.72,1.09,-5.56,1.56,47.19,0.24,-0.17,-0.95,-0.09
14050000, 9.06,-1.83,-10.08,0.61,0.65,0.02,-5.56,1.56,47.19,0.24,-0.17,-0.95,-0.08
14060000, 6.16,-2.70,-10.42,0.71,0.71,0.22,-5.56,1.56,47.19,0.24,-0.17,-0.95,-0.08
14070000, 2.81,-1.20,-8.70,0.46,0.74,-0.24,-5.56,1.56,47.19,0.25,-0.17,-0.95,-0.08
14080005, 3.30,-1.06,-8.37,0.46,0.74,-0.24,-5.56,1.56,47.19,0.25,-0.17,-0.95,-0.08
14090005, 6.99,-0.73,-8.77,0.35,0.57,-0.42,-5.87,2.69,47.38,0.25,-0.17,-0.95,-0.08
14100000, 6.49,0.40,-8.59,0.32,0.48,-0.17,-5.87,2.69,47.38,0.26,-0.17,-0.95,-0.08
14110000, 4.82,0.41,-8.19,0.33,0.43,-0.19,-5.87,2.69,47.38,0.26,-0.16,-0.95,-0.08
14120004, 4.52,0.32,-8.32,0.24,0.30,-0.14,-5.87,2.69,47.38,0.26,-0.16,-0.95,-0.07
14130004, 5.38,0.37,-8.43,0.24,0.30,-0.14,-5.87,2.69,47.38,0.26,-0.16,-0.95,-0.07
14140005, 5.45,0.16,-8.42,0.25,0.27,-0.02,-7.75,3.56,47.06,0.26,-0.16,-0.95,-0.07
14150000, 5.97,-0.42,-8.58,0.17,0.18,0.08,-7.75,3.56,47.06,0.26,-0.16,-0.95,-0.07
14160000, 5.90,-0.12,-8.36,0.19,0.11,0.13,-7.75,3.56,47.06,0.26,-0.16,-0.95,-0.07
14170000, 4.97,0.06,-8.51,0.17,0.14,0.01,-7.75,3.56,47.06,0.26,-0.16,-0.95,-0.07
14180005, 4.98,0.40,-8.46,0.15,0.09,0.00,-7.75,3.56,47.06,0.26,-0.16,-0.95,-0.07
14190000, 5.25,0.26,-8.38,0.14,0.09,0.04,-9.38,4.56,46.75,0.26,-0.16,-0.95,-0.07
14200004, 5.33,-0.22,-8.55,0.11,0.06,0.05,-9.38,4.56,46.75,0.27,-0.16,-0.95,-0.07
14210004, 5.29,-0.15,-8.57,0.09,0.07,-0.01,-9.38,4.56,46.75,0.27,-0.16,-0.95,-0.07
14220005, 5.08,0.17,-8.53,0.08,0.07,-0.09,-9.38,4.56,46.75,0.27,-0.16,-0.95,-0.07
14230000, 5.04,0.45,-8.38,0.07,0.08,-0.11,-9.38,4.56,46.75,0.27,-0.16,-0.95,-0.07
14240004, 5.11,0.40,-8.34,0.04,0.06,-0.06,-8.69,4.69,47.88,0.27,-0.16,-0.95,-0.07
14250005, 5.23,0.30,-8.34,0.03,0.05,-0.04,-8.69,4.69,47.88,0.27,-0.16,-0.95,-0.07
14260000, 5.17,0.35,-8.38,0.03,0.05,-0.05,-8.69,4.69,47.88,0.27,-0.16,-0.95,-0.07
14270005, 5.15,0.42,-8.36,0.02,0.05,-0.04,-8.69,4.69,47.88,0.27,-0.16,-0.95,-0.07
14280000, 5.15,0.32,-8.39,0.02,0.04,-0.02,-8.69,4.69,47.88,0.27,-0.16,-0.95,-0.07
14290000, 5.19,0.19,-8.37,0.00,0.03,-0.01,-9.38,5.06,47.56,0.27,-0.16,-0.95,-0.07
14300000, 5.26,0.14,-8.39,-0.01,0.03,-0.02,-9.38,5.06,47.56,0.27,-0.16,-0.95,-0.07
14310005, 5.17,0.21,-8.43,-0.03,0.03,-0.05,-9.38,5.06,47.56,0.27,-0.16,-0.95,-0.07
14320004, 5.09,0.29,-8.38,-0.05,0.02,-0.08,-9.38,5.06,47.56,0.27,-0.16,-0.95,-0.07
14330004, 5.03,0.38,-8.40,-0.07,0.02,-0.09,-9.38,5.06,47.56,0.27,-0.16,-0.95,-0.07
14340000, 5.06,0.42,-8.30,-0.07,0.02,-0.07,-9.75,4.69,46.69,0.27,-0.16,-0.95,-0.07
14350000, 5.21,0.39,-8.19,-0.08,0.01,-0.05,-9.75,4.69,46.69,0.27,-0.16,-0.95,-0.07
14360000, 5.19,0.46,-8.17,-0.07,0.00,-0.05,-9.75,4.69,46.69,0.27,-0.16,-0.95,-0.07
14370005, 5.14,0.53,-8.16,-0.05,-0.03,-0.04,-9.75,4.69,46.69,0.27,-0.16,-0.95,-0.07
14380000, 5.14,0.51,-8.19,-0.05,-0.05,-0.01,-9.75,4.69,46.69,0.27,-0.16,-0.95,-0.07
14390004, 5.18,0.35,-8.20,-0.04,-0.08,0.01,-9.75,5.06,47.56,0.27,-0.16,-0.95,-0.07
