Timestamp_us,AccelX,AccelY,AccelZ,GyroX,GyroY,GyroZ,MagX,MagY,MagZ,QuatW,QuatX,QuatY,QuatZ
1439912, 9.57,-0.67,-0.14,0.05,0.11,-0.02,-24.37,18.87,36.75,0.69,-0.05,-0.72,-0.00
1446835, 9.57,-0.67,-0.14,0.02,0.09,-0.01,-24.37,18.87,36.75,0.69,-0.05,-0.72,-0.00
1451949, 9.52,-0.62,-0.11,0.02,0.09,-0.01,-24.37,18.87,36.75,0.69,-0.05,-0.72,-0.00
1459822, 9.50,-0.61,-0.23,-0.00,0.08,-0.01,-24.37,18.87,36.75,0.69,-0.05,-0.72,-0.00
1474475, 9.51,-0.60,-0.35,-0.02,0.08,-0.01,-14.19,12.25,22.50,0.69,-0.05,-0.72,-0.00
1479468, 9.42,-0.56,-0.52,-0.03,0.08,-0.01,-14.19,12.25,22.50,0.69,-0.05,-0.72,-0.00
1485154, 9.42,-0.56,-0.52,-0.03,0.08,-0.01,-14.19,12.25,22.50,0.69,-0.05,-0.72,-0.00
1491332, 9.39,-0.52,-0.41,-0.01,0.10,-0.01,-14.19,12.25,22.50,0.69,-0.05,-0.72,-0.00
1498954, 9.49,-0.53,-0.23,0.06,0.11,-0.01,-14.19,12.25,22.50,0.69,-0.05,-0.72,-0.00
1514072, 9.61,-0.56,0.03,0.15,0.11,-0.02,-14.19,12.25,22.50,0.69,-0.05,-0.72,-0.00
1518518, 9.61,-0.56,0.03,0.21,0.11,-0.02,-13.75,11.69,22.25,0.69,-0.05,-0.72,-0.00
1522969, 9.78,-0.94,0.35,0.21,0.11,-0.02,-13.75,11.69,22.25,0.69,-0.05,-0.72,-0.00
1537584, 9.80,-1.20,0.44,0.10,0.06,-0.02,-13.75,11.69,22.25,0.69,-0.05,-0.72,0.00
1542604, 9.74,-1.33,0.55,0.10,0.06,-0.02,-13.75,11.69,22.25,0.69,-0.05,-0.72,0.00
1550319, 9.56,-1.04,0.38,-0.04,0.02,-0.02,-13.75,11.69,22.25,0.69,-0.05,-0.72,0.00
1556509, 9.56,-1.04,0.38,-0.15,-0.01,-0.02,-13.75,11.69,22.25,0.69,-0.05,-0.72,-0.00
1562286, 9.54,-0.76,0.26,-0.15,-0.01,-0.02,-13.75,11.69,22.25,0.69,-0.05,-0.72,-0.00
1576938, 9.60,-0.50,0.10,-0.19,-0.04,-0.01,-15.38,11.19,21.37,0.69,-0.05,-0.72,-0.00
1581607, 9.70,-0.29,0.00,-0.15,-0.04,-0.01,-15.38,11.19,21.37,0.69,-0.05,-0.72,-0.00
1589458, 9.61,-0.25,-0.18,-0.05,-0.04,-0.01,-15.38,11.19,21.37,0.69,-0.05,-0.72,-0.00
1594585, 9.61,-0.25,-0.18,-0.05,-0.04,-0.01,-15.38,11.19,21.37,0.69,-0.05,-0.72,-0.00
1601265, 9.55,-0.48,-0.21,0.06,-0.03,-0.01,-15.38,11.19,21.37,0.69,-0.05,-0.72,-0.00
1608559, 9.49,-0.75,-0.22,0.11,-0.02,-0.00,-15.38,11.19,21.37,0.69,-0.05,-0.72,-0.00
1623542, 9.51,-0.99,-0.28,0.07,-0.02,-0.00,-14.56,11.00,21.37,0.69,-0.05,-0.72,-0.00
1627989, 9.51,-0.99,-0.28,-0.04,-0.02,0.00,-14.56,11.00,21.37,0.69,-0.05,-0.72,-0.00
1632805, 9.64,-1.15,-0.35,-0.04,-0.02,0.00,-14.56,11.00,21.37,0.69,-0.05,-0.72,-0.00
1640381, 9.59,-1.01,-0.43,-0.18,-0.02,-0.00,-14.56,11.00,21.37,0.69,-0.05,-0.72,-0.00
1656516, 9.46,-0.68,-0.46,-0.27,-0.02,0.00,-14.56,11.00,21.37,0.69,-0.05,-0.72,-0.00
1662498, 9.42,-0.42,-0.49,-0.27,-0.02,0.00,-14.56,11.00,21.37,0.69,-0.05,-0.72,-0.00
1666949, 9.42,-0.42,-0.49,-0.27,-0.02,0.00,-14.19,11.00,21.50,0.69,-0.05,-0.72,-0.00
1681828, 9.55,-0.22,-0.63,-0.05,0.02,0.00,-14.19,11.00,21.50,0.69,-0.05,-0.72,-0.00
1689703, 9.44,-0.36,-0.68,0.08,0.05,0.01,-14.19,11.00,21.50,0.69,-0.05,-0.72,-0.00
1694669, 9.44,-0.36,-0.68,0.08,0.05,0.01,-14.19,11.00,21.50,0.69,-0.05,-0.72,-0.00
1701541, 9.39,-0.70,-0.62,0.17,0.08,0.01,-14.19,11.00,21.50,0.69,-0.05,-0.72,-0.00
1708644, 9.47,-0.70,-0.55,0.20,0.10,0.01,-14.19,11.00,21.50,0.69,-0.05,-0.72,-0.00
1723789, 9.53,-0.71,-0.39,0.21,0.13,0.00,-14.87,11.38,21.75,0.69,-0.05,-0.72,-0.00
1728244, 9.53,-0.71,-0.39,0.19,0.14,-0.00,-14.87,11.38,21.75,0.69,-0.05,-0.72,-0.00
1732947, 9.60,-0.80,-0.27,0.19,0.14,-0.00,-14.87,11.38,21.75,0.69,-0.05,-0.72,-0.00
1740425, 9.70,-1.15,0.00,0.14,0.13,-0.01,-14.87,11.38,21.75,0.69,-0.05,-0.72,-0.00
1756337, 9.60,-1.18,0.07,0.05,0.12,-0.01,-14.87,11.38,21.75,0.69,-0.05,-0.72,-0.00
1762682, 9.53,-1.10,0.15,-0.06,0.10,-0.01,-14.87,11.38,21.75,0.69,-0.05,-0.72,-0.00
1767135, 9.53,-1.10,0.15,-0.06,0.10,-0.01,-14.87,11.38,21.75,0.69,-0.05,-0.72,-0.00
1782009, 9.64,-0.38,0.17,-0.09,0.08,-0.02,-14.56,11.75,21.37,0.69,-0.05,-0.72,-0.00
1789399, 9.58,-0.34,0.11,0.01,0.08,-0.02,-14.56,11.75,21.37,0.69,-0.05,-0.72,-0.00
1793914, 9.58,-0.34,0.11,0.01,0.08,-0.02,-14.56,11.75,21.37,0.69,-0.05,-0.72,-0.00
1801464, 9.53,-0.48,0.05,0.11,0.08,-0.01,-14.56,11.75,21.37,0.69,-0.05,-0.72,-0.00
1807950, 9.53,-0.48,0.05,0.17,0.08,-0.01,-14.56,11.75,21.37,0.69,-0.05,-0.72,-0.00
1823658, 9.59,-0.77,0.01,0.17,0.08,-0.01,-15.56,12.19,20.69,0.69,-0.05,-0.72,-0.00
1840550, 9.61,-0.71,0.06,0.09,0.06,-0.01,-15.56,12.19,20.69,0.70,-0.05,-0.72,-0.00
1845053, 9.61,-0.71,0.06,0.09,0.06,-0.01,-15.56,12.19,20.69,0.70,-0.05,-0.72,-0.00
1852020, 9.57,-0.61,0.08,0.06,0.06,-0.01,-15.56,12.19,20.69,0.70,-0.05,-0.72,-0.00
1857926, 9.57,-0.61,0.08,0.04,0.04,-0.01,-15.56,12.19,20.69,0.70,-0.05,-0.72,0.00
1863589, 9.52,-0.72,0.01,0.04,0.04,-0.01,-15.56,12.19,20.69,0.70,-0.05,-0.72,0.00
1878266, 9.54,-0.74,0.07,0.01,0.04,-0.01,-15.69,11.69,19.56,0.70,-0.05,-0.72,0.00
1882905, 9.60,-0.68,0.09,-0.01,0.03,-0.01,-15.69,11.69,19.56,0.70,-0.05,-0.72,0.00
1888384, 9.60,-0.68,0.09,-0.01,0.03,-0.01,-15.69,11.69,19.56,0.70,-0.05,-0.72,0.00
1893719, 9.61,-0.56,0.00,-0.01,0.03,-0.01,-15.69,11.69,19.56,0.70,-0.05,-0.72,0.00
1901055, 9.54,-0.61,0.00,-0.00,0.03,-0.01,-15.69,11.69,19.56,0.70,-0.05,-0.72,0.00
1915687, 9.53,-0.61,0.05,0.01,0.02,0.00,-15.69,11.69,19.56,0.70,-0.05,-0.72,0.00
1920146, 9.57,-0.57,0.05,0.04,0.02,-0.00,-15.06,11.75,20.88,0.70,-0.05,-0.72,0.00
1924585, 9.57,-0.57,0.05,0.04,0.02,-0.00,-15.06,11.75,20.88,0.70,-0.05,-0.72,0.00
1939212, 9.63,-0.72,0.10,0.08,0.02,-0.00,-15.06,11.75,20.88,0.70,-0.05,-0.71,0.00
1944263, 9.64,-0.80,0.10,0.08,0.02,-0.00,-15.06,11.75,20.88,0.70,-0.05,-0.71,0.00
1951611, 9.58,-0.79,0.07,0.05,0.01,-0.00,-15.06,11.75,20.88,0.70,-0.05,-0.71,0.00
1956474, 9.58,-0.79,0.07,0.05,0.01,-0.00,-15.06,11.75,20.88,0.70,-0.05,-0.71,0.00
1963207, 9.52,-0.74,0.10,0.01,0.01,-0.00,-15.06,11.75,20.88,0.70,-0.05,-0.71,0.00
1977878, 9.61,-0.69,0.06,-0.03,-0.01,-0.00,-15.06,10.38,20.50,0.70,-0.05,-0.71,0.00
1983703, 9.62,-0.66,0.00,-0.03,-0.01,-0.00,-15.06,10.38,20.50,0.70,-0.05,-0.71,0.00
1991116, 9.57,-0.64,-0.02,-0.03,-0.01,-0.00,-15.06,10.38,20.50,0.70,-0.05,-0.71,0.00
1995557, 9.57,-0.64,-0.02,-0.03,-0.01,-0.00,-15.06,10.38,20.50,0.70,-0.05,-0.71,0.00
2002723, 9.50,-0.49,0.00,-0.03,-0.01,-0.00,-15.06,10.38,20.50,0.70,-0.05,-0.71,0.00
2018862, 9.55,-0.49,-0.08,-0.00,0.00,0.00,-14.00,11.06,19.25,0.70,-0.05,-0.71,0.00
2023527, 9.61,-0.53,-0.05,0.05,0.01,0.00,-14.00,11.06,19.25,0.70,-0.05,-0.71,0.00
2027974, 9.61,-0.53,-0.05,0.05,0.01,0.00,-14.00,11.06,19.25,0.70,-0.05,-0.71,0.00
2042854, 9.54,-0.78,-0.05,0.08,0.01,0.00,-14.00,11.06,19.25,0.70,-0.05,-0.71,0.00
2048925, 9.54,-0.78,-0.05,0.08,0.02,-0.00,-14.00,11.06,19.25,0.70,-0.05,-0.71,0.00
2054407, 9.55,-0.77,0.00,0.08,0.02,-0.00,-14.00,11.06,19.25,0.70,-0.05,-0.71,0.00
2061787, 9.58,-0.79,0.08,0.08,0.02,-0.00,-14.00,11.06,19.25,0.70,-0.05,-0.71,0.00
2076411, 9.59,-0.92,0.05,0.06,0.01,-0.00,-15.00,11.19,20.37,0.70,-0.05,-0.71,0.00
2080862, 9.57,-0.86,0.03,0.01,0.01,-0.00,-15.00,11.19,20.37,0.70,-0.05,-0.71,0.00
2085305, 9.57,-0.86,0.03,0.01,0.01,-0.00,-15.00,11.19,20.37,0.70,-0.05,-0.71,0.00
2091971, 9.59,-0.71,0.04,-0.03,-0.00,-0.01,-15.00,11.19,20.37,0.70,-0.05,-0.71,0.00
2107220, 9.59,-0.56,0.04,-0.02,-0.00,-0.01,-15.00,11.19,20.37,0.70,-0.05,-0.71,0.00
2113957, 9.50,-0.59,0.00,0.02,-0.00,-0.01,-15.00,11.19,20.37,0.70,-0.05,-0.71,0.00
2118399, 9.50,-0.59,0.00,0.02,-0.00,-0.01,-15.00,11.19,20.37,0.70,-0.05,-0.71,0.00
2133284, 9.52,-0.60,-0.04,0.06,0.01,-0.00,-15.25,10.50,20.69,0.70,-0.05,-0.71,0.00
2137728, 9.52,-0.60,-0.04,0.06,0.01,-0.00,-15.25,10.50,20.69,0.70,-0.05,-0.71,0.00
2143866, 9.58,-0.68,-0.09,0.07,0.01,-0.01,-15.25,10.50,20.69,0.70,-0.05,-0.71,0.00
2150165, 9.58,-0.68,-0.09,0.07,0.02,-0.01,-15.25,10.50,20.69,0.70,-0.05,-0.71,0.00
2165387, 9.54,-0.78,-0.11,0.06,0.02,-0.01,-15.25,10.50,20.69,0.70,-0.05,-0.71,0.00
2169834, 9.54,-0.78,-0.11,0.06,0.02,-0.01,-14.56,10.50,21.00,0.70,-0.05,-0.71,0.00
2174515, 9.52,-0.72,-0.05,0.04,0.02,-0.00,-14.56,10.50,21.00,0.70,-0.05,-0.71,0.00
2189161, 9.51,-0.51,-0.07,0.02,0.03,-0.00,-14.56,10.50,21.00,0.70,-0.05,-0.71,0.00
2194793, 9.53,-0.53,-0.11,0.02,0.03,-0.00,-14.56,10.50,21.00,0.70,-0.05,-0.71,0.00
2201856, 9.55,-0.57,-0.06,0.05,0.03,-0.00,-14.56,10.50,21.00,0.70,-0.05,-0.71,0.00
2206300, 9.55,-0.57,-0.06,0.05,0.03,-0.00,-14.56,10.50,21.00,0.70,-0.05,-0.71,0.00
2224480, 9.47,-0.70,0.03,0.09,0.04,-0.00,-13.75,11.19,19.25,0.70,-0.04,-0.71,0.00
2228952, 9.47,-0.70,0.03,0.09,0.04,-0.00,-13.75,11.19,19.25,0.70,-0.04,-0.71,0.00
2233624, 9.51,-0.75,0.04,0.08,0.04,0.00,-13.75,11.19,19.25,0.70,-0.04,-0.71,0.00
2248280, 9.58,-0.75,0.01,0.06,0.04,0.00,-13.75,11.19,19.25,0.70,-0.04,-0.71,0.00
2264325, 9.58,-0.61,0.07,0.02,0.04,-0.00,-13.75,11.19,19.25,0.70,-0.04,-0.71,0.00
2268834, 9.58,-0.61,0.07,0.02,0.04,-0.00,-13.75,11.19,19.25,0.70,-0.04,-0.71,0.01
2273498, 9.58,-0.62,0.10,0.03,0.04,-0.00,-13.50,10.75,20.50,0.70,-0.04,-0.71,0.01
2288158, 9.57,-0.64,0.11,0.04,0.04,-0.00,-13.50,10.75,20.50,0.70,-0.04,-0.71,0.01
2294522, 9.60,-0.65,0.13,0.04,0.04,0.00,-13.50,10.75,20.50,0.70,-0.04,-0.71,0.01
2301348, 9.63,-0.64,0.14,0.05,0.04,-0.00,-13.50,10.75,20.50,0.70,-0.04,-0.71,0.01
2306066, 9.63,-0.64,0.14,0.05,0.04,-0.00,-13.50,10.75,20.50,0.70,-0.04,-0.71,0.01
2313362, 9.59,-0.67,0.11,0.05,0.03,0.00,-13.50,10.75,20.50,0.70,-0.04,-0.71,0.01
2327998, 9.54,-0.71,0.12,0.05,0.03,0.00,-14.56,11.19,19.50,0.70,-0.04,-0.71,0.01
2332626, 9.55,-0.64,0.17,0.03,0.03,0.00,-14.56,11.19,19.50,0.70,-0.04,-0.71,0.01
2337075, 9.55,-0.64,0.17,0.03,0.03,0.00,-14.56,11.19,19.50,0.70,-0.04,-0.71,0.01
2343154, 9.58,-0.59,0.09,0.03,0.02,0.00,-14.56,11.19,19.50,0.70,-0.04,-0.71,0.01
2358375, 9.59,-0.61,0.10,0.02,0.02,0.00,-14.56,11.19,19.50,0.70,-0.04,-0.71,0.01
2364931, 9.57,-0.66,0.10,0.03,0.02,0.00,-14.56,11.19,19.50,0.70,-0.04,-0.71,0.01
2369375, 9.57,-0.66,0.10,0.03,0.02,0.00,-14.56,11.19,19.50,0.70,-0.04,-0.71,0.01
2384257, 9.52,-0.63,0.13,0.04,0.02,0.00,-16.06,11.19,18.69,0.70,-0.04,-0.71,0.01
2388701, 9.52,-0.63,0.13,0.04,0.02,0.00,-16.06,11.19,18.69,0.70,-0.04,-0.71,0.01
2395041, 9.49,-0.63,0.12,0.05,0.02,0.00,-16.06,11.19,18.69,0.70,-0.04,-0.71,0.01
2401637, 9.60,-0.60,0.22,0.06,0.02,0.00,-16.06,11.19,18.69,0.70,-0.04,-0.71,0.01
2406371, 9.60,-0.60,0.22,0.06,0.02,0.00,-16.06,11.19,18.69,0.70,-0.04,-0.71,0.01
2413783, 9.60,-0.67,0.17,0.06,0.02,0.00,-16.06,11.19,18.69,0.70,-0.04,-0.71,0.01
2428427, 9.58,-0.67,0.16,0.04,0.01,0.01,-15.38,10.88,20.37,0.70,-0.04,-0.71,0.01
2433051, 9.57,-0.63,0.13,0.01,0.00,0.01,-15.38,10.88,20.37,0.70,-0.04,-0.71,0.01
2437494, 9.57,-0.63,0.13,0.01,0.00,0.01,-15.38,10.88,20.37,0.70,-0.04,-0.71,0.01
2443928, 9.55,-0.59,0.08,-0.02,-0.00,0.01,-15.38,10.88,20.37,0.70,-0.04,-0.71,0.01
2459671, 9.52,-0.57,0.09,-0.02,-0.01,0.01,-15.38,10.88,20.37,0.70,-0.04,-0.71,0.01
2465790, 9.53,-0.61,0.04,-0.01,-0.00,0.01,-15.38,10.88,20.37,0.70,-0.04,-0.71,0.01
2470247, 9.53,-0.61,0.04,-0.00,-0.00,0.02,-14.25,11.56,19.06,0.70,-0.04,-0.71,0.01
2486067, 9.54,-0.59,0.03,0.00,0.00,0.02,-14.25,11.56,19.06,0.70,-0.04,-0.71,0.01
2493530, 9.52,-0.56,0.02,0.01,0.00,0.02,-14.25,11.56,19.06,0.70,-0.04,-0.71,0.01
2497977, 9.52,-0.56,0.02,0.01,0.00,0.02,-14.25,11.56,19.06,0.70,-0.04,-0.71,0.01
2504896, 9.56,-0.59,0.02,0.03,0.01,0.02,-14.25,11.56,19.06,0.70,-0.04,-0.71,0.01
2511229, 9.56,-0.59,0.02,0.05,0.02,0.02,-14.25,11.56,19.06,0.70,-0.04,-0.71,0.01
2526835, 9.51,-0.68,0.00,0.05,0.02,0.02,-15.06,10.56,18.69,0.70,-0.04,-0.71,0.01
2531283, 9.51,-0.68,0.00,0.04,0.02,0.03,-15.06,10.56,18.69,0.70,-0.04,-0.71,0.01
2535955, 9.48,-0.67,0.01,0.04,0.02,0.03,-15.06,10.56,18.69,0.70,-0.04,-0.71,0.01
2550611, 9.52,-0.66,0.05,0.03,0.03,0.02,-15.06,10.56,18.69,0.70,-0.04,-0.71,0.01
2556189, 9.55,-0.63,0.07,0.03,0.03,0.02,-15.06,10.56,18.69,0.70,-0.04,-0.71,0.01
2563671, 9.59,-0.63,0.06,0.04,0.03,0.03,-15.06,10.56,18.69,0.70,-0.04,-0.71,0.01
2568125, 9.59,-0.63,0.06,0.04,0.03,0.03,-15.06,10.56,18.69,0.70,-0.04,-0.71,0.01
2582825, 9.58,-0.57,0.12,0.06,0.03,0.02,-15.75,12.06,19.06,0.71,-0.04,-0.71,0.01
2587274, 9.59,-0.63,0.13,0.06,0.03,0.02,-15.75,12.06,19.06,0.71,-0.04,-0.71,0.01
2593881, 9.58,-0.79,0.16,0.07,0.04,0.02,-15.75,12.06,19.06,0.71,-0.04,-0.71,0.01
2598332, 9.58,-0.79,0.16,0.07,0.04,0.02,-15.75,12.06,19.06,0.71,-0.04,-0.71,0.01
2605383, 9.59,-0.88,0.18,0.07,0.04,0.02,-15.75,12.06,19.06,0.71,-0.04,-0.71,0.01
2621270, 9.57,-0.87,0.16,0.04,0.03,0.02,-15.38,12.06,19.56,0.71,-0.04,-0.71,0.01
2625934, 9.60,-0.84,0.20,0.00,0.03,0.02,-15.38,12.06,19.56,0.71,-0.04,-0.71,0.01
2630380, 9.60,-0.84,0.20,0.00,0.03,0.02,-15.38,12.06,19.56,0.71,-0.04,-0.71,0.01
2645260, 9.59,-0.56,0.20,-0.05,0.01,0.02,-15.38,12.06,19.56,0.71,-0.04,-0.71,0.01
2651106, 9.59,-0.56,0.20,-0.03,0.01,0.02,-15.38,12.06,19.56,0.71,-0.04,-0.71,0.01
2666819, 9.59,-0.77,0.22,0.01,0.02,0.02,-15.38,12.06,19.56,0.71,-0.04,-0.71,0.01
2671295, 9.59,-0.77,0.22,0.02,0.01,0.02,-16.06,12.50,20.00,0.71,-0.04,-0.71,0.01
2676926, 9.52,-0.84,0.20,0.02,0.01,0.02,-16.06,12.50,20.00,0.71,-0.04,-0.71,0.01
2684392, 9.50,-0.86,0.23,0.00,0.01,0.02,-16.06,12.50,20.00,0.71,-0.04,-0.71,0.01
2688999, 9.50,-0.86,0.23,0.00,0.01,0.02,-16.06,12.50,20.00,0.71,-0.04,-0.71,0.01
2695896, 9.54,-0.83,0.25,-0.03,0.00,0.02,-16.06,12.50,20.00,0.71,-0.04,-0.71,0.01
2712410, 9.67,-0.70,0.22,-0.06,-0.01,0.02,-16.06,12.50,20.00,0.71,-0.04,-0.71,0.01
2717709, 9.64,-0.72,0.27,-0.06,-0.01,0.02,-16.06,12.50,20.00,0.71,-0.04,-0.71,0.01
2722160, 9.64,-0.72,0.27,-0.06,-0.01,0.02,-15.06,11.38,19.56,0.71,-0.04,-0.71,0.01
2737036, 9.51,-0.84,0.24,-0.05,-0.02,0.02,-15.06,11.38,19.56,0.71,-0.04,-0.71,0.01
2741630, 9.51,-0.84,0.24,-0.04,-0.02,0.01,-15.06,11.38,19.56,0.71,-0.04,-0.71,0.01
2747248, 9.55,-0.78,0.22,-0.04,-0.02,0.01,-15.06,11.38,19.56,0.71,-0.04,-0.71,0.01
2754602, 9.55,-0.72,0.22,-0.02,-0.03,0.01,-15.06,11.38,19.56,0.71,-0.04,-0.71,0.01
2769286, 9.53,-0.67,0.22,0.00,-0.03,0.01,-15.06,11.38,19.56,0.71,-0.04,-0.71,0.01
2773740, 9.48,-0.57,0.13,0.03,-0.03,0.01,-16.06,12.00,20.00,0.71,-0.04,-0.71,0.01
2778199, 9.48,-0.57,0.13,0.03,-0.03,0.01,-16.06,12.00,20.00,0.71,-0.04,-0.71,0.01
2792893, 9.48,-0.57,0.05,0.10,-0.02,0.01,-16.06,12.00,20.00,0.71,-0.04,-0.71,0.01
2797989, 9.50,-0.63,0.00,0.10,-0.02,0.01,-16.06,12.00,20.00,0.71,-0.04,-0.71,0.01
2805153, 9.49,-0.69,-0.08,0.12,-0.02,0.01,-16.06,12.00,20.00,0.71,-0.04,-0.71,0.01
2809780, 9.49,-0.69,-0.08,0.12,-0.02,0.01,-16.06,12.00,20.00,0.71,-0.04,-0.71,0.01
2816726, 9.50,-0.76,-0.08,0.11,-0.01,0.01,-16.06,12.00,20.00,0.71,-0.04,-0.71,0.01
2831378, 9.54,-0.78,-0.14,0.09,-0.01,0.01,-16.50,12.00,18.00,0.71,-0.04,-0.71,0.01
2836034, 9.51,-0.73,-0.12,0.06,0.00,0.01,-16.50,12.00,18.00,0.71,-0.04,-0.71,0.01
2840478, 9.51,-0.73,-0.12,0.06,0.00,0.01,-16.50,12.00,18.00,0.71,-0.04,-0.71,0.01
2846758, 9.60,-0.73,-0.06,0.04,0.01,0.00,-16.50,12.00,18.00,0.71,-0.04,-0.71,0.01
2863346, 9.62,-0.69,0.04,0.05,0.02,0.00,-16.50,12.00,18.00,0.71,-0.04,-0.71,0.01
2868570, 9.55,-0.75,0.07,0.05,0.02,0.00,-16.50,12.00,18.00,0.71,-0.04,-0.71,0.01
2873023, 9.55,-0.75,0.07,0.06,0.03,-0.00,-15.88,12.00,19.25,0.71,-0.04,-0.71,0.01
2887814, 9.57,-0.81,0.20,0.06,0.03,-0.01,-15.88,12.00,19.25,0.71,-0.04,-0.71,0.01
2893889, 9.53,-0.86,0.22,0.07,0.03,-0.01,-15.88,12.00,19.25,0.71,-0.04,-0.71,0.01
2898620, 9.53,-0.86,0.22,0.07,0.03,-0.01,-15.88,12.00,19.25,0.71,-0.04,-0.71,0.01
2905922, 9.55,-0.84,0.22,0.07,0.03,-0.01,-15.88,12.00,19.25,0.71,-0.04,-0.71,0.01
2921531, 9.58,-0.79,0.28,0.06,0.03,-0.01,-15.88,12.00,19.25,0.71,-0.04,-0.71,0.01
2926173, 9.64,-0.68,0.33,0.05,0.02,-0.02,-16.56,11.56,19.69,0.71,-0.04,-0.71,0.01
2930624, 9.64,-0.68,0.33,0.05,0.02,-0.02,-16.56,11.56,19.69,0.71,-0.04,-0.71,0.01
2945500, 9.60,-0.84,0.30,0.06,0.01,-0.02,-16.56,11.56,19.69,0.71,-0.04,-0.71,0.01
2950087, 9.60,-0.84,0.30,0.06,0.01,-0.02,-16.56,11.56,19.69,0.71,-0.04,-0.71,0.01
2957026, 9.54,-0.90,0.32,0.04,0.00,-0.02,-16.56,11.56,19.69,0.71,-0.04,-0.71,0.01
2963295, 9.54,-0.90,0.32,0.01,-0.01,-0.03,-16.56,11.56,19.69,0.71,-0.04,-0.71,0.01
2968689, 9.59,-0.85,0.26,0.01,-0.01,-0.03,-16.56,11.56,19.69,0.71,-0.04,-0.71,0.01
2983390, 9.61,-0.83,0.22,-0.02,-0.02,-0.03,-16.19,12.75,20.06,0.71,-0.04,-0.71,0.01
2988084, 9.56,-0.77,0.22,-0.02,-0.02,-0.03,-16.19,12.75,20.06,0.71,-0.04,-0.71,0.01
2994023, 9.56,-0.77,0.22,-0.02,-0.03,-0.03,-16.19,12.75,20.06,0.71,-0.04,-0.71,0.01
3009129, 9.51,-0.68,0.08,0.01,-0.03,-0.04,-16.19,12.75,20.06,0.71,-0.04,-0.71,0.01
3016864, 9.53,-0.72,0.00,0.03,-0.02,-0.04,-16.19,12.75,20.06,0.71,-0.04,-0.71,0.01
3021313, 9.53,-0.72,0.00,0.03,-0.02,-0.04,-16.19,12.75,20.06,0.71,-0.04,-0.71,0.01
3036191, 9.51,-0.56,-0.03,0.05,-0.00,-0.04,-15.75,12.25,19.37,0.71,-0.04,-0.71,0.01
3040640, 9.51,-0.56,-0.03,0.05,-0.00,-0.04,-15.75,12.25,19.37,0.71,-0.04,-0.71,0.01
3046634, 9.48,-0.57,-0.03,0.07,0.00,-0.04,-15.75,12.25,19.37,0.71,-0.04,-0.71,0.01
3063651, 9.49,-0.61,-0.02,0.09,0.02,-0.04,-15.75,12.25,19.37,0.71,-0.04,-0.71,0.01
3078703, 9.60,-0.62,0.09,0.10,0.02,-0.04,-16.06,12.25,19.06,0.71,-0.04,-0.71,0.01
3083211, 9.60,-0.62,0.09,0.10,0.02,-0.04,-16.06,12.25,19.06,0.71,-0.04,-0.71,0.01
3087900, 9.62,-0.66,0.11,0.11,0.02,-0.04,-16.06,12.25,19.06,0.71,-0.04,-0.71,0.01
3102969, 9.61,-0.72,0.11,0.07,0.02,-0.03,-16.06,12.25,19.06,0.71,-0.03,-0.70,0.01
3108597, 9.62,-0.71,0.15,0.07,0.02,-0.03,-16.06,12.25,19.06,0.71,-0.03,-0.70,0.01
3116084, 9.61,-0.64,0.17,0.04,0.02,-0.04,-16.06,12.25,19.06,0.71,-0.03,-0.70,0.01
3120528, 9.61,-0.64,0.17,0.04,0.02,-0.04,-16.06,12.25,19.06,0.71,-0.03,-0.70,0.01
3135150, 9.61,-0.56,0.18,0.01,0.02,-0.03,-15.38,10.88,19.37,0.71,-0.03,-0.70,0.01
3139662, 9.61,-0.51,0.20,0.01,0.02,-0.03,-15.38,10.88,19.37,0.71,-0.03,-0.70,0.01
3145999, 9.56,-0.65,0.20,0.03,0.03,-0.03,-15.38,10.88,19.37,0.71,-0.03,-0.70,0.01
3150443, 9.56,-0.65,0.20,0.03,0.03,-0.03,-15.38,10.88,19.37,0.71,-0.03,-0.70,0.01
3157725, 9.53,-0.68,0.22,0.04,0.02,-0.02,-15.38,10.88,19.37,0.71,-0.03,-0.70,0.01
3173916, 9.51,-0.63,0.22,0.03,0.02,-0.03,-15.88,11.50,19.69,0.71,-0.03,-0.70,0.01
3178544, 9.52,-0.57,0.27,0.01,0.02,-0.02,-15.88,11.50,19.69,0.71,-0.03,-0.70,0.01
3182992, 9.52,-0.57,0.27,0.01,0.02,-0.02,-15.88,11.50,19.69,0.71,-0.03,-0.70,0.01
3197870, 9.55,-0.50,0.31,-0.00,0.02,-0.02,-15.88,11.50,19.69,0.71,-0.03,-0.70,0.01
3204485, 9.55,-0.50,0.31,-0.01,0.01,-0.02,-15.88,11.50,19.69,0.71,-0.03,-0.70,0.01
3209565, 9.53,-0.45,0.30,-0.01,0.01,-0.02,-15.88,11.50,19.69,0.71,-0.03,-0.70,0.01
3217006, 9.50,-0.50,0.24,-0.00,0.00,-0.01,-15.88,11.50,19.69,0.71,-0.03,-0.70,0.01
3231625, 9.52,-0.52,0.20,-0.01,-0.00,-0.01,-16.19,11.88,19.25,0.71,-0.03,-0.70,0.01
3238395, 9.53,-0.52,0.16,-0.00,-0.00,-0.00,-16.19,11.88,19.25,0.71,-0.03,-0.70,0.01
3244955, 9.53,-0.52,0.16,-0.00,0.00,0.00,-16.19,11.88,19.25,0.71,-0.03,-0.70,0.01
3250002, 9.55,-0.53,0.05,-0.00,0.00,0.00,-16.19,11.88,19.25,0.71,-0.03,-0.70,0.01
3257305, 9.50,-0.52,0.07,0.00,0.00,0.00,-16.19,11.88,19.25,0.71,-0.03,-0.70,0.01
3272738, 9.50,-0.46,0.04,0.01,0.01,0.01,-16.19,11.88,19.25,0.71,-0.03,-0.70,0.01
3277413, 9.49,-0.41,0.06,0.03,0.01,0.01,-16.56,11.88,19.25,0.71,-0.03,-0.70,0.01
3281860, 9.49,-0.41,0.06,0.03,0.01,0.01,-16.56,11.88,19.25,0.71,-0.03,-0.70,0.01
3296739, 9.56,-0.49,0.06,0.07,0.02,0.02,-16.56,11.88,19.25,0.71,-0.03,-0.70,0.01
3301199, 9.56,-0.49,0.06,0.07,0.02,0.02,-16.56,11.88,19.25,0.71,-0.03,-0.70,0.01
3308363, 9.59,-0.51,0.11,0.08,0.03,0.03,-16.56,11.88,19.25,0.71,-0.03,-0.70,0.01
3314225, 9.59,-0.51,0.11,0.08,0.04,0.02,-16.56,11.88,19.25,0.71,-0.03,-0.70,0.02
3319990, 9.57,-0.55,0.15,0.08,0.04,0.02,-16.56,11.88,19.25,0.71,-0.03,-0.70,0.02
3334639, 9.59,-0.66,0.20,0.07,0.04,0.03,-15.50,11.50,20.06,0.71,-0.03,-0.70,0.02
3339344, 9.58,-0.68,0.26,0.06,0.04,0.03,-15.50,11.50,20.06,0.71,-0.03,-0.70,0.02
3344228, 9.58,-0.68,0.26,0.03,0.04,0.03,-15.50,11.50,20.06,0.71,-0.03,-0.70,0.02
3349813, 9.58,-0.71,0.23,0.03,0.04,0.03,-15.50,11.50,20.06,0.71,-0.03,-0.70,0.02
3357347, 9.54,-0.67,0.22,0.02,0.04,0.04,-15.50,11.50,20.06,0.71,-0.03,-0.70,0.02
3372039, 9.51,-0.62,0.32,0.01,0.03,0.03,-15.50,11.50,20.06,0.71,-0.03,-0.70,0.02
3376479, 9.51,-0.62,0.32,0.01,0.03,0.03,-16.56,12.19,18.00,0.71,-0.03,-0.70,0.02
3380926, 9.58,-0.63,0.26,0.01,0.03,0.03,-16.56,12.19,18.00,0.71,-0.03,-0.70,0.02
3395545, 9.63,-0.72,0.33,0.04,0.03,0.03,-16.56,12.19,18.00,0.71,-0.03,-0.70,0.02
3400619, 9.61,-0.86,0.27,0.04,0.03,0.03,-16.56,12.19,18.00,0.71,-0.03,-0.70,0.02
3407796, 9.51,-0.82,0.34,0.01,0.03,0.03,-16.56,12.19,18.00,0.71,-0.03,-0.70,0.02
3413082, 9.51,-0.82,0.34,0.01,0.03,0.03,-16.56,12.19,18.00,0.71,-0.03,-0.70,0.02
3419662, 9.50,-0.69,0.34,-0.03,0.02,0.03,-16.56,12.19,18.00,0.71,-0.03,-0.70,0.02
3434322, 9.55,-0.64,0.32,-0.06,0.01,0.03,-16.25,12.25,19.25,0.71,-0.03,-0.70,0.02
3438953, 9.58,-0.61,0.35,-0.07,0.01,0.03,-16.25,12.25,19.25,0.71,-0.03,-0.70,0.02
3443397, 9.58,-0.61,0.35,-0.07,0.01,0.03,-16.25,12.25,19.25,0.71,-0.03,-0.70,0.02
3449620, 9.59,-0.61,0.35,-0.06,0.01,0.03,-16.25,12.25,19.25,0.71,-0.03,-0.70,0.02
3466525, 9.55,-0.71,0.35,-0.02,-0.00,0.03,-16.25,12.25,19.25,0.71,-0.03,-0.70,0.02
3481308, 9.55,-0.77,0.34,-0.02,-0.01,0.02,-16.56,11.88,19.00,0.71,-0.03,-0.70,0.02
3485788, 9.55,-0.77,0.34,-0.02,-0.01,0.02,-16.56,11.88,19.00,0.71,-0.03,-0.70,0.02
3490488, 9.54,-0.71,0.31,-0.03,-0.01,0.02,-16.56,11.88,19.00,0.71,-0.03,-0.70,0.02
3497185, 9.56,-0.68,0.30,-0.04,-0.02,0.02,-16.56,11.88,19.00,0.71,-0.03,-0.70,0.02
3511883, 9.55,-0.70,0.28,-0.03,-0.02,0.02,-16.56,11.88,19.00,0.71,-0.03,-0.70,0.02
3519331, 9.59,-0.77,0.31,-0.03,-0.02,0.02,-16.56,11.88,19.00,0.71,-0.03,-0.70,0.02
3523782, 9.59,-0.77,0.31,-0.03,-0.02,0.02,-16.56,11.88,19.00,0.71,-0.03,-0.70,0.02
3538662, 9.61,-0.80,0.23,-0.05,-0.03,0.02,-15.50,12.25,17.75,0.71,-0.03,-0.70,0.02
3543124, 9.61,-0.80,0.23,-0.05,-0.03,0.02,-15.50,12.25,17.75,0.71,-0.04,-0.70,0.02
3549407, 9.54,-0.77,0.24,-0.07,-0.03,0.01,-15.50,12.25,17.75,0.71,-0.04,-0.70,0.02
3555214, 9.54,-0.77,0.24,-0.09,-0.04,0.01,-15.50,12.25,17.75,0.71,-0.04,-0.70,0.02
3570956, 9.59,-0.78,0.28,-0.09,-0.04,0.01,-15.50,12.25,17.75,0.71,-0.04,-0.70,0.02
3575401, 9.59,-0.78,0.28,-0.09,-0.04,0.01,-15.88,11.56,18.56,0.71,-0.04,-0.70,0.02
3580108, 9.56,-0.79,0.25,-0.08,-0.04,0.01,-15.88,11.56,18.56,0.71,-0.04,-0.70,0.02
3594727, 9.59,-0.70,0.24,-0.09,-0.04,0.01,-15.88,11.56,18.56,0.71,-0.04,-0.70,0.01
3600678, 9.58,-0.68,0.20,-0.10,-0.04,0.00,-15.88,11.56,18.56,0.71,-0.04,-0.70,0.01
3608070, 9.56,-0.62,0.18,-0.09,-0.05,0.01,-15.88,11.56,18.56,0.71,-0.04,-0.70,0.01
3612514, 9.56,-0.62,0.18,-0.09,-0.05,0.01,-15.88,11.56,18.56,0.71,-0.04,-0.70,0.01
3619985, 9.51,-0.63,0.16,-0.09,-0.05,0.00,-15.88,11.56,18.56,0.71,-0.04,-0.70,0.01
3634688, 9.50,-0.57,0.12,-0.08,-0.05,0.01,-16.25,11.56,17.75,0.71,-0.04,-0.70,0.01
3639320, 9.55,-0.57,0.12,-0.07,-0.04,0.01,-16.25,11.56,17.75,0.71,-0.04,-0.70,0.01
3643770, 9.55,-0.57,0.12,-0.07,-0.04,0.01,-16.25,11.56,17.75,0.71,-0.04,-0.70,0.01
3660104, 9.54,-0.64,0.02,-0.06,-0.04,0.01,-16.25,11.56,17.75,0.71,-0.04,-0.70,0.01
3666931, 9.54,-0.64,0.02,-0.05,-0.03,0.01,-16.25,11.56,17.75,0.71,-0.04,-0.70,0.01
3671990, 9.55,-0.67,0.00,-0.05,-0.03,0.01,-16.25,11.56,17.75,0.71,-0.04,-0.70,0.01
3686607, 9.57,-0.66,0.01,-0.04,-0.03,0.01,-16.56,11.56,20.06,0.71,-0.04,-0.70,0.01
3691248, 9.54,-0.64,0.03,-0.02,-0.02,0.01,-16.56,11.56,20.06,0.71,-0.04,-0.70,0.01
3697596, 9.50,-0.66,0.03,0.00,-0.01,0.01,-16.56,11.56,20.06,0.71,-0.04,-0.70,0.01
3702179, 9.50,-0.66,0.03,0.00,-0.01,0.01,-16.56,11.56,20.06,0.71,-0.04,-0.70,0.01
3709294, 9.52,-0.64,0.05,0.02,-0.00,0.01,-16.56,11.56,20.06,0.71,-0.04,-0.70,0.01
3724724, 9.53,-0.65,0.11,0.04,0.01,0.01,-16.56,11.56,20.06,0.71,-0.04,-0.70,0.01
3729348, 9.53,-0.69,0.11,0.07,0.01,0.01,-15.56,12.00,19.75,0.71,-0.04,-0.70,0.01
3733802, 9.53,-0.69,0.11,0.07,0.01,0.01,-15.56,12.00,19.75,0.71,-0.04,-0.70,0.01
3748677, 9.53,-0.77,0.07,0.06,0.02,0.01,-15.56,12.00,19.75,0.71,-0.04,-0.70,0.01
3753132, 9.53,-0.77,0.07,0.06,0.02,0.01,-15.56,12.00,19.75,0.71,-0.04,-0.70,0.01
3760338, 9.55,-0.72,0.13,0.04,0.02,0.01,-15.56,12.00,19.75,0.71,-0.04,-0.70,0.01
3766739, 9.55,-0.72,0.13,0.02,0.03,0.01,-15.56,12.00,19.75,0.71,-0.04,-0.70,0.01
3772144, 9.50,-0.68,0.18,0.02,0.03,0.01,-15.56,12.00,19.75,0.71,-0.04,-0.70,0.01
3786785, 9.53,-0.68,0.18,0.03,0.03,0.01,-16.69,12.50,19.00,0.71,-0.04,-0.70,0.01
3791404, 9.57,-0.73,0.23,0.03,0.03,0.01,-16.69,12.50,19.00,0.71,-0.04,-0.70,0.01
3797306, 9.57,-0.73,0.23,0.03,0.03,0.01,-16.69,12.50,19.00,0.71,-0.04,-0.70,0.01
3802350, 9.61,-0.78,0.22,0.03,0.03,0.01,-16.69,12.50,19.00,0.71,-0.04,-0.70,0.01
3809778, 9.54,-0.80,0.24,0.01,0.02,0.01,-16.69,12.50,19.00,0.71,-0.04,-0.70,0.01
3824797, 9.54,-0.82,0.26,-0.01,0.02,0.01,-16.69,12.50,19.00,0.71,-0.04,-0.70,0.01
3829452, 9.53,-0.80,0.24,-0.04,0.02,0.01,-16.37,12.06,19.37,0.71,-0.04,-0.70,0.01
3833899, 9.53,-0.80,0.24,-0.04,0.02,0.01,-16.37,12.06,19.37,0.71,-0.04,-0.70,0.01
3848518, 9.58,-0.76,0.28,-0.06,0.01,0.00,-16.37,12.06,19.37,0.71,-0.04,-0.70,0.01
3852971, 9.58,-0.76,0.28,-0.06,0.01,0.00,-16.37,12.06,19.37,0.71,-0.04,-0.70,0.01
3860214, 9.55,-0.78,0.29,-0.07,0.00,0.00,-16.37,12.06,19.37,0.71,-0.04,-0.70,0.01
3877030, 9.56,-0.75,0.33,-0.08,-0.00,0.00,-16.00,11.69,18.56,0.71,-0.04,-0.70,0.01
3892947, 9.58,-0.85,0.33,-0.06,-0.01,0.00,-16.00,11.69,18.56,0.71,-0.04,-0.70,0.01
3899890, 9.57,-0.89,0.28,-0.09,-0.02,0.00,-16.00,11.69,18.56,0.71,-0.04,-0.70,0.01
3904586, 9.57,-0.89,0.28,-0.09,-0.02,0.00,-16.00,11.69,18.56,0.71,-0.04,-0.70,0.01
3911265, 9.52,-0.83,0.36,-0.13,-0.03,0.00,-16.00,11.69,18.56,0.71,-0.04,-0.70,0.01
3927877, 9.57,-0.63,0.33,-0.12,-0.04,0.00,-16.37,11.38,18.56,0.71,-0.04,-0.70,0.01
3932545, 9.57,-0.63,0.31,-0.12,-0.04,0.00,-16.37,11.38,18.56,0.71,-0.04,-0.70,0.01
3936996, 9.57,-0.63,0.31,-0.12,-0.04,0.00,-16.37,11.38,18.56,0.71,-0.04,-0.70,0.01
3951872, 9.53,-0.75,0.22,-0.11,-0.04,-0.00,-16.37,11.38,18.56,0.71,-0.04,-0.70,0.01
3958805, 9.58,-0.72,0.20,-0.11,-0.05,0.00,-16.37,11.38,18.56,0.71,-0.04,-0.70,0.01
3963299, 9.58,-0.72,0.20,-0.11,-0.05,0.00,-16.37,11.38,18.56,0.71,-0.04,-0.70,0.01
3970607, 9.57,-0.67,0.26,-0.11,-0.05,0.00,-16.37,11.38,18.56,0.71,-0.04,-0.70,0.01
3985245, 9.57,-0.68,0.17,-0.09,-0.05,0.00,-16.00,12.00,20.06,0.71,-0.04,-0.70,0.01
3989870, 9.53,-0.73,0.10,-0.08,-0.05,0.00,-16.00,12.00,20.06,0.71,-0.04,-0.70,0.01
3994319, 9.53,-0.73,0.10,-0.08,-0.05,0.00,-16.00,12.00,20.06,0.71,-0.04,-0.70,0.01
4000847, 9.54,-0.69,0.06,-0.08,-0.05,0.00,-16.00,12.00,20.06,0.71,-0.04,-0.70,0.01
4016402, 9.54,-0.62,0.08,-0.07,-0.04,0.00,-16.00,12.00,20.06,0.71,-0.04,-0.70,0.01
4022530, 9.52,-0.61,0.03,-0.05,-0.04,0.00,-16.00,12.00,20.06,0.71,-0.04,-0.70,0.01
4026978, 9.52,-0.61,0.03,-0.05,-0.04,0.00,-15.25,11.69,19.00,0.71,-0.04,-0.70,0.01
4041774, 9.52,-0.64,0.00,0.00,-0.03,0.00,-15.25,11.69,19.00,0.71,-0.04,-0.70,0.01
4046787, 9.52,-0.64,0.00,0.02,-0.02,0.01,-15.25,11.69,19.00,0.71,-0.04,-0.70,0.01
4052581, 9.50,-0.67,-0.02,0.02,-0.02,0.01,-15.25,11.69,19.00,0.71,-0.04,-0.70,0.01
4060004, 9.50,-0.72,-0.04,0.03,-0.01,0.01,-15.25,11.69,19.00,0.71,-0.04,-0.70,0.01
4074686, 9.53,-0.70,0.00,0.04,-0.01,0.00,-15.25,11.69,19.00,0.71,-0.04,-0.70,0.01
4079135, 9.55,-0.68,0.01,0.07,0.00,0.00,-16.00,11.69,19.37,0.71,-0.04,-0.70,0.01
4083713, 9.55,-0.68,0.01,0.07,0.00,0.00,-16.00,11.69,19.37,0.71,-0.04,-0.70,0.01
4098375, 9.56,-0.67,0.00,0.12,0.02,0.00,-16.00,11.69,19.37,0.71,-0.04,-0.70,0.01
4103451, 9.51,-0.66,-0.01,0.12,0.02,0.00,-16.00,11.69,19.37,0.71,-0.04,-0.70,0.01
4110631, 9.51,-0.67,0.00,0.14,0.03,-0.00,-16.00,11.69,19.37,0.71,-0.04,-0.70,0.01
4115081, 9.51,-0.67,0.00,0.14,0.03,-0.00,-16.00,11.69,19.37,0.71,-0.04,-0.70,0.01
4122171, 9.53,-0.69,0.00,0.15,0.03,0.00,-16.00,11.69,19.37,0.71,-0.04,-0.70,0.01
4136817, 9.57,-0.74,0.04,0.15,0.04,0.00,-16.00,11.69,19.00,0.71,-0.04,-0.70,0.01
4141467, 9.49,-0.76,0.07,0.13,0.04,-0.00,-16.00,11.69,19.00,0.71,-0.04,-0.70,0.01
4145916, 9.49,-0.76,0.07,0.13,0.04,-0.00,-16.00,11.69,19.00,0.71,-0.04,-0.70,0.01
4151991, 9.46,-0.72,0.08,0.11,0.04,-0.00,-16.00,11.69,19.00,0.71,-0.04,-0.70,0.01
4167998, 9.52,-0.67,0.18,0.13,0.04,-0.00,-16.00,11.69,19.00,0.71,-0.04,-0.70,0.01
4173639, 9.60,-0.66,0.23,0.13,0.04,-0.00,-16.00,11.69,19.00,0.71,-0.04,-0.70,0.01
4178094, 9.60,-0.66,0.23,0.13,0.04,-0.00,-16.37,11.69,19.37,0.71,-0.04,-0.70,0.01
4192965, 9.56,-0.97,0.37,0.11,0.03,-0.00,-16.37,11.69,19.37,0.71,-0.04,-0.70,0.01
4198046, 9.56,-0.97,0.37,0.06,0.03,-0.00,-16.37,11.69,19.37,0.71,-0.04,-0.70,0.01
4203627, 9.55,-0.95,0.36,0.06,0.03,-0.00,-16.37,11.69,19.37,0.71,-0.04,-0.70,0.01
4210912, 9.54,-0.87,0.33,0.01,0.02,-0.01,-16.37,11.69,19.37,0.71,-0.04,-0.70,0.01
4215626, 9.54,-0.87,0.33,0.01,0.02,-0.01,-16.37,11.69,19.37,0.71,-0.04,-0.70,0.01
4232826, 9.48,-0.67,0.28,-0.05,0.01,-0.01,-16.37,12.88,20.19,0.71,-0.04,-0.70,0.01
4237283, 9.48,-0.67,0.28,-0.05,0.01,-0.01,-16.37,12.88,20.19,0.71,-0.04,-0.70,0.01
4241912, 9.55,-0.60,0.27,-0.04,-0.00,-0.01,-16.37,12.88,20.19,0.71,-0.04,-0.70,0.01
4256611, 9.70,-0.64,0.27,-0.01,-0.00,-0.01,-16.37,12.88,20.19,0.71,-0.04,-0.70,0.01
4263036, 9.68,-0.75,0.35,0.03,-0.00,-0.01,-16.37,12.88,20.19,0.71,-0.04,-0.70,0.01
4269764, 9.60,-0.94,0.35,0.02,-0.01,-0.01,-16.37,12.88,20.19,0.71,-0.04,-0.70,0.01
4274685, 9.60,-0.94,0.35,0.02,-0.01,-0.01,-16.37,12.88,20.19,0.71,-0.04,-0.70,0.01
4289741, 9.53,-0.98,0.38,-0.06,-0.03,-0.01,-15.56,12.75,20.19,0.71,-0.04,-0.70,0.01
4304475, 9.57,-0.70,0.34,-0.08,-0.04,-0.01,-15.56,12.75,20.19,0.71,-0.04,-0.70,0.01
4311725, 9.61,-0.63,0.32,-0.08,-0.04,-0.01,-15.56,12.75,20.19,0.71,-0.04,-0.70,0.01
4316683, 9.61,-0.63,0.32,-0.08,-0.04,-0.01,-15.56,12.75,20.19,0.71,-0.04,-0.70,0.01
4323416, 9.62,-0.56,0.31,-0.05,-0.05,-0.01,-15.56,12.75,20.19,0.71,-0.04,-0.70,0.01
4338084, 9.56,-0.58,0.27,-0.01,-0.05,-0.01,-16.37,12.37,19.37,0.71,-0.04,-0.70,0.01
4342732, 9.56,-0.67,0.21,0.02,-0.05,-0.01,-16.37,12.37,19.37,0.71,-0.04,-0.70,0.01
4347195, 9.56,-0.67,0.21,0.02,-0.05,-0.01,-16.37,12.37,19.37,0.71,-0.04,-0.70,0.01
4353497, 9.55,-0.71,0.13,0.02,-0.05,-0.01,-16.37,12.37,19.37,0.71,-0.04,-0.70,0.01
4370304, 9.56,-0.68,0.11,-0.01,-0.06,-0.01,-16.37,12.37,19.37,0.71,-0.04,-0.70,0.01
4375194, 9.56,-0.68,0.11,-0.01,-0.06,-0.01,-16.37,12.37,19.37,0.71,-0.04,-0.70,0.01
4379639, 9.56,-0.68,0.11,-0.02,-0.06,-0.01,-16.00,12.00,19.87,0.71,-0.04,-0.70,0.01
4394521, 9.53,-0.64,0.10,-0.02,-0.05,-0.01,-16.00,12.00,19.87,0.71,-0.04,-0.70,0.01
4400964, 9.50,-0.61,0.09,-0.01,-0.05,-0.01,-16.00,12.00,19.87,0.71,-0.04,-0.70,0.01
4405408, 9.50,-0.61,0.09,-0.01,-0.05,-0.01,-16.00,12.00,19.87,0.71,-0.04,-0.70,0.01
4412753, 9.52,-0.65,0.00,0.01,-0.04,-0.01,-16.00,12.00,19.87,0.71,-0.04,-0.70,0.01
4428537, 9.52,-0.65,0.00,0.03,-0.03,-0.01,-16.00,12.00,19.87,0.71,-0.04,-0.70,0.01
4433225, 9.54,-0.72,-0.02,0.04,-0.03,-0.01,-16.00,11.56,20.19,0.71,-0.04,-0.70,0.01
4437672, 9.54,-0.72,-0.02,0.04,-0.03,-0.01,-16.00,11.56,20.19,0.71,-0.04,-0.70,0.01
4452552, 9.50,-0.62,0.00,0.01,-0.02,-0.00,-16.00,11.56,20.19,0.71,-0.04,-0.70,0.01
4457648, 9.50,-0.62,0.00,0.01,-0.02,-0.00,-16.00,11.56,20.19,0.71,-0.04,-0.70,0.01
4463938, 9.50,-0.60,0.02,0.02,-0.02,-0.00,-16.00,11.56,20.19,0.71,-0.04,-0.70,0.01
4470675, 9.54,-0.64,0.04,0.02,-0.01,0.00,-16.00,11.56,20.19,0.71,-0.04,-0.70,0.01
4475591, 9.54,-0.64,0.04,0.02,-0.01,0.00,-16.00,11.56,20.19,0.71,-0.04,-0.70,0.01
4490254, 9.54,-0.68,0.05,0.03,-0.00,0.00,-15.25,11.56,19.50,0.71,-0.04,-0.70,0.01
4494877, 9.56,-0.69,0.06,0.03,-0.00,0.00,-15.25,11.56,19.50,0.71,-0.04,-0.70,0.01
4501226, 9.54,-0.67,0.04,0.02,0.00,0.00,-15.25,11.56,19.50,0.71,-0.04,-0.70,0.01
4505669, 9.54,-0.67,0.04,0.02,0.00,0.00,-15.25,11.56,19.50,0.71,-0.04,-0.70,0.01
4513145, 9.52,-0.67,0.07,0.01,0.00,0.00,-15.25,11.56,19.50,0.71,-0.04,-0.70,0.01
4528959, 9.52,-0.69,0.12,-0.01,0.00,0.00,-15.56,11.56,18.69,0.71,-0.04,-0.70,0.01
4534781, 9.58,-0.66,0.13,-0.01,0.00,0.00,-15.56,11.56,18.69,0.71,-0.04,-0.70,0.01
4542243, 9.57,-0.64,0.11,-0.01,0.00,0.01,-15.56,11.56,18.69,0.71,-0.04,-0.70,0.01
4546955, 9.57,-0.64,0.11,-0.01,0.00,0.01,-15.56,11.56,18.69,0.71,-0.04,-0.70,0.01
4553832, 9.52,-0.63,0.10,0.00,0.00,0.01,-15.56,11.56,18.69,0.71,-0.04,-0.70,0.01
4560441, 9.52,-0.63,0.10,0.00,0.01,0.01,-15.56,11.56,18.69,0.71,-0.04,-0.70,0.01
4575634, 9.55,-0.69,0.13,0.01,0.00,0.01,-15.56,11.56,18.69,0.71,-0.04,-0.70,0.01
4581050, 9.59,-0.75,0.15,0.00,0.01,0.01,-16.37,12.00,19.87,0.71,-0.04,-0.70,0.01
4585782, 9.59,-0.75,0.15,0.00,0.01,0.01,-16.37,12.00,19.87,0.71,-0.04,-0.70,0.01
4593395, 9.54,-0.76,0.14,0.00,0.00,0.01,-16.37,12.00,19.87,0.71,-0.04,-0.70,0.01
4599074, 9.54,-0.76,0.14,-0.01,0.00,0.01,-16.37,12.00,19.87,0.71,-0.04,-0.70,0.01
4615133, 9.55,-0.74,0.14,-0.01,0.00,0.01,-16.37,12.00,19.87,0.71,-0.04,-0.70,0.01
4622895, 9.59,-0.67,0.19,-0.01,0.00,0.01,-16.37,12.00,19.87,0.71,-0.04,-0.70,0.01
4627342, 9.59,-0.67,0.19,-0.01,0.00,0.01,-16.37,12.00,19.87,0.71,-0.04,-0.70,0.01
4642915, 9.56,-0.74,0.18,-0.00,-0.00,0.01,-16.00,12.37,18.25,0.71,-0.04,-0.70,0.01
4647755, 9.56,-0.74,0.18,-0.00,-0.00,0.01,-16.00,12.37,18.25,0.71,-0.04,-0.70,0.01
4654450, 9.57,-0.71,0.20,-0.01,-0.01,0.01,-16.00,12.37,18.25,0.71,-0.04,-0.70,0.01
4661068, 9.57,-0.71,0.20,-0.02,-0.00,0.01,-16.00,12.37,18.25,0.71,-0.04,-0.70,0.01
4666148, 9.58,-0.72,0.19,-0.02,-0.00,0.01,-16.00,12.37,18.25,0.71,-0.04,-0.70,0.01
4673586, 9.57,-0.73,0.20,-0.03,-0.01,0.01,-16.00,12.37,18.25,0.71,-0.04,-0.70,0.01
4700308, 9.55,-0.72,0.12,-0.02,-0.02,0.01,-16.37,12.37,18.69,0.71,-0.04,-0.70,0.01
4705822, 9.58,-0.73,0.13,-0.02,-0.02,0.01,-16.37,12.37,18.69,0.71,-0.04,-0.70,0.01
4722518, 9.58,-0.75,0.13,-0.01,-0.02,0.01,-16.37,12.37,18.69,0.71,-0.04,-0.70,0.01
4727017, 9.58,-0.75,0.13,-0.01,-0.02,0.01,-16.37,12.37,18.69,0.71,-0.04,-0.70,0.01
4731998, 9.58,-0.71,0.13,-0.01,-0.02,0.01,-15.56,13.06,20.69,0.71,-0.04,-0.70,0.01
4746778, 9.54,-0.69,0.12,-0.00,-0.02,0.00,-15.56,13.06,20.69,0.71,-0.04,-0.70,0.01
4754173, 9.56,-0.70,0.10,0.00,-0.02,0.00,-15.56,13.06,20.69,0.71,-0.04,-0.70,0.01
4760005, 9.56,-0.70,0.10,-0.00,-0.01,0.01,-15.56,13.06,20.69,0.71,-0.04,-0.70,0.01
4765688, 9.51,-0.74,0.06,-0.00,-0.01,0.01,-15.56,13.06,20.69,0.71,-0.04,-0.70,0.01
4773274, 9.53,-0.73,0.07,-0.02,-0.01,0.00,-15.56,13.06,20.69,0.71,-0.04,-0.70,0.01
4787907, 9.54,-0.67,0.08,-0.02,-0.01,0.00,-15.25,12.00,19.87,0.71,-0.04,-0.70,0.01
4794857, 9.58,-0.66,0.06,-0.01,-0.01,0.00,-15.25,12.00,19.87,0.71,-0.04,-0.70,0.01
4801470, 9.58,-0.66,0.06,0.00,-0.01,0.00,-15.25,12.00,19.87,0.71,-0.04,-0.70,0.01
4806549, 9.54,-0.69,0.09,0.00,-0.01,0.00,-15.25,12.00,19.87,0.71,-0.04,-0.70,0.01
4813782, 9.54,-0.70,0.13,0.01,-0.00,0.00,-15.25,12.00,19.87,0.71,-0.04,-0.70,0.01
4829198, 9.56,-0.74,0.12,0.02,-0.00,0.00,-15.25,12.00,19.87,0.71,-0.04,-0.70,0.01
4834705, 9.56,-0.75,0.10,0.02,-0.00,0.00,-16.37,11.56,18.69,0.71,-0.04,-0.70,0.01
4840461, 9.56,-0.75,0.10,0.01,-0.00,0.00,-16.37,11.56,18.69,0.71,-0.04,-0.70,0.01
4846096, 9.53,-0.74,0.08,0.01,-0.00,0.00,-16.37,11.56,18.69,0.71,-0.04,-0.70,0.01
4853455, 9.54,-0.70,0.09,-0.00,-0.00,0.00,-16.37,11.56,18.69,0.71,-0.04,-0.70,0.01
4868266, 9.57,-0.67,0.10,-0.00,0.00,0.00,-16.37,11.56,18.69,0.71,-0.04,-0.70,0.01
4875390, 9.58,-0.66,0.11,0.00,0.00,0.00,-16.37,11.56,18.69,0.71,-0.04,-0.70,0.01
4879837, 9.58,-0.66,0.11,0.00,0.00,0.00,-15.56,12.37,19.87,0.71,-0.04,-0.70,0.01
4895738, 9.53,-0.73,0.14,0.02,0.00,0.00,-15.56,12.37,19.87,0.71,-0.04,-0.70,0.01
4902839, 9.54,-0.73,0.11,0.02,-0.00,0.00,-15.56,12.37,19.87,0.71,-0.04,-0.70,0.01
4907322, 9.54,-0.73,0.11,0.02,-0.00,0.00,-15.56,12.37,19.87,0.71,-0.04,-0.70,0.01
4914722, 9.55,-0.70,0.09,0.01,0.00,0.00,-15.56,12.37,19.87,0.71,-0.04,-0.70,0.01
4920307, 9.55,-0.70,0.09,0.01,0.00,0.00,-15.56,12.37,19.87,0.71,-0.04,-0.70,0.01
4936664, 9.57,-0.70,0.09,0.01,0.00,0.00,-14.50,12.75,19.50,0.71,-0.04,-0.70,0.01
4944311, 9.55,-0.70,0.09,0.01,0.01,0.00,-14.50,12.75,19.50,0.71,-0.04,-0.70,0.01
4949291, 9.55,-0.70,0.09,0.01,0.01,0.00,-14.50,12.75,19.50,0.71,-0.04,-0.70,0.01
4955831, 9.55,-0.66,0.06,0.00,0.01,0.00,-14.50,12.75,19.50,0.71,-0.04,-0.70,0.01
4962670, 9.57,-0.64,0.11,0.00,0.00,0.00,-14.50,12.75,19.50,0.71,-0.04,-0.70,0.01
4977615, 9.61,-0.64,0.01,0.01,0.00,0.01,-14.50,12.75,19.50,0.71,-0.04,-0.70,0.01
4983189, 9.52,-0.63,0.15,-0.00,0.01,0.01,-16.00,12.37,19.50,0.71,-0.04,-0.70,0.01
4987659, 9.52,-0.63,0.15,-0.00,0.01,0.01,-16.00,12.37,19.50,0.71,-0.04,-0.70,0.01
4995159, 9.54,-0.64,0.11,0.02,0.01,0.00,-16.00,12.37,19.50,0.71,-0.04,-0.70,0.01
5001020, 9.54,-0.64,0.11,0.05,0.01,0.01,-16.00,12.37,19.50,0.71,-0.04,-0.70,0.01
5017010, 9.56,-0.92,0.07,0.04,0.01,0.01,-16.00,12.37,19.50,0.71,-0.04,-0.70,0.01
5024675, 9.51,-0.79,0.10,0.00,0.01,0.01,-16.00,12.37,19.50,0.71,-0.04,-0.70,0.01
5029128, 9.51,-0.79,0.10,0.00,0.01,0.01,-16.00,12.37,19.50,0.71,-0.04,-0.70,0.01
5044783, 9.58,-0.62,0.13,-0.01,0.01,0.01,-16.37,12.00,18.69,0.71,-0.04,-0.70,0.01
5050018, 9.58,-0.62,0.13,-0.01,0.01,0.01,-16.37,12.00,18.69,0.71,-0.04,-0.70,0.01
5056417, 9.61,-0.66,0.12,0.01,0.02,0.01,-16.37,12.00,18.69,0.71,-0.04,-0.70,0.01
5063351, 9.50,-0.72,0.12,0.03,0.01,0.01,-16.37,12.00,18.69,0.71,-0.04,-0.70,0.01
5067869, 9.50,-0.72,0.12,0.03,0.01,0.01,-16.37,12.00,18.69,0.71,-0.04,-0.70,0.01
5075547, 9.54,-0.77,0.13,0.03,0.02,0.01,-16.37,12.00,18.69,0.71,-0.04,-0.70,0.01
5090175, 9.54,-0.76,0.16,0.02,0.02,0.00,-16.37,12.75,18.69,0.71,-0.04,-0.70,0.01
5096627, 9.55,-0.76,0.18,0.00,0.02,0.00,-16.37,12.75,18.69,0.71,-0.04,-0.70,0.01
5103367, 9.54,-0.76,0.17,-0.01,0.02,0.00,-16.37,12.75,18.69,0.71,-0.04,-0.70,0.01
5108057, 9.54,-0.76,0.17,-0.01,0.02,0.00,-16.37,12.75,18.69,0.71,-0.04,-0.70,0.01
5115307, 9.55,-0.73,0.17,-0.02,0.01,0.00,-16.37,12.75,18.69,0.71,-0.04,-0.70,0.01
5140514, 9.59,-0.74,0.18,-0.01,0.01,0.00,-15.56,12.00,18.69,0.71,-0.04,-0.70,0.01
5146873, 9.54,-0.75,0.15,0.01,0.01,0.00,-15.56,12.00,18.69,0.71,-0.04,-0.70,0.01
5153865, 9.54,-0.79,0.11,0.01,0.01,-0.00,-15.56,12.00,18.69,0.71,-0.04,-0.70,0.01
5158369, 9.54,-0.79,0.11,0.01,0.01,-0.00,-15.56,12.00,18.69,0.71,-0.04,-0.70,0.01
5165540, 9.55,-0.80,0.13,0.00,0.01,-0.00,-15.56,12.00,18.69,0.71,-0.04,-0.70,0.01
5181391, 9.56,-0.73,0.17,-0.01,0.01,-0.00,-16.37,12.37,19.50,0.71,-0.04,-0.70,0.01
5187240, 9.58,-0.72,0.17,-0.01,0.00,-0.00,-16.37,12.37,19.50,0.71,-0.04,-0.70,0.01
5194685, 9.57,-0.72,0.18,-0.01,0.00,-0.00,-16.37,12.37,19.50,0.71,-0.04,-0.70,0.01
5199137, 9.57,-0.72,0.18,-0.01,0.00,-0.00,-16.37,12.37,19.50,0.71,-0.04,-0.70,0.01
5206415, 9.54,-0.71,0.13,-0.01,0.01,-0.01,-16.37,12.37,19.50,0.71,-0.04,-0.70,0.01
5222765, 9.53,-0.71,0.17,-0.00,0.01,-0.01,-16.37,12.37,19.50,0.71,-0.04,-0.70,0.01
5228196, 9.55,-0.72,0.15,-0.00,0.01,-0.01,-16.37,12.37,19.50,0.71,-0.04,-0.70,0.01
5232641, 9.55,-0.72,0.15,0.00,0.01,-0.01,-15.56,12.37,19.50,0.71,-0.04,-0.70,0.01
5248216, 9.55,-0.73,0.13,0.01,0.01,-0.01,-15.56,12.37,19.50,0.71,-0.04,-0.70,0.01
5255802, 9.56,-0.70,0.19,0.01,0.01,-0.00,-15.56,12.37,19.50,0.71,-0.04,-0.70,0.01
5261338, 9.56,-0.70,0.19,0.01,0.01,-0.00,-15.56,12.37,19.50,0.71,-0.04,-0.70,0.01
5267435, 9.57,-0.71,0.22,0.02,0.01,-0.00,-15.56,12.37,19.50,0.71,-0.04,-0.70,0.01
5274654, 9.55,-0.71,0.18,0.02,0.01,-0.00,-15.56,12.37,19.50,0.71,-0.04,-0.70,0.01
5289360, 9.54,-0.76,0.18,0.02,0.01,-0.00,-16.69,12.00,19.06,0.71,-0.04,-0.70,0.01
5296660, 9.56,-0.75,0.18,0.00,0.01,-0.00,-16.69,12.00,19.06,0.71,-0.04,-0.70,0.01
5302881, 9.56,-0.75,0.18,-0.01,0.01,-0.00,-16.69,12.00,19.06,0.71,-0.04,-0.70,0.01
5308248, 9.57,-0.69,0.16,-0.01,0.01,-0.00,-16.69,12.00,19.06,0.71,-0.04,-0.70,0.01
5315710, 9.57,-0.65,0.13,-0.01,0.00,-0.00,-16.69,12.00,19.06,0.71,-0.04,-0.70,0.01
5330738, 9.55,-0.66,0.10,-0.00,0.00,-0.00,-16.69,12.00,19.06,0.71,-0.04,-0.70,0.01
5336230, 9.54,-0.67,0.16,0.01,0.01,-0.00,-16.00,12.00,18.69,0.71,-0.04,-0.70,0.01
5341917, 9.54,-0.67,0.16,0.01,0.01,-0.00,-16.00,12.00,18.69,0.71,-0.04,-0.70,0.01
5348040, 9.56,-0.70,0.15,0.01,0.01,-0.00,-16.00,12.00,18.69,0.71,-0.04,-0.70,0.01
5355599, 9.55,-0.73,0.16,0.01,0.01,-0.00,-16.00,12.00,18.69,0.71,-0.04,-0.70,0.01
5371094, 9.52,-0.74,0.14,0.01,0.01,-0.00,-16.00,12.00,18.69,0.71,-0.04,-0.70,0.01
5377834, 9.54,-0.71,0.14,0.00,0.01,-0.00,-16.00,12.00,18.69,0.71,-0.04,-0.70,0.01
5382287, 9.54,-0.71,0.14,0.00,0.01,-0.00,-15.56,12.37,19.06,0.71,-0.04,-0.70,0.01
5388214, 9.51,-0.70,0.14,0.00,0.01,-0.01,-15.56,12.37,19.06,0.71,-0.04,-0.70,0.01
5395873, 9.56,-0.72,0.11,0.01,0.01,-0.01,-15.56,12.37,19.06,0.71,-0.04,-0.70,0.01
5411137, 9.55,-0.70,0.13,0.02,0.02,-0.01,-15.56,12.37,19.06,0.71,-0.04,-0.70,0.01
5417726, 9.54,-0.71,0.16,0.01,0.02,-0.01,-15.56,12.37,19.06,0.71,-0.04,-0.70,0.01
5424740, 9.54,-0.70,0.19,0.01,0.02,-0.01,-15.56,12.37,19.06,0.71,-0.04,-0.70,0.01
5429559, 9.54,-0.70,0.19,0.01,0.02,-0.01,-15.56,12.37,19.06,0.71,-0.04,-0.70,0.01
5444782, 9.54,-0.69,0.20,0.01,0.01,-0.00,-16.00,12.37,19.87,0.71,-0.04,-0.70,0.01
5449460, 9.54,-0.69,0.20,0.01,0.01,-0.00,-16.00,12.37,19.87,0.71,-0.04,-0.70,0.01
5456998, 9.52,-0.69,0.14,0.01,0.02,-0.01,-16.00,12.37,19.87,0.71,-0.04,-0.70,0.01
5463118, 9.52,-0.69,0.14,0.01,0.01,-0.00,-16.00,12.37,19.87,0.71,-0.04,-0.70,0.01
5468752, 9.54,-0.66,0.18,0.01,0.01,-0.00,-16.00,12.37,19.87,0.71,-0.04,-0.70,0.01
5476458, 9.60,-0.69,0.23,0.01,0.01,-0.01,-16.00,12.37,19.87,0.71,-0.04,-0.70,0.01
5491168, 9.60,-0.73,0.22,0.01,0.01,-0.01,-16.37,12.75,18.25,0.71,-0.04,-0.70,0.01
5497931, 9.53,-0.75,0.22,0.01,0.01,-0.00,-16.37,12.75,18.25,0.71,-0.04,-0.70,0.01
5505015, 9.52,-0.69,0.19,0.00,0.01,-0.00,-16.37,12.75,18.25,0.71,-0.04,-0.70,0.01
5509709, 9.52,-0.69,0.19,0.00,0.01,-0.00,-16.37,12.75,18.25,0.71,-0.04,-0.70,0.01
5517284, 9.55,-0.67,0.15,0.01,0.01,-0.00,-16.37,12.75,18.25,0.71,-0.04,-0.70,0.01
5523484, 9.55,-0.67,0.15,0.01,0.01,-0.00,-16.37,12.75,18.25,0.71,-0.04,-0.70,0.01
5551661, 9.53,-0.68,0.21,0.01,0.01,-0.00,-16.37,12.37,19.06,0.71,-0.04,-0.70,0.01
5567867, 9.56,-0.66,0.22,-0.00,0.01,-0.00,-16.37,12.37,19.06,0.71,-0.04,-0.70,0.01
5574942, 9.56,-0.66,0.22,-0.00,0.01,-0.00,-16.37,12.37,19.06,0.71,-0.04,-0.70,0.01
5579981, 9.56,-0.66,0.22,-0.00,0.01,-0.00,-16.37,12.37,19.06,0.71,-0.04,-0.70,0.01
5585683, 9.53,-0.72,0.23,-0.01,0.01,0.00,-15.56,12.37,19.87,0.71,-0.04,-0.70,0.01
5600429, 9.55,-0.71,0.26,-0.01,0.01,0.00,-15.56,12.37,19.87,0.71,-0.04,-0.70,0.01
5607883, 9.56,-0.67,0.23,-0.01,0.01,0.00,-15.56,12.37,19.87,0.71,-0.04,-0.70,0.01
5614482, 9.56,-0.67,0.23,-0.01,0.01,0.00,-15.56,12.37,19.87,0.71,-0.04,-0.70,0.01
5619687, 9.56,-0.67,0.24,-0.01,0.01,0.00,-15.56,12.37,19.87,0.71,-0.04,-0.70,0.01
5627539, 9.54,-0.71,0.22,0.01,0.01,0.00,-15.56,12.37,19.87,0.71,-0.04,-0.70,0.01
5642224, 9.52,-0.71,0.21,0.01,0.01,0.00,-16.00,11.56,19.06,0.71,-0.04,-0.70,0.01
5648774, 9.53,-0.74,0.23,0.01,0.01,0.00,-16.00,11.56,19.06,0.71,-0.04,-0.70,0.01
5655774, 9.55,-0.67,0.21,-0.01,0.00,0.00,-16.00,11.56,19.06,0.71,-0.04,-0.70,0.01
5660425, 9.55,-0.67,0.21,-0.01,0.00,0.00,-16.00,11.56,19.06,0.71,-0.04,-0.70,0.01
5667857, 9.58,-0.65,0.20,-0.02,0.00,0.00,-16.00,11.56,19.06,0.71,-0.04,-0.70,0.01
5673957, 9.58,-0.65,0.20,-0.01,0.00,0.00,-16.00,11.56,19.06,0.71,-0.04,-0.70,0.01
5689969, 9.53,-0.67,0.19,-0.00,0.00,0.00,-15.25,12.37,19.06,0.71,-0.04,-0.70,0.01
5697846, 9.54,-0.72,0.18,0.00,0.01,0.00,-15.25,12.37,19.06,0.71,-0.04,-0.70,0.01
5704057, 9.54,-0.72,0.18,-0.00,0.01,0.00,-15.25,12.37,19.06,0.71,-0.04,-0.70,0.01
5709686, 9.54,-0.69,0.18,-0.00,0.01,0.00,-15.25,12.37,19.06,0.71,-0.04,-0.70,0.01
5717237, 9.55,-0.68,0.20,-0.01,0.01,0.00,-15.25,12.37,19.06,0.71,-0.04,-0.70,0.01
5722757, 9.55,-0.68,0.20,-0.01,0.01,0.00,-15.25,12.37,19.06,0.71,-0.04,-0.70,0.01
5739566, 9.52,-0.72,0.21,-0.00,0.01,0.00,-15.56,12.00,18.25,0.71,-0.04,-0.70,0.01
5747443, 9.53,-0.71,0.22,-0.01,0.01,0.00,-15.56,12.00,18.25,0.71,-0.04,-0.70,0.01
5752547, 9.53,-0.71,0.22,-0.01,0.01,0.00,-15.56,12.00,18.25,0.71,-0.04,-0.70,0.01
5759173, 9.57,-0.73,0.19,-0.00,0.01,0.00,-15.56,12.00,18.25,0.71,-0.04,-0.70,0.01
5766058, 9.53,-0.71,0.21,-0.00,0.01,0.00,-15.56,12.00,18.25,0.71,-0.04,-0.70,0.01
5781003, 9.52,-0.72,0.23,0.00,0.01,0.00,-15.56,12.00,18.25,0.71,-0.04,-0.70,0.01
5787153, 9.50,-0.71,0.19,0.00,0.02,-0.00,-16.37,11.56,17.87,0.71,-0.04,-0.70,0.01
5792025, 9.50,-0.71,0.19,0.00,0.02,-0.00,-16.37,11.56,17.87,0.71,-0.04,-0.70,0.01
5798928, 9.55,-0.72,0.21,0.00,0.01,0.00,-16.37,11.56,17.87,0.71,-0.04,-0.70,0.01
5805733, 9.55,-0.72,0.21,0.01,0.01,0.00,-16.37,11.56,17.87,0.71,-0.04,-0.70,0.01
5820973, 9.55,-0.73,0.22,0.01,0.02,-0.00,-16.37,11.56,17.87,0.71,-0.04,-0.70,0.01
5828742, 9.52,-0.73,0.24,0.01,0.02,-0.00,-16.37,11.56,17.87,0.71,-0.04,-0.70,0.01
5833199, 9.52,-0.73,0.24,0.01,0.02,-0.00,-16.37,11.56,17.87,0.71,-0.04,-0.70,0.01
5848764, 9.57,-0.67,0.28,0.01,0.02,-0.00,-16.37,12.00,19.87,0.71,-0.04,-0.70,0.01
5855052, 9.57,-0.67,0.28,0.01,0.02,-0.00,-16.37,12.00,19.87,0.71,-0.04,-0.70,0.01
5860500, 9.59,-0.69,0.28,0.01,0.02,-0.00,-16.37,12.00,19.87,0.71,-0.04,-0.70,0.01
5868166, 9.56,-0.71,0.31,0.00,0.02,-0.00,-16.37,12.00,19.87,0.71,-0.04,-0.70,0.01
5872879, 9.56,-0.71,0.31,0.00,0.02,-0.00,-16.37,12.00,19.87,0.71,-0.04,-0.70,0.01
5889896, 9.55,-0.71,0.31,-0.02,0.01,0.00,-16.69,11.56,19.06,0.71,-0.04,-0.70,0.01
5897311, 9.58,-0.67,0.33,-0.02,0.00,0.00,-16.69,11.56,19.06,0.71,-0.04,-0.70,0.01
5901766, 9.58,-0.67,0.33,-0.02,0.00,0.00,-16.69,11.56,19.06,0.71,-0.04,-0.70,0.01
5909069, 9.61,-0.66,0.27,-0.02,0.00,0.00,-16.69,11.56,19.06,0.71,-0.04,-0.70,0.01
5914979, 9.61,-0.66,0.27,-0.01,-0.00,0.00,-16.69,11.56,19.06,0.71,-0.04,-0.70,0.01
5930788, 9.51,-0.71,0.28,-0.01,-0.00,0.00,-16.69,11.56,19.06,0.71,-0.04,-0.70,0.01
5935241, 9.51,-0.71,0.28,-0.00,-0.01,0.00,-16.37,12.00,19.06,0.71,-0.04,-0.70,0.01
5940649, 9.53,-0.70,0.23,-0.00,-0.01,0.00,-16.37,12.00,19.06,0.71,-0.04,-0.70,0.01
5948031, 9.53,-0.69,0.22,-0.01,-0.00,0.00,-16.37,12.00,19.06,0.71,-0.04,-0.70,0.01
5962725, 9.58,-0.67,0.22,-0.01,-0.01,0.00,-16.37,12.00,19.06,0.71,-0.04,-0.70,0.01
5969639, 9.56,-0.65,0.23,-0.01,-0.01,0.00,-16.37,12.00,19.06,0.71,-0.04,-0.70,0.01
5986178, 9.53,-0.67,0.28,0.01,-0.01,0.00,-16.37,12.75,17.56,0.71,-0.04,-0.70,0.01
5991301, 9.55,-0.68,0.27,0.01,-0.01,0.00,-16.37,12.75,17.56,0.71,-0.04,-0.70,0.01
5998746, 9.55,-0.68,0.25,0.01,-0.00,0.00,-16.37,12.75,17.56,0.71,-0.04,-0.70,0.01
6004141, 9.55,-0.68,0.25,0.01,-0.00,0.00,-16.37,12.75,17.56,0.71,-0.04,-0.70,0.01
6010429, 9.55,-0.68,0.26,0.01,-0.00,0.01,-16.37,12.75,17.56,0.71,-0.04,-0.70,0.01
6017090, 9.54,-0.70,0.22,0.01,-0.00,0.00,-16.37,12.75,17.56,0.71,-0.04,-0.70,0.01
6032050, 9.54,-0.72,0.29,0.03,-0.00,0.00,-16.37,12.75,17.56,0.71,-0.04,-0.70,0.01
6036501, 9.54,-0.72,0.29,0.03,-0.01,0.00,-16.37,12.00,17.87,0.71,-0.04,-0.70,0.01
6041130, 9.50,-0.71,0.28,0.03,-0.01,0.00,-16.37,12.00,17.87,0.71,-0.04,-0.70,0.01
6055827, 9.51,-0.77,0.24,0.05,-0.00,0.00,-16.37,12.00,17.87,0.71,-0.04,-0.70,0.01
6061339, 9.55,-0.77,0.21,0.05,-0.00,0.00,-16.37,12.00,17.87,0.71,-0.04,-0.70,0.01
6068699, 9.53,-0.75,0.20,0.05,0.00,-0.00,-16.37,12.00,17.87,0.71,-0.04,-0.70,0.01
6073574, 9.53,-0.75,0.20,0.05,0.00,-0.00,-16.37,12.00,17.87,0.71,-0.04,-0.70,0.01
6080522, 9.50,-0.77,0.18,0.05,0.00,0.00,-16.37,12.00,17.87,0.71,-0.04,-0.70,0.01
6095143, 9.50,-0.70,0.19,0.04,0.00,-0.00,-16.37,11.56,19.87,0.71,-0.04,-0.70,0.02
6099850, 9.55,-0.73,0.17,0.03,0.00,-0.00,-16.37,11.56,19.87,0.71,-0.04,-0.70,0.02
6105103, 9.55,-0.73,0.17,0.03,0.00,-0.00,-16.37,11.56,19.87,0.71,-0.04,-0.70,0.02
6111230, 9.56,-0.73,0.17,0.02,0.00,-0.00,-16.37,11.56,19.87,0.71,-0.04,-0.70,0.02
6118344, 9.56,-0.74,0.16,0.01,0.01,-0.00,-16.37,11.56,19.87,0.71,-0.04,-0.70,0.02
6132977, 9.59,-0.71,0.22,-0.01,0.01,-0.00,-16.37,11.56,19.87,0.71,-0.04,-0.70,0.02
6138530, 9.55,-0.70,0.26,-0.01,0.01,0.00,-15.25,12.37,18.37,0.71,-0.04,-0.70,0.02
6142978, 9.55,-0.70,0.26,-0.01,0.01,0.00,-15.25,12.37,18.37,0.71,-0.04,-0.70,0.02
6150255, 9.56,-0.68,0.29,-0.02,0.01,-0.00,-15.25,12.37,18.37,0.71,-0.04,-0.70,0.02
6156312, 9.56,-0.68,0.29,-0.02,0.01,-0.00,-15.25,12.37,18.37,0.71,-0.04,-0.70,0.01
6172003, 9.58,-0.70,0.30,-0.03,0.01,-0.00,-15.25,12.37,18.37,0.71,-0.04,-0.70,0.01
6179689, 9.52,-0.72,0.29,-0.03,0.00,-0.00,-15.25,12.37,18.37,0.71,-0.04,-0.70,0.01
6184148, 9.52,-0.72,0.29,-0.03,0.00,-0.00,-15.25,12.37,18.37,0.71,-0.04,-0.70,0.01
6199013, 9.53,-0.70,0.31,-0.04,0.00,-0.00,-15.56,12.00,19.06,0.71,-0.04,-0.70,0.01
6203457, 9.53,-0.70,0.31,-0.04,0.00,-0.00,-15.56,12.00,19.06,0.71,-0.04,-0.70,0.01
6210520, 9.56,-0.67,0.23,-0.04,-0.00,0.00,-15.56,12.00,19.06,0.71,-0.04,-0.70,0.01
6217018, 9.56,-0.67,0.23,-0.03,-0.00,0.00,-15.56,12.00,19.06,0.71,-0.04,-0.70,0.01
6222239, 9.54,-0.68,0.29,-0.03,-0.00,0.00,-15.56,12.00,19.06,0.71,-0.04,-0.70,0.01
6229842, 9.53,-0.67,0.27,-0.03,-0.00,-0.00,-15.56,12.00,19.06,0.71,-0.04,-0.70,0.01
6244483, 9.51,-0.68,0.29,-0.02,-0.00,-0.00,-15.25,12.00,19.06,0.71,-0.04,-0.70,0.01
6251165, 9.56,-0.68,0.33,-0.01,-0.00,0.00,-15.25,12.00,19.06,0.71,-0.04,-0.70,0.01
6257690, 9.56,-0.68,0.33,-0.00,-0.00,0.00,-15.25,12.00,19.06,0.71,-0.04,-0.70,0.01
6262736, 9.53,-0.70,0.33,-0.00,-0.00,0.00,-15.25,12.00,19.06,0.71,-0.04,-0.70,0.01
6269993, 9.57,-0.69,0.33,0.00,-0.00,0.00,-15.25,12.00,19.06,0.71,-0.04,-0.70,0.01
6285159, 9.55,-0.70,0.33,0.00,-0.01,0.00,-15.25,12.00,19.06,0.71,-0.04,-0.70,0.01
6291013, 9.56,-0.69,0.30,-0.00,-0.01,0.00,-17.06,12.37,18.37,0.71,-0.04,-0.70,0.01
6297552, 9.56,-0.69,0.30,-0.01,-0.02,0.00,-17.06,12.37,18.37,0.71,-0.04,-0.70,0.01
6302662, 9.56,-0.69,0.28,-0.01,-0.02,0.00,-17.06,12.37,18.37,0.71,-0.04,-0.70,0.01
6310041, 9.56,-0.71,0.24,-0.01,-0.02,0.00,-17.06,12.37,18.37,0.71,-0.04,-0.70,0.01
6325094, 9.52,-0.67,0.22,-0.02,-0.02,0.00,-17.06,12.37,18.37,0.71,-0.04,-0.70,0.01
6331782, 9.53,-0.67,0.22,-0.02,-0.02,0.00,-17.06,12.37,18.37,0.71,-0.04,-0.70,0.01
6336239, 9.53,-0.67,0.22,-0.02,-0.02,0.00,-16.00,12.37,18.37,0.71,-0.04,-0.70,0.01
6351625, 9.56,-0.68,0.19,-0.00,-0.01,0.00,-16.00,12.37,18.37,0.71,-0.04,-0.70,0.01
6358328, 9.56,-0.68,0.19,0.00,-0.01,-0.00,-16.00,12.37,18.37,0.71,-0.04,-0.70,0.01
6363175, 9.55,-0.74,0.19,0.00,-0.01,-0.00,-16.00,12.37,18.37,0.71,-0.04,-0.70,0.01
6382531, 9.54,-0.75,0.23,0.01,-0.01,-0.00,-16.00,12.37,18.37,0.71,-0.04,-0.70,0.01
6396514, 9.54,-0.75,0.23,0.01,-0.01,-0.00,-16.37,12.37,20.25,0.71,-0.04,-0.70,0.01
6402505, 9.57,-0.70,0.28,0.02,-0.00,-0.00,-16.37,12.37,20.25,0.71,-0.04,-0.70,0.01
6409909, 9.56,-0.69,0.25,0.02,-0.01,-0.00,-16.37,12.37,20.25,0.71,-0.04,-0.70,0.01
6414359, 9.56,-0.69,0.25,0.02,-0.01,-0.00,-16.37,12.37,20.25,0.71,-0.04,-0.70,0.01
6421558, 9.54,-0.68,0.28,0.02,-0.01,-0.00,-16.37,12.37,20.25,0.71,-0.04,-0.70,0.01
6437660, 9.53,-0.69,0.27,0.03,-0.01,-0.00,-15.56,11.56,17.19,0.71,-0.04,-0.70,0.01
6442367, 9.56,-0.72,0.28,0.03,-0.01,-0.00,-15.56,11.56,17.19,0.71,-0.04,-0.70,0.01
6446821, 9.56,-0.72,0.28,0.03,-0.01,-0.00,-15.56,11.56,17.19,0.71,-0.04,-0.70,0.01
6461692, 9.52,-0.77,0.22,0.02,-0.01,-0.00,-15.56,11.56,17.19,0.71,-0.04,-0.70,0.01
6468257, 9.52,-0.77,0.22,0.00,-0.01,-0.00,-15.56,11.56,17.19,0.71,-0.04,-0.70,0.01
6473460, 9.59,-0.71,0.23,0.00,-0.01,-0.00,-15.56,11.56,17.19,0.71,-0.04,-0.70,0.01
6480975, 9.56,-0.69,0.24,-0.00,-0.01,-0.00,-15.56,11.56,17.19,0.71,-0.04,-0.70,0.01
6495656, 9.53,-0.71,0.23,0.00,-0.01,-0.00,-14.87,12.37,19.06,0.71,-0.04,-0.70,0.01
6502264, 9.52,-0.72,0.24,0.00,-0.01,-0.01,-14.87,12.37,19.06,0.71,-0.04,-0.70,0.01
6509211, 9.56,-0.69,0.23,0.01,-0.00,-0.00,-14.87,12.37,19.06,0.71,-0.04,-0.70,0.01
6513951, 9.56,-0.69,0.23,0.01,-0.00,-0.00,-14.87,12.37,19.06,0.71,-0.04,-0.70,0.01
6521383, 9.56,-0.69,0.23,0.01,-0.01,-0.01,-14.87,12.37,19.06,0.71,-0.04,-0.70,0.01
6537300, 9.55,-0.69,0.24,0.02,-0.01,-0.01,-15.25,11.56,17.87,0.71,-0.04,-0.70,0.01
6543046, 9.54,-0.66,0.23,0.01,-0.01,-0.01,-15.25,11.56,17.87,0.71,-0.04,-0.70,0.01
6550535, 9.56,-0.61,0.22,0.01,-0.01,-0.00,-15.25,11.56,17.87,0.71,-0.04,-0.70,0.01
6554985, 9.56,-0.61,0.22,0.01,-0.01,-0.00,-15.25,11.56,17.87,0.71,-0.04,-0.70,0.01
6562198, 9.55,-0.66,0.19,0.01,-0.00,-0.01,-15.25,11.56,17.87,0.71,-0.04,-0.70,0.01
6578193, 9.54,-0.69,0.20,0.01,-0.00,-0.00,-15.25,11.56,17.87,0.71,-0.04,-0.70,0.01
6583871, 9.55,-0.69,0.22,0.01,-0.00,-0.00,-15.25,11.56,17.87,0.71,-0.04,-0.70,0.01
6588477, 9.55,-0.69,0.22,0.00,-0.00,-0.01,-16.00,11.56,20.25,0.71,-0.04,-0.70,0.01
6604063, 9.55,-0.70,0.23,-0.00,-0.00,-0.01,-16.00,11.56,20.25,0.71,-0.04,-0.70,0.01
6611736, 9.54,-0.69,0.24,-0.00,-0.00,-0.00,-16.00,11.56,20.25,0.71,-0.04,-0.70,0.01
6617244, 9.54,-0.69,0.24,-0.00,-0.00,-0.00,-16.00,11.56,20.25,0.71,-0.04,-0.70,0.01
6623366, 9.55,-0.66,0.27,-0.00,-0.01,-0.00,-16.00,11.56,20.25,0.71,-0.04,-0.70,0.01
6630960, 9.58,-0.68,0.24,0.01,-0.00,-0.00,-16.00,11.56,20.25,0.71,-0.04,-0.70,0.01
6645646, 9.58,-0.71,0.26,0.02,-0.01,-0.00,-16.00,11.56,19.87,0.71,-0.04,-0.70,0.01
6652598, 9.54,-0.69,0.22,0.01,-0.01,-0.00,-16.00,11.56,19.87,0.71,-0.04,-0.70,0.01
6658565, 9.54,-0.69,0.22,0.00,-0.01,-0.00,-16.00,11.56,19.87,0.71,-0.04,-0.70,0.01
6664050, 9.55,-0.67,0.22,0.00,-0.01,-0.00,-16.00,11.56,19.87,0.71,-0.04,-0.70,0.01
6671286, 9.57,-0.67,0.24,0.00,-0.01,-0.00,-16.00,11.56,19.87,0.71,-0.04,-0.70,0.01
6686245, 9.55,-0.67,0.19,0.01,-0.01,-0.00,-16.00,11.56,19.87,0.71,-0.04,-0.70,0.01
6691932, 9.54,-0.68,0.21,0.00,-0.01,-0.00,-16.37,12.37,19.56,0.71,-0.04,-0.70,0.01
6697018, 9.54,-0.68,0.21,0.00,-0.01,-0.00,-16.37,12.37,19.56,0.71,-0.04,-0.70,0.01
6703317, 9.53,-0.67,0.19,0.00,-0.00,-0.00,-16.37,12.37,19.56,0.71,-0.04,-0.70,0.01
6710113, 9.54,-0.65,0.19,0.00,-0.00,-0.00,-16.37,12.37,19.56,0.71,-0.04,-0.70,0.01
6725059, 9.53,-0.66,0.22,0.01,0.00,-0.00,-16.37,12.37,19.56,0.71,-0.04,-0.70,0.01
6732630, 9.55,-0.70,0.22,0.01,0.00,-0.00,-16.37,12.37,19.56,0.71,-0.04,-0.70,0.01
6737089, 9.55,-0.70,0.22,0.01,0.00,-0.00,-16.37,12.37,19.56,0.71,-0.04,-0.70,0.01
6752649, 9.54,-0.71,0.24,0.01,0.00,0.00,-16.69,11.56,18.69,0.71,-0.04,-0.70,0.01
6758876, 9.54,-0.71,0.24,0.00,-0.00,0.00,-16.69,11.56,18.69,0.71,-0.04,-0.70,0.01
6764341, 9.56,-0.64,0.22,0.00,-0.00,0.00,-16.69,11.56,18.69,0.71,-0.04,-0.70,0.01
6771801, 9.56,-0.63,0.19,0.00,-0.00,0.00,-16.69,11.56,18.69,0.71,-0.04,-0.70,0.01
6776685, 9.56,-0.63,0.19,0.00,-0.00,0.00,-16.69,11.56,18.69,0.71,-0.04,-0.70,0.01
6783637, 9.49,-0.62,0.33,-0.01,-0.01,0.00,-16.69,11.56,18.69,0.71,-0.04,-0.70,0.01
6808269, 9.61,-0.64,0.28,0.03,0.00,0.00,-16.69,12.75,19.06,0.71,-0.04,-0.70,0.02
6814229, 9.63,-0.75,0.19,0.04,0.00,0.01,-16.69,12.75,19.06,0.71,-0.04,-0.70,0.02
6821708, 9.56,-0.84,0.22,0.03,0.00,0.00,-16.69,12.75,19.06,0.71,-0.04,-0.70,0.02
6826156, 9.56,-0.84,0.22,0.03,0.00,0.00,-16.69,12.75,19.06,0.71,-0.04,-0.70,0.02
6833549, 9.53,-0.92,0.22,-0.00,-0.00,0.00,-16.69,12.75,19.06,0.71,-0.04,-0.70,0.02
6848243, 9.52,-0.67,0.25,-0.03,-0.01,0.01,-16.69,11.56,19.06,0.71,-0.04,-0.70,0.02
6852899, 9.56,-0.61,0.28,-0.02,-0.00,0.00,-16.69,11.56,19.06,0.71,-0.04,-0.70,0.02
6857346, 9.56,-0.61,0.28,-0.02,-0.00,0.00,-16.69,11.56,19.06,0.71,-0.04,-0.70,0.02
6863706, 9.57,-0.65,0.24,0.00,-0.00,0.00,-16.69,11.56,19.06,0.71,-0.04,-0.70,0.02
6880732, 9.53,-0.76,0.27,0.01,0.00,0.00,-16.69,11.56,19.06,0.71,-0.04,-0.70,0.02
6885653, 9.53,-0.76,0.27,0.01,0.00,0.00,-16.69,11.56,19.06,0.71,-0.04,-0.70,0.02
6890899, 9.55,-0.75,0.23,-0.00,-0.00,0.00,-15.56,12.37,19.50,0.71,-0.04,-0.70,0.02
6905845, 9.55,-0.67,0.25,-0.01,-0.00,0.00,-15.56,12.37,19.50,0.71,-0.04,-0.70,0.02
6913348, 9.55,-0.67,0.21,-0.01,-0.01,0.00,-15.56,12.37,19.50,0.71,-0.04,-0.70,0.02
6919651, 9.55,-0.67,0.21,-0.01,-0.01,0.00,-15.56,12.37,19.50,0.71,-0.04,-0.70,0.02
6925125, 9.52,-0.63,0.22,-0.01,-0.01,0.00,-15.56,12.37,19.50,0.71,-0.04,-0.70,0.02
6932931, 9.53,-0.64,0.22,-0.01,-0.00,0.00,-15.56,12.37,19.50,0.71,-0.04,-0.70,0.02
6947607, 9.51,-0.65,0.21,0.00,-0.00,0.00,-16.00,11.56,19.50,0.71,-0.04,-0.70,0.02
6954232, 9.53,-0.71,0.20,0.00,0.00,0.00,-16.00,11.56,19.50,0.71,-0.04,-0.70,0.02
6961402, 9.57,-0.71,0.19,-0.00,0.00,0.00,-16.00,11.56,19.50,0.71,-0.04,-0.70,0.02
6965995, 9.57,-0.71,0.19,-0.00,0.00,0.00,-16.00,11.56,19.50,0.71,-0.04,-0.70,0.02
6973584, 9.57,-0.73,0.17,-0.01,0.00,0.00,-16.00,11.56,19.50,0.71,-0.04,-0.70,0.02
6979895, 9.57,-0.73,0.17,-0.00,0.00,0.00,-16.00,11.56,19.50,0.71,-0.04,-0.70,0.02
6995783, 9.54,-0.68,0.23,0.00,0.01,0.00,-15.56,11.56,18.25,0.71,-0.04,-0.70,0.02
7003520, 9.53,-0.67,0.24,0.01,0.01,-0.00,-15.56,11.56,18.25,0.71,-0.04,-0.70,0.02
7009716, 9.53,-0.67,0.24,0.01,0.01,-0.00,-15.56,11.56,18.25,0.71,-0.04,-0.70,0.02
7015351, 9.54,-0.68,0.23,0.01,0.01,-0.00,-15.56,11.56,18.25,0.71,-0.04,-0.70,0.02
7022950, 9.55,-0.68,0.25,0.01,0.01,0.00,-15.56,11.56,18.25,0.71,-0.04,-0.70,0.02
7028335, 9.55,-0.68,0.25,0.01,0.01,0.00,-15.56,11.56,18.25,0.71,-0.04,-0.70,0.02
7045154, 9.53,-0.69,0.24,0.01,0.01,0.00,-16.00,12.37,18.56,0.71,-0.04,-0.70,0.02
7052938, 9.53,-0.67,0.24,0.01,0.01,0.00,-16.00,12.37,18.56,0.71,-0.04,-0.70,0.02
7058183, 9.53,-0.67,0.24,0.01,0.01,0.00,-16.00,12.37,18.56,0.71,-0.04,-0.70,0.02
7064793, 9.54,-0.67,0.20,0.00,0.01,0.00,-16.00,12.37,18.56,0.71,-0.04,-0.70,0.02
7072044, 9.54,-0.68,0.22,0.00,0.01,0.00,-16.00,12.37,18.56,0.71,-0.04,-0.70,0.02
7086676, 9.54,-0.70,0.21,0.00,0.01,0.00,-16.00,12.37,18.56,0.71,-0.04,-0.70,0.02
7092826, 9.56,-0.68,0.28,-0.00,0.01,0.00,-16.37,12.00,19.00,0.71,-0.04,-0.70,0.02
7097723, 9.56,-0.68,0.28,-0.00,0.01,0.00,-16.37,12.00,19.00,0.71,-0.04,-0.70,0.02
7104611, 9.57,-0.65,0.24,0.01,0.01,0.00,-16.37,12.00,19.00,0.71,-0.04,-0.70,0.02
7111374, 9.57,-0.65,0.24,0.02,0.02,-0.00,-16.37,12.00,19.00,0.71,-0.04,-0.70,0.02
7126651, 9.51,-0.72,0.17,0.01,0.01,0.00,-16.37,12.00,19.00,0.71,-0.04,-0.70,0.02
7134346, 9.56,-0.67,0.21,0.01,0.02,0.00,-16.37,12.00,19.00,0.71,-0.04,-0.70,0.02
7138794, 9.56,-0.67,0.21,0.01,0.02,0.00,-16.37,12.00,19.00,0.71,-0.04,-0.70,0.02
7154523, 9.51,-0.60,0.31,0.02,0.02,0.00,-16.00,12.37,19.00,0.71,-0.04,-0.70,0.02
7161302, 9.51,-0.60,0.31,0.04,0.02,-0.00,-16.00,12.37,19.00,0.71,-0.04,-0.70,0.02
7166383, 9.52,-0.60,0.27,0.04,0.02,-0.00,-16.00,12.37,19.00,0.71,-0.04,-0.70,0.02
7173716, 9.61,-0.81,0.33,0.06,0.02,-0.00,-16.00,12.37,19.00,0.71,-0.04,-0.70,0.02
7179321, 9.61,-0.81,0.33,0.06,0.02,-0.00,-16.00,12.37,19.00,0.71,-0.04,-0.70,0.02
7195906, 9.53,-0.79,0.36,0.01,0.01,-0.00,-15.56,12.37,19.06,0.71,-0.04,-0.70,0.02
7203612, 9.56,-0.70,0.31,-0.01,0.01,-0.00,-15.56,12.37,19.06,0.71,-0.04,-0.70,0.02
7208947, 9.56,-0.70,0.31,-0.01,0.01,-0.00,-15.56,12.37,19.06,0.71,-0.04,-0.70,0.02
7227582, 9.55,-0.62,0.31,-0.01,0.01,0.00,-15.56,12.37,19.06,0.71,-0.04,-0.70,0.02
7246088, 9.58,-0.69,0.30,0.02,0.00,0.00,-16.37,11.56,19.00,0.71,-0.04,-0.70,0.02
7253756, 9.55,-0.72,0.30,0.02,0.00,0.00,-16.37,11.56,19.00,0.71,-0.04,-0.70,0.02
7259304, 9.55,-0.72,0.30,0.02,0.00,0.00,-16.37,11.56,19.00,0.71,-0.04,-0.70,0.02
7265742, 9.51,-0.70,0.29,0.01,0.00,0.00,-16.37,11.56,19.00,0.71,-0.04,-0.70,0.02
7273186, 9.55,-0.69,0.30,-0.01,-0.00,0.00,-16.37,11.56,19.00,0.71,-0.04,-0.70,0.02
7287834, 9.55,-0.64,0.28,-0.02,-0.00,0.01,-16.37,11.56,19.00,0.71,-0.04,-0.70,0.02
7293941, 9.56,-0.65,0.30,-0.01,-0.00,0.01,-15.56,12.00,17.50,0.71,-0.04,-0.70,0.02
7299195, 9.56,-0.65,0.30,-0.01,-0.00,0.01,-15.56,12.00,17.50,0.71,-0.04,-0.70,0.02
7305731, 9.55,-0.70,0.30,-0.01,-0.00,0.01,-15.56,12.00,17.50,0.71,-0.04,-0.70,0.02
7312615, 9.54,-0.73,0.26,-0.02,-0.01,0.01,-15.56,12.00,17.50,0.71,-0.04,-0.70,0.02
7327591, 9.55,-0.72,0.30,-0.03,-0.01,0.01,-15.56,12.00,17.50,0.71,-0.04,-0.70,0.02
7335323, 9.50,-0.75,0.28,-0.04,-0.01,0.01,-15.56,12.00,17.50,0.71,-0.04,-0.70,0.02
7339781, 9.50,-0.75,0.28,-0.04,-0.01,0.01,-15.56,12.00,17.50,0.71,-0.04,-0.70,0.02
7354654, 9.57,-0.65,0.31,-0.05,-0.01,0.00,-16.00,12.37,18.25,0.71,-0.04,-0.70,0.02
7359106, 9.57,-0.65,0.31,-0.05,-0.01,0.00,-16.00,12.37,18.25,0.71,-0.04,-0.70,0.01
7365856, 9.56,-0.70,0.25,-0.03,-0.01,0.01,-16.00,12.37,18.25,0.71,-0.04,-0.70,0.01
7372785, 9.54,-0.70,0.24,-0.02,-0.00,0.00,-16.00,12.37,18.25,0.71,-0.04,-0.70,0.01
7377514, 9.54,-0.70,0.24,-0.02,-0.00,0.00,-16.00,12.37,18.25,0.71,-0.04,-0.70,0.01
7385266, 9.52,-0.76,0.25,-0.01,-0.01,0.01,-16.00,12.37,18.25,0.71,-0.04,-0.70,0.01
7399961, 9.53,-0.72,0.32,-0.02,-0.00,0.00,-16.00,11.69,19.56,0.71,-0.04,-0.70,0.01
7406336, 9.56,-0.70,0.30,-0.02,-0.01,0.01,-16.00,11.69,19.56,0.71,-0.04,-0.70,0.01
7413812, 9.58,-0.70,0.33,-0.02,-0.01,0.00,-16.00,11.69,19.56,0.71,-0.04,-0.70,0.01
7418266, 9.58,-0.70,0.33,-0.02,-0.01,0.00,-16.00,11.69,19.56,0.71,-0.04,-0.70,0.01
7425591, 9.57,-0.68,0.34,-0.03,-0.02,0.00,-16.00,11.69,19.56,0.71,-0.04,-0.70,0.01
7432149, 9.57,-0.68,0.34,-0.04,-0.02,0.01,-16.00,11.69,19.56,0.71,-0.04,-0.70,0.01
7447717, 9.53,-0.69,0.29,-0.05,-0.02,0.00,-15.25,13.19,18.69,0.71,-0.04,-0.70,0.01
7452173, 9.53,-0.69,0.29,-0.04,-0.02,0.00,-15.25,13.19,18.69,0.71,-0.04,-0.70,0.01
7456883, 9.54,-0.68,0.29,-0.04,-0.02,0.00,-15.25,13.19,18.69,0.71,-0.04,-0.70,0.01
7463861, 9.57,-0.75,0.26,-0.02,-0.02,0.00,-15.25,13.19,18.69,0.71,-0.04,-0.70,0.01
7478531, 9.52,-0.79,0.28,-0.01,-0.02,-0.00,-15.25,13.19,18.69,0.71,-0.04,-0.70,0.01
7486007, 9.52,-0.81,0.26,-0.01,-0.02,-0.00,-15.25,13.19,18.69,0.71,-0.04,-0.70,0.01
7490451, 9.52,-0.81,0.26,-0.01,-0.02,-0.00,-16.37,12.50,19.56,0.71,-0.04,-0.70,0.01
7506461, 9.56,-0.77,0.22,0.00,-0.02,-0.01,-16.37,12.50,19.56,0.71,-0.04,-0.70,0.01
7513754, 9.59,-0.74,0.23,0.01,-0.02,-0.01,-16.37,12.50,19.56,0.71,-0.04,-0.70,0.01
7518303, 9.59,-0.74,0.23,0.01,-0.02,-0.01,-16.37,12.50,19.56,0.71,-0.04,-0.70,0.01
7525856, 9.57,-0.76,0.21,0.01,-0.01,-0.01,-16.37,12.50,19.56,0.71,-0.04,-0.70,0.01
7532151, 9.57,-0.76,0.21,0.01,-0.02,-0.01,-16.37,12.50,19.56,0.71,-0.04,-0.70,0.01
7548006, 9.52,-0.74,0.20,0.00,-0.02,-0.01,-16.00,12.50,19.19,0.71,-0.04,-0.70,0.01
7555568, 9.53,-0.70,0.17,0.00,-0.01,-0.01,-16.00,12.50,19.19,0.71,-0.04,-0.70,0.01
7561046, 9.53,-0.70,0.17,0.00,-0.01,-0.01,-16.00,12.50,19.19,0.71,-0.04,-0.70,0.01
7567223, 9.53,-0.67,0.14,0.00,-0.01,-0.01,-16.00,12.50,19.19,0.71,-0.04,-0.70,0.01
7574364, 9.57,-0.62,0.11,0.02,-0.00,-0.01,-16.00,12.50,19.19,0.71,-0.04,-0.70,0.01
7589044, 9.56,-0.67,0.13,0.04,-0.00,-0.02,-16.00,12.50,19.19,0.71,-0.04,-0.70,0.01
7593489, 9.56,-0.67,0.13,0.05,0.00,-0.02,-16.00,12.88,18.37,0.71,-0.04,-0.70,0.01
7598126, 9.54,-0.73,0.16,0.05,0.00,-0.02,-16.00,12.88,18.37,0.71,-0.04,-0.70,0.01
7612820, 9.52,-0.77,0.17,0.05,0.01,-0.02,-16.00,12.88,18.37,0.71,-0.04,-0.70,0.01
7618165, 9.55,-0.71,0.17,0.05,0.01,-0.02,-16.00,12.88,18.37,0.71,-0.04,-0.70,0.01
7625430, 9.54,-0.69,0.21,0.04,0.02,-0.02,-16.00,12.88,18.37,0.71,-0.04,-0.70,0.01
7630421, 9.54,-0.69,0.21,0.04,0.02,-0.02,-16.00,12.88,18.37,0.71,-0.04,-0.70,0.01
7647197, 9.51,-0.64,0.22,0.04,0.02,-0.02,-16.37,12.50,19.19,0.71,-0.04,-0.70,0.01
7651672, 9.51,-0.64,0.22,0.04,0.02,-0.02,-16.37,12.50,19.19,0.71,-0.04,-0.70,0.01
7656386, 9.54,-0.59,0.21,0.05,0.02,-0.02,-16.37,12.50,19.19,0.71,-0.04,-0.70,0.01
7671345, 9.55,-0.62,0.21,0.06,0.03,-0.02,-16.37,12.50,19.19,0.71,-0.04,-0.70,0.01
7677587, 9.55,-0.64,0.21,0.07,0.03,-0.02,-16.37,12.50,19.19,0.71,-0.04,-0.70,0.01
7684959, 9.50,-0.64,0.23,0.07,0.03,-0.01,-16.37,12.50,19.19,0.71,-0.04,-0.70,0.02
7689401, 9.50,-0.64,0.23,0.07,0.03,-0.01,-16.37,12.50,19.19,0.71,-0.04,-0.70,0.02
7704025, 9.53,-0.63,0.21,0.05,0.03,-0.01,-16.75,12.06,19.19,0.71,-0.03,-0.70,0.02
7708672, 9.54,-0.60,0.22,0.05,0.03,-0.01,-16.75,12.06,19.19,0.71,-0.03,-0.70,0.02
7715830, 9.56,-0.56,0.17,0.05,0.03,-0.00,-16.75,12.06,19.19,0.71,-0.03,-0.70,0.02
7720835, 9.56,-0.56,0.17,0.05,0.03,-0.00,-16.75,12.06,19.19,0.71,-0.03,-0.70,0.02
7727500, 9.55,-0.54,0.21,0.04,0.04,0.00,-16.75,12.06,19.19,0.71,-0.03,-0.70,0.02
7734651, 9.53,-0.55,0.25,0.03,0.04,0.00,-16.75,12.06,19.19,0.71,-0.03,-0.70,0.02
7749615, 9.54,-0.55,0.27,0.03,0.04,0.01,-16.00,12.06,19.19,0.71,-0.03,-0.70,0.02
7754063, 9.54,-0.55,0.27,0.03,0.04,0.01,-16.00,12.06,19.19,0.71,-0.03,-0.70,0.02
7758707, 9.55,-0.58,0.32,0.02,0.04,0.01,-16.00,12.06,19.19,0.71,-0.03,-0.70,0.02
7765744, 9.53,-0.61,0.38,0.01,0.03,0.02,-16.00,12.06,19.19,0.71,-0.03,-0.70,0.02
7780772, 9.56,-0.64,0.44,0.00,0.03,0.02,-16.00,12.06,19.19,0.71,-0.03,-0.70,0.02
7787685, 9.55,-0.67,0.45,0.01,0.03,0.02,-16.00,12.06,19.19,0.71,-0.03,-0.70,0.02
7792134, 9.55,-0.67,0.45,0.01,0.03,0.02,-14.87,12.37,18.25,0.71,-0.03,-0.70,0.02
7807948, 9.53,-0.84,0.43,-0.00,0.02,0.02,-14.87,12.37,18.25,0.71,-0.03,-0.70,0.02
7814958, 9.54,-0.79,0.42,-0.03,0.01,0.01,-14.87,12.37,18.25,0.71,-0.03,-0.70,0.02
7819583, 9.54,-0.79,0.42,-0.03,0.01,0.01,-14.87,12.37,18.25,0.71,-0.03,-0.70,0.02
7826881, 9.54,-0.74,0.35,-0.03,0.00,0.01,-14.87,12.37,18.25,0.71,-0.03,-0.70,0.02
7832624, 9.54,-0.74,0.35,-0.03,0.00,0.01,-14.87,12.37,18.25,0.71,-0.03,-0.70,0.02
7848954, 9.55,-0.71,0.32,0.00,0.00,0.01,-16.75,12.00,18.25,0.71,-0.03,-0.70,0.02
7856396, 9.51,-0.77,0.30,0.02,0.00,0.01,-16.75,12.00,18.25,0.71,-0.03,-0.70,0.02
7861269, 9.51,-0.77,0.30,0.02,0.00,0.01,-16.75,12.00,18.25,0.71,-0.03,-0.70,0.02
7867938, 9.50,-0.77,0.24,0.03,0.00,0.00,-16.75,12.00,18.25,0.71,-0.03,-0.70,0.02
7874805, 9.50,-0.77,0.24,0.03,0.01,0.00,-16.75,12.00,18.25,0.71,-0.03,-0.70,0.02
7889871, 9.59,-0.80,0.24,0.03,0.01,0.00,-16.75,12.00,18.25,0.71,-0.03,-0.70,0.02
7894320, 9.59,-0.80,0.24,0.03,0.01,0.00,-16.00,12.37,18.25,0.71,-0.03,-0.70,0.02
7899010, 9.57,-0.77,0.25,0.03,0.01,-0.01,-16.00,12.37,18.25,0.71,-0.03,-0.70,0.02
7913651, 9.56,-0.75,0.29,0.06,0.02,-0.01,-16.00,12.37,18.25,0.71,-0.03,-0.70,0.02
7919247, 9.53,-0.73,0.25,0.06,0.02,-0.01,-16.00,12.37,18.25,0.71,-0.03,-0.70,0.02
7926597, 9.55,-0.70,0.29,0.06,0.02,-0.01,-16.00,12.37,18.25,0.71,-0.03,-0.70,0.02
7931047, 9.55,-0.70,0.29,0.06,0.02,-0.01,-16.00,12.37,18.25,0.71,-0.03,-0.70,0.02
7938200, 9.54,-0.71,0.31,0.06,0.02,-0.01,-16.00,12.37,18.25,0.71,-0.03,-0.70,0.02
7952868, 9.56,-0.73,0.36,0.04,0.02,-0.01,-16.75,12.06,17.87,0.72,-0.03,-0.70,0.02
7957549, 9.58,-0.73,0.36,0.01,0.01,-0.02,-16.75,12.06,17.87,0.72,-0.03,-0.70,0.02
7961999, 9.58,-0.73,0.36,0.01,0.01,-0.02,-16.75,12.06,17.87,0.72,-0.03,-0.70,0.02
7968221, 9.56,-0.70,0.37,-0.02,0.01,-0.01,-16.75,12.06,17.87,0.72,-0.03,-0.70,0.02
7985034, 9.54,-0.68,0.41,-0.04,-0.01,-0.01,-16.75,12.06,17.87,0.72,-0.03,-0.70,0.02
7990276, 9.52,-0.60,0.34,-0.04,-0.01,-0.01,-16.75,12.06,17.87,0.72,-0.03,-0.70,0.02
7994723, 9.52,-0.60,0.34,-0.04,-0.01,-0.01,-15.56,12.50,19.06,0.72,-0.03,-0.70,0.02
8009516, 9.53,-0.57,0.37,-0.02,-0.01,-0.01,-15.56,12.50,19.06,0.72,-0.03,-0.70,0.02
8016416, 9.54,-0.61,0.33,-0.00,-0.00,-0.01,-15.56,12.50,19.06,0.72,-0.03,-0.70,0.02
8020865, 9.54,-0.61,0.33,-0.00,-0.00,-0.01,-15.56,12.50,19.06,0.72,-0.03,-0.70,0.02
8028054, 9.54,-0.67,0.34,0.01,-0.01,-0.01,-15.56,12.50,19.06,0.72,-0.03,-0.70,0.02
8044336, 9.50,-0.69,0.32,-0.00,-0.00,-0.01,-16.37,12.50,18.56,0.72,-0.03,-0.70,0.02
8061565, 9.56,-0.62,0.31,-0.01,-0.01,-0.00,-16.37,12.50,18.56,0.72,-0.03,-0.70,0.02
8078073, 9.52,-0.59,0.35,-0.00,-0.01,-0.00,-16.37,12.50,18.56,0.72,-0.03,-0.70,0.02
8083715, 9.52,-0.59,0.35,-0.00,-0.01,-0.00,-16.37,12.50,18.56,0.72,-0.03,-0.70,0.02
8089837, 9.54,-0.63,0.34,0.01,-0.01,0.00,-16.37,12.50,18.56,0.72,-0.03,-0.70,0.02
8104497, 9.52,-0.68,0.34,0.01,-0.01,0.00,-16.75,12.50,18.25,0.72,-0.03,-0.70,0.02
8110090, 9.54,-0.69,0.28,0.01,-0.01,0.00,-16.75,12.50,18.25,0.72,-0.03,-0.70,0.02
8117422, 9.54,-0.67,0.27,0.00,-0.01,-0.00,-16.75,12.50,18.25,0.72,-0.03,-0.70,0.02
8122150, 9.54,-0.67,0.27,0.00,-0.01,-0.00,-16.75,12.50,18.25,0.72,-0.03,-0.70,0.02
8128882, 9.54,-0.67,0.25,-0.00,-0.01,0.00,-16.75,12.50,18.25,0.72,-0.03,-0.70,0.02
8135537, 9.54,-0.67,0.25,-0.01,-0.01,-0.00,-16.75,12.50,18.25,0.72,-0.03,-0.70,0.02
8150899, 9.50,-0.68,0.26,-0.01,-0.01,-0.00,-16.00,11.69,17.87,0.72,-0.03,-0.70,0.02
8158465, 9.52,-0.67,0.28,-0.02,-0.00,-0.00,-16.00,11.69,17.87,0.72,-0.03,-0.70,0.02
8164250, 9.52,-0.67,0.28,-0.01,0.00,-0.00,-16.00,11.69,17.87,0.72,-0.03,-0.70,0.02
8170019, 9.54,-0.66,0.26,-0.01,0.00,-0.00,-16.00,11.69,17.87,0.72,-0.03,-0.70,0.02
8177355, 9.53,-0.67,0.29,-0.01,0.00,-0.00,-16.00,11.69,17.87,0.72,-0.03,-0.70,0.02
8192028, 9.51,-0.65,0.31,-0.01,0.01,-0.00,-16.00,11.69,17.87,0.72,-0.03,-0.70,0.02
8197724, 9.50,-0.57,0.30,0.01,0.01,-0.00,-15.56,11.69,18.25,0.72,-0.03,-0.70,0.02
8202180, 9.50,-0.57,0.30,0.01,0.01,-0.00,-15.56,11.69,18.25,0.72,-0.03,-0.70,0.02
8209188, 9.59,-0.74,0.30,0.03,0.01,-0.00,-15.56,11.69,18.25,0.72,-0.03,-0.70,0.02
8225539, 9.56,-0.78,0.26,0.01,0.01,-0.00,-15.56,11.69,18.25,0.72,-0.03,-0.70,0.02
8230745, 9.49,-0.75,0.30,0.01,0.01,-0.00,-15.56,11.69,18.25,0.72,-0.03,-0.70,0.02
8238192, 9.50,-0.73,0.33,-0.02,0.01,-0.01,-15.56,11.69,18.25,0.72,-0.03,-0.70,0.02
8242641, 9.50,-0.73,0.33,-0.02,0.01,-0.01,-15.56,11.69,18.25,0.72,-0.03,-0.70,0.02
8257345, 9.50,-0.59,0.33,-0.02,0.01,-0.00,-16.00,12.06,17.50,0.72,-0.03,-0.70,0.02
8261793, 9.50,-0.59,0.33,-0.02,0.01,-0.00,-16.00,12.06,17.50,0.72,-0.03,-0.70,0.02
8268460, 9.53,-0.60,0.33,-0.01,0.01,-0.00,-16.00,12.06,17.50,0.72,-0.03,-0.70,0.02
8273828, 9.53,-0.60,0.33,-0.01,0.01,-0.00,-16.00,12.06,17.50,0.72,-0.03,-0.70,0.02
8280070, 9.57,-0.65,0.33,0.00,0.01,0.00,-16.00,12.06,17.50,0.72,-0.03,-0.70,0.02
8286935, 9.53,-0.66,0.33,0.01,0.00,0.00,-16.00,12.06,17.50,0.72,-0.03,-0.70,0.02
8301949, 9.53,-0.67,0.34,0.00,0.01,0.00,-16.00,12.06,18.56,0.72,-0.03,-0.70,0.02
8309257, 9.58,-0.65,0.34,-0.01,0.01,0.00,-16.00,12.06,18.56,0.72,-0.03,-0.70,0.02
8315065, 9.58,-0.65,0.34,-0.02,0.00,0.01,-16.00,12.06,18.56,0.72,-0.03,-0.70,0.02
8320692, 9.56,-0.61,0.33,-0.02,0.00,0.01,-16.00,12.06,18.56,0.72,-0.03,-0.70,0.02
8330000, 9.46,-0.64,0.30,-0.03,0.00,0.01,-16.00,12.06,18.56,0.72,-0.03,-0.70,0.02
8340000, 9.44,-0.65,0.28,-0.03,0.00,0.01,-16.00,12.06,18.56,0.72,-0.03,-0.70,0.02
8350004, 9.52,-0.63,0.31,-0.04,0.00,0.01,-16.00,12.06,19.06,0.72,-0.03,-0.70,0.02
8360000, 9.58,-0.62,0.29,-0.04,0.00,0.01,-16.00,12.06,19.06,0.72,-0.03,-0.70,0.02
8370000, 9.57,-0.63,0.30,-0.03,0.00,0.01,-16.00,12.06,19.06,0.72,-0.03,-0.70,0.02
8380000, 9.54,-0.67,0.24,-0.02,0.01,0.01,-16.00,12.06,19.06,0.72,-0.03,-0.70,0.02
8390004, 9.52,-0.68,0.32,-0.02,0.01,0.02,-16.00,12.06,19.06,0.72,-0.03,-0.70,0.02
8400000, 9.54,-0.69,0.30,-0.02,0.01,0.01,-16.37,12.06,19.06,0.72,-0.03,-0.70,0.02
8410001, 9.56,-0.70,0.27,-0.03,0.01,0.01,-16.37,12.06,19.06,0.72,-0.03,-0.70,0.02
8420004, 9.50,-0.70,0.30,-0.03,0.01,0.02,-16.37,12.06,19.06,0.72,-0.04,-0.70,0.02
8430001, 9.53,-0.62,0.33,-0.05,0.01,0.02,-16.37,12.06,19.06,0.72,-0.04,-0.70,0.02
8440000, 9.56,-0.61,0.34,-0.04,0.01,0.02,-16.37,12.06,19.06,0.72,-0.04,-0.70,0.02
8450004, 9.56,-0.65,0.34,-0.03,0.02,0.02,-16.00,12.50,17.50,0.72,-0.04,-0.70,0.02
8460000, 9.58,-0.63,0.36,-0.02,0.02,0.02,-16.00,12.50,17.50,0.72,-0.04,-0.70,0.02
8470004, 9.53,-0.69,0.37,-0.01,0.01,0.02,-16.00,12.50,17.50,0.72,-0.04,-0.70,0.02
8480000, 9.54,-0.67,0.39,-0.01,0.01,0.02,-16.00,12.50,17.50,0.72,-0.04,-0.70,0.02
8490004, 9.55,-0.67,0.35,-0.01,0.01,0.02,-16.00,12.50,17.50,0.72,-0.04,-0.70,0.02
8500000, 9.50,-0.71,0.39,0.00,0.00,0.02,-16.37,12.06,19.06,0.72,-0.04,-0.70,0.02
8514370, 9.47,-0.68,0.36,-0.00,0.01,0.03,-16.37,12.06,19.06,0.72,-0.04,-0.70,0.02
8520944, 9.44,-0.62,0.33,0.00,0.01,0.03,-16.37,12.06,19.06,0.72,-0.04,-0.70,0.02
8530004, 9.44,-0.59,0.33,0.01,0.01,0.03,-16.37,12.06,19.06,0.72,-0.04,-0.70,0.02
8540000, 9.50,-0.55,0.32,0.03,0.01,0.03,-16.37,12.06,19.06,0.72,-0.04,-0.70,0.02
8550004, 9.57,-0.55,0.30,0.04,0.01,0.04,-16.75,12.06,18.56,0.72,-0.04,-0.70,0.02
8560004, 9.57,-0.58,0.31,0.04,0.01,0.04,-16.75,12.06,18.56,0.72,-0.04,-0.70,0.02
8570000, 9.55,-0.56,0.28,0.03,0.02,0.05,-16.75,12.06,18.56,0.72,-0.04,-0.70,0.02
8580004, 9.47,-0.52,0.31,0.03,0.01,0.05,-16.75,12.06,18.56,0.72,-0.04,-0.70,0.02
8590004, 9.50,-0.55,0.33,0.03,0.02,0.06,-16.75,12.06,18.56,0.72,-0.04,-0.70,0.02
8600001, 9.54,-0.62,0.33,0.05,0.02,0.07,-15.56,12.06,18.25,0.72,-0.04,-0.70,0.02
8610004, 9.50,-0.69,0.26,0.05,0.02,0.07,-15.56,12.06,18.25,0.72,-0.04,-0.70,0.02
8620004, 9.52,-0.60,0.27,0.04,0.03,0.08,-15.56,12.06,18.25,0.72,-0.04,-0.70,0.02
8630004, 9.56,-0.62,0.27,0.04,0.03,0.08,-15.56,12.06,18.25,0.72,-0.04,-0.70,0.02
8640001, 9.60,-0.59,0.27,0.04,0.03,0.09,-15.56,12.06,18.25,0.72,-0.04,-0.70,0.02
8650004, 9.53,-0.56,0.27,0.04,0.04,0.10,-16.00,11.69,17.87,0.72,-0.04,-0.70,0.02
8660000, 9.51,-0.58,0.28,0.04,0.04,0.11,-16.00,11.69,17.87,0.72,-0.04,-0.70,0.02
8670000, 9.56,-0.55,0.25,0.03,0.05,0.12,-16.00,11.69,17.87,0.72,-0.04,-0.70,0.02
8680004, 9.59,-0.53,0.26,0.01,0.05,0.13,-16.00,11.69,17.87,0.72,-0.04,-0.70,0.02
8690004, 9.55,-0.63,0.25,0.00,0.06,0.14,-16.00,11.69,17.87,0.72,-0.04,-0.70,0.02
8700000, 9.55,-0.72,0.29,0.00,0.06,0.15,-16.37,12.50,18.25,0.72,-0.04,-0.69,0.02
8710000, 9.57,-0.76,0.19,-0.03,0.07,0.16,-16.37,12.50,18.25,0.72,-0.04,-0.69,0.02
8720001, 9.52,-0.58,0.27,-0.06,0.08,0.17,-16.37,12.50,18.25,0.72,-0.04,-0.69,0.02
8730000, 9.52,-0.63,0.16,-0.08,0.08,0.18,-16.37,12.50,18.25,0.72,-0.04,-0.69,0.02
8740000, 9.54,-0.71,0.22,-0.06,0.10,0.19,-16.37,12.50,18.25,0.72,-0.04,-0.69,0.02
8750004, 9.61,-0.79,0.22,-0.06,0.11,0.20,-15.56,12.88,18.25,0.72,-0.04,-0.69,0.02
8760001, 9.57,-0.98,0.14,-0.06,0.12,0.21,-15.56,12.88,18.25,0.72,-0.04,-0.69,0.02
8770004, 9.52,-1.06,0.09,-0.08,0.14,0.21,-15.56,12.88,18.25,0.72,-0.04,-0.69,0.02
8780004, 9.46,-1.04,0.07,-0.11,0.15,0.22,-15.56,12.88,18.25,0.72,-0.05,-0.69,0.03
8790000, 9.48,-1.01,0.11,-0.13,0.17,0.22,-15.56,12.88,18.25,0.72,-0.05,-0.69,0.03
8800004, 9.48,-1.01,-0.02,-0.13,0.19,0.23,-15.69,13.19,16.69,0.72,-0.05,-0.69,0.03
8810005, 9.48,-1.13,-0.15,-0.11,0.23,0.23,-15.69,13.19,16.69,0.72,-0.05,-0.69,0.03
8820004, 9.51,-1.20,-0.28,-0.09,0.26,0.22,-15.69,13.19,16.69,0.72,-0.05,-0.69,0.03
8830004, 9.56,-1.29,-0.56,-0.10,0.31,0.22,-15.69,13.19,16.69,0.72,-0.05,-0.69,0.03
8840004, 9.50,-1.24,-0.67,-0.14,0.36,0.22,-15.69,13.19,16.69,0.72,-0.05,-0.69,0.03
8850004, 9.49,-1.14,-0.75,-0.17,0.41,0.22,-16.25,13.69,17.50,0.73,-0.05,-0.68,0.03
8860005, 9.48,-1.09,-0.79,-0.17,0.48,0.22,-16.25,13.69,17.50,0.73,-0.06,-0.68,0.03
8870004, 9.49,-1.05,-0.86,-0.14,0.55,0.21,-16.25,13.69,17.50,0.73,-0.06,-0.68,0.03
8880000, 9.45,-1.01,-0.84,-0.09,0.63,0.21,-16.25,13.69,17.50,0.73,-0.06,-0.68,0.03
8890004, 9.47,-0.97,-0.69,-0.05,0.71,0.20,-16.25,13.69,17.50,0.73,-0.06,-0.68,0.03
8900004, 9.54,-0.93,-0.57,-0.03,0.77,0.20,-16.50,14.25,16.56,0.74,-0.06,-0.67,0.03
8910005, 9.83,-0.89,-0.15,0.00,0.83,0.19,-16.50,14.25,16.56,0.74,-0.06,-0.67,0.03
8920004, 10.00,-0.88,0.02,0.04,0.88,0.17,-16.50,14.25,16.56,0.74,-0.06,-0.67,0.03
8930004, 10.18,-0.83,0.36,0.08,0.92,0.16,-16.50,14.25,16.56,0.74,-0.06,-0.66,0.03
8940004, 10.52,-0.98,0.59,0.12,0.95,0.14,-16.50,14.25,16.56,0.75,-0.06,-0.66,0.03
8950004, 10.65,-1.03,0.66,0.17,0.97,0.13,-17.37,14.25,15.25,0.75,-0.06,-0.66,0.03
8960005, 10.81,-1.09,0.64,0.23,1.01,0.11,-17.37,14.25,15.25,0.75,-0.06,-0.65,0.03
8970004, 10.99,-1.27,0.40,0.32,1.06,0.09,-17.37,14.25,15.25,0.76,-0.06,-0.65,0.03
8980000, 10.85,-1.70,0.31,0.40,1.11,0.06,-17.37,14.25,15.25,0.76,-0.06,-0.64,0.03
8990004, 10.70,-1.81,0.25,0.43,1.18,0.05,-17.37,14.25,15.25,0.77,-0.06,-0.64,0.04
9006474, 10.61,-1.93,0.21,0.43,1.24,0.05,-19.00,14.06,12.50,0.77,-0.06,-0.64,0.04
9020939, 10.93,-2.23,0.79,0.32,1.36,0.01,-19.00,14.06,12.50,0.78,-0.05,-0.63,0.04
9026114, 10.93,-2.23,0.79,0.32,1.36,0.01,-19.00,14.06,12.50,0.78,-0.05,-0.62,0.04
9032841, 11.09,-1.82,0.98,0.13,1.41,-0.01,-19.00,14.06,12.50,0.78,-0.05,-0.62,0.04
9040063, 11.20,-1.43,1.37,-0.02,1.44,-0.04,-19.00,14.06,12.50,0.79,-0.05,-0.61,0.04
9050001, 11.20,-1.43,1.37,-0.06,1.46,-0.06,-20.56,14.38,10.19,0.79,-0.05,-0.61,0.04
9060004, 11.16,-1.03,1.85,-0.08,1.46,-0.04,-20.56,14.38,10.19,0.79,-0.06,-0.60,0.04
9070000, 10.62,-0.55,2.60,-0.08,1.43,-0.00,-20.56,14.38,10.19,0.80,-0.06,-0.60,0.04
9080004, 10.29,-0.36,2.88,-0.02,1.42,0.02,-20.56,14.38,10.19,0.80,-0.06,-0.59,0.04
9090004, 10.29,-0.36,2.88,0.08,1.40,0.04,-20.56,14.38,10.19,0.81,-0.06,-0.59,0.04
9100004, 9.69,-0.36,3.35,0.20,1.37,0.04,-22.75,15.25,5.69,0.81,-0.06,-0.58,0.04
9110005, 9.50,-0.53,3.39,0.30,1.33,0.05,-22.75,15.25,5.69,0.81,-0.06,-0.58,0.04
9120001, 9.53,-0.87,3.06,0.28,1.24,0.06,-22.75,15.25,5.69,0.82,-0.05,-0.57,0.04
9130001, 10.07,-1.37,2.82,0.11,1.17,0.09,-22.75,15.25,5.69,0.82,-0.05,-0.57,0.04
9140004, 10.27,0.02,2.27,-0.13,1.08,0.02,-22.75,15.25,5.69,0.82,-0.06,-0.56,0.04
9150000, 9.26,0.92,2.40,-0.13,1.08,0.02,-27.00,15.69,3.50,0.83,-0.06,-0.56,0.04
9160005, 8.58,0.78,2.42,0.23,0.92,-0.13,-27.00,15.69,3.50,0.83,-0.05,-0.55,0.04
9170004, 8.86,0.40,2.45,0.45,0.84,-0.02,-27.00,15.69,3.50,0.83,-0.05,-0.55,0.04
9180004, 9.05,0.58,2.15,0.64,0.74,0.01,-27.00,15.69,3.50,0.83,-0.05,-0.55,0.04
9190001, 9.14,0.74,2.20,0.87,0.64,-0.01,-27.00,15.69,3.50,0.84,-0.05,-0.55,0.04
9200004, 9.10,0.41,2.34,1.08,0.53,-0.03,-28.87,15.00,-0.06,0.84,-0.04,-0.54,0.04
9210005, 8.36,-0.45,2.16,1.15,0.41,-0.01,-28.87,15.00,-0.06,0.84,-0.04,-0.54,0.05
9220004, 7.99,-0.56,2.09,1.06,0.28,0.00,-28.87,15.00,-0.06,0.84,-0.03,-0.54,0.05
9230004, 7.90,-0.50,2.21,0.97,0.17,-0.01,-28.87,15.00,-0.06,0.84,-0.03,-0.54,0.05
9240001, 8.04,-0.43,2.36,0.91,0.04,-0.02,-28.87,15.00,-0.06,0.84,-0.03,-0.54,0.05
9250001, 8.07,-0.52,2.43,0.91,0.04,-0.02,-30.37,14.00,-2.50,0.84,-0.02,-0.54,0.06
9260001, 7.95,-0.63,2.45,0.68,-0.21,-0.04,-30.37,14.00,-2.50,0.84,-0.02,-0.54,0.06
9270004, 7.90,-0.61,2.47,0.53,-0.34,-0.06,-30.37,14.00,-2.50,0.84,-0.02,-0.54,0.06
9280000, 7.90,-0.57,2.50,0.40,-0.46,-0.09,-30.37,14.00,-2.50,0.84,-0.01,-0.54,0.06
9290004, 7.82,-0.55,2.52,0.29,-0.58,-0.12,-30.37,14.00,-2.50,0.83,-0.01,-0.55,0.06
9300000, 7.76,-0.46,2.45,0.29,-0.58,-0.12,-32.69,15.50,-4.69,0.83,-0.01,-0.55,0.06
9310000, 7.77,-0.36,2.47,0.19,-0.69,-0.13,-32.69,15.50,-4.69,0.83,-0.01,-0.56,0.06
9320000, 7.83,-0.26,2.59,0.14,-0.91,-0.16,-32.69,15.50,-4.69,0.83,-0.01,-0.56,0.06
9330000, 7.83,-0.32,2.63,0.19,-1.01,-0.16,-32.69,15.50,-4.69,0.82,-0.01,-0.56,0.06
9340000, 7.82,-0.49,2.69,0.25,-1.11,-0.15,-32.69,15.50,-4.69,0.82,-0.00,-0.57,0.06
9350004, 7.81,-0.77,2.70,0.25,-1.11,-0.15,-32.69,15.19,-1.69,0.82,-0.00,-0.57,0.06
9360001, 7.85,-1.27,2.57,0.28,-1.20,-0.15,-32.69,15.19,-1.69,0.81,-0.00,-0.58,0.06
9370000, 7.87,-1.36,2.54,0.17,-1.39,-0.13,-32.69,15.19,-1.69,0.81,0.00,-0.58,0.06
9380004, 7.86,-1.34,2.55,0.10,-1.47,-0.12,-32.69,15.19,-1.69,0.81,0.00,-0.59,0.06
9390000, 7.85,-1.13,2.63,0.06,-1.54,-0.11,-32.69,15.19,-1.69,0.80,0.00,-0.60,0.06
9400000, 7.95,-1.08,2.59,0.06,-1.54,-0.11,-34.75,15.00,0.00,0.80,0.00,-0.60,0.06
9410005, 8.04,-0.97,2.48,0.08,-1.60,-0.10,-34.75,15.00,0.00,0.79,0.00,-0.61,0.06
9420004, 8.12,-0.85,2.43,0.23,-1.69,-0.06,-34.75,15.00,0.00,0.79,0.01,-0.61,0.06
9430004, 8.15,-0.62,2.39,0.36,-1.73,-0.03,-34.75,15.00,0.00,0.78,0.01,-0.62,0.06
9440000, 8.15,-0.54,2.47,0.54,-1.75,0.02,-34.75,15.00,0.00,0.78,0.01,-0.63,0.06
9450000, 8.12,-0.51,2.58,0.54,-1.75,0.02,-34.00,14.06,2.87,0.77,0.01,-0.63,0.06
9460001, 8.04,-0.68,2.81,0.76,-1.76,0.06,-34.00,14.06,2.87,0.77,0.02,-0.64,0.07
9470001, 8.10,-1.44,2.60,1.16,-1.69,0.12,-34.00,14.06,2.87,0.76,0.02,-0.65,0.07
9480004, 8.37,-1.76,2.40,1.13,-1.67,0.16,-34.00,14.06,2.87,0.75,0.03,-0.65,0.07
9490004, 8.84,-1.86,2.20,1.03,-1.66,0.19,-34.00,14.06,2.87,0.75,0.03,-0.66,0.08
9500004, 9.24,-1.85,2.01,1.03,-1.66,0.19,-34.00,14.06,2.87,0.74,0.03,-0.66,0.08
9514516, 9.79,-1.77,1.70,0.90,-1.65,0.24,-35.19,14.38,5.69,0.74,0.04,-0.67,0.08
9521455, 9.79,-1.77,1.70,0.88,-1.64,0.26,-35.19,14.38,5.69,0.73,0.04,-0.67,0.09
9530000, 9.69,-1.89,1.68,0.84,-1.63,0.29,-35.19,14.38,5.69,0.73,0.04,-0.68,0.09
9540004, 9.48,-2.25,1.86,0.75,-1.62,0.32,-35.19,14.38,5.69,0.72,0.04,-0.68,0.09
9550004, 9.55,-2.37,1.81,0.75,-1.62,0.32,-35.19,14.38,5.69,0.72,0.05,-0.69,0.10
9560000, 9.64,-2.44,1.79,0.57,-1.61,0.36,-35.00,13.75,6.69,0.71,0.05,-0.70,0.10
9570000, 9.64,-2.34,1.85,0.11,-1.60,0.37,-35.00,13.75,6.69,0.70,0.05,-0.70,0.10
9580004, 9.58,-1.72,1.73,0.11,-1.60,0.37,-35.00,13.75,6.69,0.70,0.05,-0.71,0.10
9590004, 9.57,-1.22,1.84,-0.10,-1.59,0.35,-35.00,13.75,6.69,0.69,0.04,-0.71,0.10
9600004, 9.50,-0.83,2.08,-0.25,-1.57,0.33,-35.00,13.75,6.69,0.69,0.04,-0.71,0.10
9610004, 9.41,-0.59,2.21,-0.25,-1.53,0.30,-34.38,14.06,9.50,0.68,0.04,-0.72,0.10
9620004, 9.54,-0.98,1.89,-0.17,-1.49,0.28,-34.38,14.06,9.50,0.68,0.04,-0.73,0.10
9630000, 9.68,-1.29,1.66,-0.09,-1.44,0.26,-34.38,14.06,9.50,0.67,0.04,-0.73,0.10
9640004, 9.74,-1.43,1.62,-0.08,-1.39,0.25,-34.38,14.06,9.50,0.67,0.04,-0.74,0.10
9650000, 9.32,-1.19,1.60,-0.15,-1.33,0.25,-34.38,14.06,9.50,0.67,0.04,-0.74,0.10
9660004, 9.06,-1.03,1.66,-0.22,-1.23,0.25,-34.38,13.38,12.00,0.66,0.04,-0.74,0.10
9670004, 8.86,-0.95,1.62,-0.26,-1.13,0.25,-34.38,13.38,12.00,0.66,0.04,-0.75,0.10
9680004, 8.74,-0.91,1.43,-0.22,-1.01,0.23,-34.38,13.38,12.00,0.65,0.04,-0.75,0.10
9690001, 8.67,-0.63,1.30,-0.17,-0.89,0.20,-34.38,13.38,12.00,0.65,0.04,-0.75,0.10
9700004, 8.59,-0.43,1.44,-0.12,-0.76,0.17,-34.38,13.38,12.00,0.65,0.04,-0.75,0.10
9710001, 8.47,-0.32,1.46,0.09,-0.47,0.10,-34.25,13.75,13.00,0.65,0.04,-0.76,0.10
9720004, 8.29,-0.26,1.37,0.09,-0.47,0.10,-34.25,13.75,13.00,0.64,0.04,-0.76,0.10
9730004, 8.05,-0.17,1.63,0.18,-0.32,0.06,-34.25,13.75,13.00,0.64,0.04,-0.76,0.10
9740000, 7.93,-0.20,1.83,0.30,-0.04,-0.03,-34.25,13.75,13.00,0.64,0.04,-0.76,0.10
9750000, 7.86,-0.33,1.92,0.31,0.07,-0.08,-34.25,13.75,13.00,0.64,0.04,-0.76,0.10
9760005, 8.31,-0.85,1.35,0.25,0.16,-0.13,-34.06,13.56,13.38,0.65,0.04,-0.76,0.10
9770004, 9.06,-0.71,0.79,0.25,0.16,-0.13,-34.06,13.56,13.38,0.65,0.04,-0.75,0.10
9780004, 10.57,-0.22,-1.86,0.02,0.32,-0.26,-34.06,13.56,13.38,0.65,0.04,-0.75,0.10
9790004, 12.95,-0.17,-5.32,0.21,0.26,-0.40,-34.06,13.56,13.38,0.65,0.05,-0.75,0.10
9800000, 18.12,-1.25,-7.52,0.54,0.10,-0.56,-34.06,13.56,13.38,0.65,0.05,-0.75,0.10
9810001, 17.69,-1.41,-4.81,0.61,-0.00,-0.50,-34.69,13.50,13.88,0.65,0.05,-0.75,0.11
9820000, 14.14,-0.34,-1.70,0.49,0.07,-0.25,-34.69,13.50,13.88,0.65,0.06,-0.75,0.11
9830000, 10.42,1.04,0.67,0.45,0.34,-0.14,-34.69,13.50,13.88,0.65,0.06,-0.75,0.11
9840000, 6.69,0.48,0.45,0.51,0.64,-0.19,-34.69,13.50,13.88,0.66,0.06,-0.74,0.11
9850004, 7.00,-1.71,-0.40,0.56,0.81,-0.33,-34.69,13.50,13.88,0.66,0.06,-0.74,0.11
9860004, 8.81,-3.60,-0.37,0.33,0.81,-0.38,-35.25,13.25,12.88,0.66,0.06,-0.74,0.11
9870001, 11.42,-2.22,1.01,-0.11,0.72,-0.40,-35.25,13.25,12.88,0.66,0.06,-0.74,0.11
9880001, 10.43,-0.76,1.24,-0.48,0.64,-0.55,-35.25,13.25,12.88,0.67,0.06,-0.74,0.10
9890001, 9.33,0.06,1.20,-0.58,0.57,-0.60,-35.25,13.25,12.88,0.67,0.06,-0.73,0.10
9900000, 8.82,0.38,0.96,-0.50,0.52,-0.54,-35.25,13.25,12.88,0.67,0.06,-0.73,0.10
9910005, 9.22,0.79,0.86,-0.39,0.49,-0.46,-36.00,13.56,11.50,0.67,0.06,-0.73,0.10
9920001, 9.78,0.70,0.99,-0.29,0.46,-0.42,-36.00,13.56,11.50,0.67,0.06,-0.73,0.09
9930000, 9.93,0.52,1.02,-0.19,0.43,-0.41,-36.00,13.56,11.50,0.68,0.07,-0.73,0.09
9940000, 9.73,0.29,0.99,-0.10,0.40,-0.43,-36.00,13.56,11.50,0.68,0.07,-0.73,0.09
9950000, 9.53,-0.16,0.46,-0.09,0.37,-0.44,-36.00,13.56,11.50,0.68,0.07,-0.73,0.09
9960001, 9.63,-0.23,0.26,-0.13,0.34,-0.40,-36.38,12.37,9.88,0.68,0.07,-0.73,0.09
9970004, 9.81,-0.18,0.14,-0.14,0.30,-0.36,-36.38,12.37,9.88,0.68,0.07,-0.72,0.08
9980000, 10.00,-0.05,0.05,-0.07,0.29,-0.35,-36.38,12.37,9.88,0.68,0.07,-0.72,0.08
9990004, 9.91,0.00,0.12,0.04,0.27,-0.36,-36.38,12.37,9.88,0.68,0.07,-0.72,0.08
10000000, 9.73,0.03,0.27,0.14,0.26,-0.37,-36.38,12.37,9.88,0.68,0.07,-0.72,0.08
10025940, 9.55,-0.54,-0.06,0.01,0.19,-0.34,-37.06,12.19,9.06,0.69,0.08,-0.72,0.08
10031785, 9.55,-0.54,-0.06,0.01,0.19,-0.34,-37.06,12.19,9.06,0.69,0.08,-0.72,0.08
10037916, 9.53,-0.44,-0.11,-0.14,0.16,-0.34,-37.06,12.19,9.06,0.69,0.08,-0.72,0.08
10045627, 9.52,-0.11,-0.25,-0.23,0.14,-0.35,-37.06,12.19,9.06,0.69,0.08,-0.72,0.08
10050075, 9.52,-0.11,-0.25,-0.23,0.14,-0.35,-37.06,12.19,9.06,0.69,0.08,-0.72,0.08
10064735, 9.42,0.62,-0.49,-0.03,0.17,-0.36,-37.69,11.25,9.06,0.69,0.08,-0.72,0.07
10070004, 9.42,0.62,-0.49,-0.03,0.17,-0.36,-37.69,11.25,9.06,0.69,0.08,-0.72,0.07
10080004, 9.42,0.92,-0.43,0.20,0.20,-0.36,-37.69,11.25,9.06,0.69,0.08,-0.71,0.07
10090004, 9.53,0.51,-0.48,0.42,0.24,-0.36,-37.69,11.25,9.06,0.69,0.09,-0.71,0.07
10100004, 9.56,-0.07,-0.47,0.49,0.25,-0.36,-37.69,11.25,9.06,0.69,0.09,-0.71,0.07
10110000, 9.56,-0.45,-0.61,0.39,0.26,-0.36,-37.25,9.69,7.87,0.69,0.09,-0.71,0.07
10120000, 9.52,-0.47,-0.70,0.16,0.26,-0.37,-37.25,9.69,7.87,0.69,0.09,-0.71,0.07
10130000, 9.61,-0.01,-0.55,-0.10,0.27,-0.36,-37.25,9.69,7.87,0.70,0.09,-0.71,0.07
10140000, 9.62,0.78,-0.51,-0.21,0.28,-0.35,-37.25,9.69,7.87,0.70,0.09,-0.71,0.07
10150004, 9.69,1.13,-0.50,-0.15,0.31,-0.35,-37.25,9.69,7.87,0.70,0.09,-0.71,0.07
10160000, 9.66,1.22,-0.40,-0.03,0.34,-0.34,-37.69,9.50,7.87,0.70,0.09,-0.71,0.07
10170000, 9.62,1.78,-0.62,0.14,0.38,-0.32,-37.69,9.50,7.87,0.70,0.10,-0.70,0.07
10180000, 9.47,1.74,-0.59,0.28,0.41,-0.29,-37.69,9.50,7.87,0.70,0.10,-0.70,0.07
10190000, 9.33,1.43,-0.62,0.46,0.46,-0.27,-37.69,9.50,7.87,0.70,0.10,-0.70,0.07
10200004, 9.39,0.27,-0.76,0.53,0.51,-0.26,-37.69,9.50,7.87,0.70,0.10,-0.70,0.07
10210001, 9.48,-0.16,-0.65,0.39,0.53,-0.25,-38.19,9.25,7.56,0.71,0.10,-0.70,0.07
10220004, 9.33,-0.02,-0.44,0.14,0.54,-0.25,-38.19,9.25,7.56,0.71,0.11,-0.69,0.07
10230000, 9.14,0.50,-0.18,-0.05,0.55,-0.26,-38.19,9.25,7.56,0.71,0.11,-0.69,0.07
10240000, 9.24,1.20,0.27,-0.08,0.57,-0.26,-38.19,9.25,7.56,0.71,0.11,-0.69,0.07
10250004, 9.44,1.17,0.42,-0.01,0.58,-0.25,-38.19,9.25,7.56,0.71,0.11,-0.69,0.07
10260000, 9.50,1.00,0.48,0.06,0.60,-0.24,-38.56,8.19,5.56,0.72,0.11,-0.69,0.07
10270001, 9.37,0.82,0.63,0.08,0.59,-0.23,-38.56,8.19,5.56,0.72,0.11,-0.68,0.07
10280000, 9.28,0.74,0.89,0.04,0.58,-0.22,-38.56,8.19,5.56,0.72,0.11,-0.68,0.07
10290004, 9.32,0.79,0.99,-0.02,0.56,-0.22,-38.56,8.19,5.56,0.72,0.11,-0.68,0.07
10300004, 9.27,0.90,1.11,-0.07,0.53,-0.22,-38.56,8.19,5.56,0.72,0.11,-0.68,0.07
10310000, 9.16,1.26,1.29,-0.09,0.51,-0.21,-39.69,9.19,5.56,0.73,0.11,-0.68,0.06
10320001, 9.20,1.23,1.26,-0.07,0.49,-0.21,-39.69,9.19,5.56,0.73,0.11,-0.67,0.06
10330000, 9.33,1.08,1.18,-0.05,0.47,-0.21,-39.69,9.19,5.56,0.73,0.11,-0.67,0.06
10340004, 9.44,0.92,1.05,-0.04,0.46,-0.20,-39.69,9.19,5.56,0.73,0.11,-0.67,0.06
10350004, 9.34,0.80,0.99,-0.06,0.45,-0.19,-39.69,9.19,5.56,0.73,0.11,-0.67,0.06
10360001, 9.28,0.96,1.02,-0.08,0.44,-0.18,-39.69,8.25,4.87,0.73,0.11,-0.67,0.06
10370001, 9.28,1.12,1.06,-0.09,0.44,-0.18,-39.69,8.25,4.87,0.73,0.11,-0.67,0.06
10380004, 9.35,1.17,1.11,-0.08,0.43,-0.17,-39.69,8.25,4.87,0.74,0.11,-0.66,0.06
10390004, 9.44,1.16,1.26,-0.08,0.43,-0.16,-39.69,8.25,4.87,0.74,0.11,-0.66,0.06
10400004, 9.50,1.13,1.40,-0.11,0.41,-0.14,-39.69,8.25,4.87,0.74,0.11,-0.66,0.06
10410000, 9.47,1.11,1.43,-0.14,0.39,-0.14,-39.69,8.06,2.87,0.74,0.11,-0.66,0.06
10420005, 9.33,1.24,1.55,-0.17,0.36,-0.12,-39.69,8.06,2.87,0.74,0.11,-0.66,0.06
10430001, 9.23,1.16,1.46,-0.17,0.35,-0.11,-39.69,8.06,2.87,0.74,0.11,-0.66,0.06
10440004, 9.27,1.10,1.44,-0.16,0.34,-0.11,-39.69,8.06,2.87,0.74,0.11,-0.66,0.06
10450004, 9.39,1.11,1.46,-0.15,0.33,-0.10,-39.69,8.06,2.87,0.75,0.11,-0.65,0.05
10460000, 9.35,1.05,1.57,-0.13,0.32,-0.09,-40.56,7.87,2.56,0.75,0.11,-0.65,0.05
10470005, 9.14,0.78,1.45,-0.10,0.31,-0.09,-40.56,7.87,2.56,0.75,0.11,-0.65,0.05
10480001, 8.98,0.67,1.25,-0.12,0.32,-0.09,-40.56,7.87,2.56,0.75,0.11,-0.65,0.05
10490000, 9.02,0.90,1.13,-0.14,0.32,-0.08,-40.56,7.87,2.56,0.75,0.11,-0.65,0.05
10500000, 9.40,1.64,1.11,-0.11,0.33,-0.07,-40.56,7.87,2.56,0.75,0.11,-0.65,0.05
10510004, 9.50,1.61,1.34,-0.03,0.35,-0.06,-40.19,8.50,2.25,0.75,0.11,-0.65,0.05
10524374, 9.46,1.34,1.50,0.02,0.35,-0.04,-40.19,8.50,2.25,0.75,0.11,-0.64,0.05
10530177, 9.21,0.71,1.51,0.02,0.35,-0.04,-40.19,8.50,2.25,0.75,0.11,-0.64,0.05
10540001, 9.06,0.46,1.42,-0.02,0.35,-0.04,-40.19,8.50,2.25,0.76,0.11,-0.64,0.05
10550001, 9.05,0.51,1.37,-0.10,0.36,-0.03,-40.19,8.50,2.25,0.76,0.11,-0.64,0.05
10560000, 9.14,0.85,1.37,-0.12,0.38,-0.03,-40.19,8.06,1.06,0.76,0.11,-0.64,0.05
10570004, 9.37,0.75,1.15,-0.06,0.41,-0.03,-40.19,8.06,1.06,0.76,0.11,-0.64,0.05
10580001, 9.31,0.51,1.15,-0.08,0.42,-0.04,-40.19,8.06,1.06,0.76,0.11,-0.64,0.05
10590004, 9.15,0.70,1.21,-0.19,0.44,-0.02,-40.19,8.06,1.06,0.76,0.11,-0.64,0.05
10600000, 9.04,1.16,1.38,-0.27,0.45,-0.02,-40.19,8.06,1.06,0.76,0.11,-0.63,0.05
10610000, 9.16,1.68,1.65,-0.27,0.46,-0.01,-39.50,7.25,1.50,0.77,0.11,-0.63,0.05
10620004, 9.28,1.52,1.71,-0.22,0.48,-0.01,-39.50,7.25,1.50,0.77,0.10,-0.63,0.05
10630004, 9.30,1.30,1.73,-0.20,0.48,-0.00,-39.50,7.25,1.50,0.77,0.10,-0.63,0.05
10640004, 9.18,1.23,1.89,-0.19,0.49,0.01,-39.50,7.25,1.50,0.77,0.10,-0.63,0.05
10650004, 9.09,1.21,1.93,-0.18,0.50,0.03,-39.50,7.25,1.50,0.77,0.10,-0.63,0.05
10660000, 9.02,1.20,1.98,-0.16,0.51,0.04,-39.75,7.00,-1.56,0.77,0.10,-0.62,0.05
10670000, 9.04,1.20,1.94,-0.11,0.52,0.05,-39.75,7.00,-1.56,0.78,0.10,-0.62,0.05
10680004, 9.31,1.09,1.90,-0.07,0.54,0.06,-39.75,7.00,-1.56,0.78,0.10,-0.62,0.05
10690004, 9.29,0.97,1.90,-0.06,0.55,0.06,-39.75,7.00,-1.56,0.78,0.10,-0.62,0.05
10700004, 9.21,0.90,1.83,-0.12,0.57,0.07,-39.75,7.00,-1.56,0.78,0.10,-0.62,0.05
10710004, 9.30,0.99,1.61,-0.23,0.59,0.09,-40.75,8.06,-2.00,0.78,0.10,-0.61,0.05
10720000, 10.12,1.67,1.39,-0.31,0.63,0.11,-40.75,8.06,-2.00,0.78,0.10,-0.61,0.05
10730004, 10.34,1.62,1.32,-0.29,0.67,0.12,-40.75,8.06,-2.00,0.79,0.09,-0.61,0.05
10740000, 10.34,1.21,1.54,-0.23,0.70,0.12,-40.75,8.06,-2.00,0.79,0.09,-0.61,0.05
10750004, 10.35,0.69,2.59,-0.17,0.71,0.13,-40.75,8.06,-2.00,0.79,0.09,-0.60,0.05
10760001, 10.34,0.11,2.86,-0.12,0.73,0.12,-40.50,8.06,-2.37,0.79,0.09,-0.60,0.05
10770005, 10.37,-0.41,2.98,-0.18,0.74,0.10,-40.50,8.06,-2.37,0.79,0.09,-0.60,0.05
10780004, 10.67,-0.62,2.81,-0.35,0.73,0.11,-40.50,8.06,-2.37,0.80,0.09,-0.60,0.05
10790000, 11.16,-0.27,2.88,-0.50,0.72,0.10,-40.50,8.06,-2.37,0.80,0.09,-0.59,0.05
10800004, 10.97,0.09,2.77,-0.61,0.70,0.09,-40.50,8.06,-2.37,0.80,0.08,-0.59,0.05
10810001, 10.81,0.41,2.65,-0.64,0.70,0.09,-40.06,8.50,-5.06,0.80,0.08,-0.59,0.05
10820005, 10.66,0.50,2.49,-0.59,0.72,0.09,-40.06,8.50,-5.06,0.81,0.08,-0.59,0.05
10830000, 10.31,1.15,1.80,-0.50,0.75,0.09,-40.06,8.50,-5.06,0.81,0.07,-0.58,0.04
10840001, 10.07,1.20,1.61,-0.33,0.79,0.08,-40.06,8.50,-5.06,0.81,0.07,-0.58,0.04
10850000, 9.81,0.97,1.21,-0.14,0.86,0.08,-40.06,8.50,-5.06,0.81,0.07,-0.58,0.04
10860004, 9.43,0.81,1.01,0.05,0.94,0.08,-41.06,9.06,-4.69,0.82,0.07,-0.57,0.05
10870005, 8.67,0.71,0.81,0.21,1.04,0.06,-41.06,9.06,-4.69,0.82,0.07,-0.57,0.05
10880000, 8.54,0.70,0.48,0.39,1.16,0.02,-41.06,9.06,-4.69,0.82,0.07,-0.56,0.05
10890004, 8.56,0.72,0.64,0.56,1.29,-0.02,-41.06,9.06,-4.69,0.82,0.07,-0.56,0.05
10900004, 8.93,0.48,0.88,0.71,1.41,-0.06,-41.06,9.06,-4.69,0.83,0.08,-0.55,0.05
10910000, 9.12,0.20,1.04,0.79,1.53,-0.09,-41.06,9.06,-7.25,0.83,0.08,-0.55,0.05
10920001, 9.32,0.12,1.49,0.75,1.64,-0.14,-41.06,9.06,-7.25,0.84,0.08,-0.54,0.06
10930001, 9.40,0.33,2.26,0.66,1.73,-0.20,-41.06,9.06,-7.25,0.84,0.09,-0.53,0.06
10940000, 9.55,0.87,2.49,0.68,1.84,-0.27,-41.06,9.06,-7.25,0.84,0.09,-0.52,0.06
10950004, 9.17,0.83,2.19,0.62,1.90,-0.35,-41.06,9.06,-7.25,0.85,0.09,-0.52,0.06
10960004, 8.89,0.67,2.83,0.53,1.87,-0.42,-39.69,9.25,-11.19,0.85,0.09,-0.51,0.06
10970005, 9.30,0.44,3.49,0.50,1.84,-0.49,-39.69,9.25,-11.19,0.86,0.10,-0.50,0.06
10980004, 9.99,-1.11,2.86,0.31,1.78,-0.55,-39.69,9.25,-11.19,0.86,0.10,-0.49,0.06
10990004, 9.98,-1.07,3.92,0.08,1.71,-0.56,-39.69,9.25,-11.19,0.87,0.10,-0.49,0.06
11000004, 9.50,-0.39,4.63,-0.05,1.69,-0.59,-39.69,9.25,-11.19,0.87,0.10,-0.48,0.06
11026034, 8.06,1.24,4.88,-0.46,1.70,-0.76,-39.69,8.00,-12.75,0.88,0.10,-0.46,0.05
11032047, 8.85,1.50,4.81,-0.48,1.73,-0.87,-39.69,8.00,-12.75,0.88,0.10,-0.46,0.05
11039766, 9.54,1.58,4.83,-0.46,1.75,-0.98,-39.69,8.00,-12.75,0.89,0.10,-0.45,0.04
11045195, 9.54,1.58,4.83,-0.46,1.75,-0.98,-39.69,8.00,-12.75,0.89,0.10,-0.44,0.04
11051930, 9.21,1.39,4.86,-0.41,1.76,-0.98,-39.69,8.00,-12.75,0.89,0.10,-0.44,0.04
11066644, 8.58,1.73,4.94,-0.37,1.77,-0.86,-38.25,7.06,-18.56,0.90,0.10,-0.42,0.03
11071332, 8.46,2.16,5.17,-0.29,1.78,-0.72,-38.25,7.06,-18.56,0.90,0.10,-0.42,0.03
11080000, 8.86,2.13,5.26,-0.15,1.76,-0.67,-38.25,7.06,-18.56,0.90,0.10,-0.42,0.03
11090004, 9.29,1.93,5.65,-0.06,1.72,-0.63,-38.25,7.06,-18.56,0.91,0.10,-0.41,0.03
11100004, 9.17,1.80,5.83,-0.05,1.66,-0.54,-38.25,7.06,-18.56,0.91,0.10,-0.40,0.03
11110000, 8.90,1.72,5.67,-0.06,1.58,-0.44,-36.19,5.56,-19.56,0.91,0.10,-0.39,0.02
11120004, 7.90,1.59,5.23,-0.08,1.50,-0.35,-36.19,5.56,-19.56,0.92,0.10,-0.39,0.02
11130001, 7.20,1.60,4.77,-0.11,1.44,-0.31,-36.19,5.56,-19.56,0.92,0.10,-0.38,0.02
11140004, 6.61,1.68,5.56,-0.14,1.44,-0.27,-36.19,5.56,-19.56,0.92,0.10,-0.37,0.02
11150000, 6.51,1.88,6.13,-0.15,1.42,-0.24,-36.19,5.56,-19.56,0.92,0.10,-0.37,0.02
11160004, 6.87,2.79,6.49,-0.18,1.38,-0.18,-34.38,4.69,-23.69,0.93,0.10,-0.36,0.02
11170004, 6.85,2.80,6.59,-0.11,1.33,-0.09,-34.38,4.69,-23.69,0.93,0.10,-0.35,0.02
11180004, 6.81,2.37,5.81,0.11,1.26,-0.03,-34.38,4.69,-23.69,0.93,0.10,-0.35,0.02
11190004, 6.80,1.72,3.57,0.24,1.08,0.02,-34.38,4.69,-23.69,0.93,0.10,-0.34,0.02
11200000, 7.58,-0.01,3.89,0.28,0.82,0.12,-34.38,4.69,-23.69,0.93,0.10,-0.34,0.02
11210004, 7.49,0.45,4.31,0.36,0.63,0.23,-33.06,3.75,-26.25,0.94,0.10,-0.34,0.03
11220000, 6.44,1.79,4.31,0.23,0.43,0.25,-33.06,3.75,-26.25,0.94,0.10,-0.34,0.03
11230004, 5.66,1.79,4.71,0.24,0.24,0.29,-33.06,3.75,-26.25,0.94,0.10,-0.33,0.03
11240000, 6.35,1.48,4.59,0.36,0.07,0.35,-33.06,3.75,-26.25,0.94,0.11,-0.33,0.03
11250000, 6.93,1.10,4.34,0.41,-0.10,0.39,-33.06,3.75,-26.25,0.94,0.11,-0.33,0.03
11260004, 6.93,1.10,4.34,0.39,-0.29,0.47,-31.37,4.06,-28.75,0.93,0.11,-0.34,0.04
11270000, 6.08,0.91,4.79,0.33,-0.49,0.53,-31.37,4.06,-28.75,0.93,0.11,-0.34,0.04
11280004, 5.72,0.99,5.04,0.23,-0.69,0.56,-31.37,4.06,-28.75,0.93,0.11,-0.34,0.04
11290000, 5.73,0.97,5.14,0.13,-0.87,0.59,-31.37,4.06,-28.75,0.93,0.11,-0.35,0.04
11300004, 5.94,1.04,5.09,0.01,-1.06,0.63,-31.37,4.06,-28.75,0.93,0.11,-0.35,0.05
11310004, 5.94,1.04,5.09,-0.10,-1.24,0.67,-34.00,5.25,-27.25,0.93,0.11,-0.36,0.05
11320005, 6.55,1.87,5.10,-0.12,-1.41,0.71,-34.00,5.25,-27.25,0.92,0.11,-0.36,0.05
11330004, 6.61,2.00,5.17,-0.03,-1.57,0.74,-34.00,5.25,-27.25,0.92,0.10,-0.37,0.05
11340000, 6.57,1.56,5.37,0.12,-1.70,0.76,-34.00,5.25,-27.25,0.92,0.10,-0.38,0.06
11350004, 6.59,1.20,5.34,0.24,-1.82,0.78,-34.00,5.25,-27.25,0.91,0.10,-0.39,0.06
11360000, 6.59,1.20,5.34,0.27,-1.94,0.81,-34.88,6.25,-25.06,0.91,0.10,-0.40,0.06
11370000, 6.68,0.97,5.35,0.21,-2.06,0.83,-34.88,6.25,-25.06,0.91,0.10,-0.41,0.07
11380000, 6.92,0.89,5.39,0.13,-2.18,0.85,-34.88,6.25,-25.06,0.90,0.10,-0.42,0.07
11390004, 7.08,0.94,5.43,0.03,-2.29,0.86,-34.88,6.25,-25.06,0.90,0.10,-0.43,0.07
11400004, 7.24,1.06,5.49,-0.05,-2.38,0.87,-34.88,6.25,-25.06,0.89,0.10,-0.44,0.07
11410000, 7.24,1.06,5.49,-0.11,-2.48,0.88,-36.69,6.19,-21.69,0.89,0.10,-0.45,0.08
11420005, 7.55,1.50,5.82,-0.13,-2.55,0.89,-36.69,6.19,-21.69,0.88,0.10,-0.46,0.08
11430000, 7.55,1.50,5.82,-0.09,-2.61,0.88,-36.69,6.19,-21.69,0.87,0.10,-0.47,0.08
11440004, 7.57,1.58,5.84,-0.02,-2.65,0.87,-36.69,6.19,-21.69,0.87,0.10,-0.48,0.08
11450000, 7.60,1.60,5.81,0.06,-2.66,0.84,-36.69,6.19,-21.69,0.86,0.10,-0.49,0.09
11460004, 7.82,1.35,5.77,0.13,-2.68,0.81,-39.06,9.25,-16.06,0.85,0.10,-0.51,0.09
11470005, 7.90,1.17,5.77,0.15,-2.70,0.77,-39.06,9.25,-16.06,0.85,0.10,-0.52,0.09
11480000, 7.80,0.92,5.78,0.10,-2.71,0.73,-39.06,9.25,-16.06,0.84,0.09,-0.53,0.09
11490000, 7.69,0.70,5.73,-0.01,-2.71,0.69,-39.06,9.25,-16.06,0.83,0.09,-0.54,0.09
11500001, 7.48,0.45,5.31,-0.14,-2.70,0.65,-39.06,9.25,-16.06,0.82,0.09,-0.55,0.09
11515167, 7.81,0.35,5.14,-0.27,-2.70,0.59,-41.06,10.06,-11.00,0.82,0.09,-0.56,0.09
11520004, 7.81,0.35,5.14,-0.37,-2.68,0.54,-41.06,10.06,-11.00,0.81,0.09,-0.57,0.09
11530000, 7.74,0.83,5.26,-0.32,-2.65,0.50,-41.06,10.06,-11.00,0.80,0.09,-0.58,0.09
11540000, 7.25,2.14,5.56,-0.09,-2.58,0.46,-41.06,10.06,-11.00,0.79,0.09,-0.59,0.10
11550000, 7.33,2.32,5.50,0.23,-2.51,0.44,-41.06,10.06,-11.00,0.79,0.09,-0.60,0.10
11560004, 7.77,2.02,5.29,0.55,-2.45,0.45,-42.38,11.19,-5.56,0.78,0.09,-0.61,0.10
11570001, 8.61,1.05,4.93,0.80,-2.43,0.51,-42.38,11.19,-5.56,0.77,0.09,-0.62,0.10
11580001, 8.46,0.71,4.94,0.95,-2.41,0.56,-42.38,11.19,-5.56,0.76,0.10,-0.63,0.11
11590004, 8.00,0.52,4.95,1.00,-2.38,0.59,-42.38,11.19,-5.56,0.76,0.10,-0.64,0.11
11600000, 7.67,0.31,5.03,0.94,-2.35,0.63,-42.38,11.19,-5.56,0.75,0.10,-0.65,0.11
11610001, 7.82,-0.17,4.47,0.94,-2.35,0.63,-42.56,12.00,-2.19,0.74,0.10,-0.66,0.12
11620005, 8.40,-0.10,4.06,0.57,-2.30,0.69,-42.56,12.00,-2.19,0.73,0.11,-0.66,0.12
11630004, 9.24,0.05,3.76,0.39,-2.28,0.69,-42.56,12.00,-2.19,0.72,0.11,-0.67,0.12
11640000, 10.01,0.24,3.34,0.28,-2.27,0.71,-42.56,12.00,-2.19,0.71,0.11,-0.68,0.13
11650004, 10.27,0.63,3.02,0.24,-2.23,0.71,-42.56,12.00,-2.19,0.71,0.11,-0.69,0.13
11660000, 10.00,0.66,3.08,0.24,-2.23,0.71,-41.37,12.69,1.69,0.70,0.11,-0.70,0.13
11670001, 9.76,0.64,2.91,0.26,-2.17,0.69,-41.37,12.69,1.69,0.69,0.11,-0.70,0.13
11680004, 9.99,0.47,2.13,0.23,-2.08,0.59,-41.37,12.69,1.69,0.68,0.11,-0.71,0.13
11690004, 10.22,0.30,2.06,0.20,-2.02,0.54,-41.37,12.69,1.69,0.68,0.11,-0.72,0.13
11700000, 10.26,0.16,2.15,0.17,-1.93,0.49,-41.37,12.69,1.69,0.67,0.11,-0.72,0.14
11710004, 10.13,-0.07,1.90,0.17,-1.93,0.49,-41.25,14.38,6.56,0.66,0.11,-0.73,0.14
11720005, 10.00,-0.67,1.23,0.05,-1.84,0.45,-41.25,14.38,6.56,0.66,0.11,-0.73,0.14
11730001, 10.14,-0.90,0.90,-0.31,-1.68,0.35,-41.25,14.38,6.56,0.65,0.10,-0.74,0.14
11740004, 10.24,-0.97,0.59,-0.48,-1.60,0.28,-41.25,14.38,6.56,0.64,0.10,-0.75,0.13
11750001, 10.07,-0.83,0.41,-0.64,-1.50,0.22,-41.25,14.38,6.56,0.64,0.10,-0.75,0.13
11760000, 9.30,-0.40,0.60,-0.64,-1.50,0.22,-39.75,15.69,10.00,0.63,0.10,-0.76,0.13
11770000, 8.89,-0.27,0.70,-0.76,-1.39,0.15,-39.75,15.69,10.00,0.63,0.10,-0.76,0.13
11780004, 8.66,-0.25,0.62,-0.78,-1.11,0.02,-39.75,15.69,10.00,0.63,0.10,-0.76,0.12
11790004, 8.56,-0.67,0.59,-0.79,-0.96,-0.03,-39.75,15.69,10.00,0.62,0.09,-0.77,0.12
11800004, 8.52,-0.94,0.73,-0.83,-0.82,-0.07,-39.75,15.69,10.00,0.62,0.09,-0.77,0.11
11810004, 8.27,-1.01,0.81,-0.83,-0.82,-0.07,-39.75,15.69,10.00,0.62,0.09,-0.77,0.11
11820005, 7.89,-0.90,0.92,-0.88,-0.67,-0.10,-39.06,15.69,14.69,0.62,0.09,-0.77,0.11
11830000, 7.40,-0.44,1.40,-0.85,-0.34,-0.12,-39.06,15.69,14.69,0.62,0.09,-0.78,0.10
11840004, 7.24,-0.32,1.62,-0.71,-0.16,-0.12,-39.06,15.69,14.69,0.62,0.08,-0.78,0.10
11850000, 7.09,-0.26,2.00,-0.50,0.01,-0.10,-39.06,15.69,14.69,0.62,0.08,-0.78,0.10
11860001, 6.99,-0.33,2.12,-0.50,0.01,-0.10,-39.06,15.69,14.69,0.62,0.08,-0.78,0.10
11870001, 6.87,-0.54,2.73,-0.27,0.17,-0.09,-38.56,14.87,15.25,0.62,0.08,-0.78,0.10
11880000, 6.78,-0.69,2.68,0.13,0.48,-0.06,-38.56,14.87,15.25,0.62,0.08,-0.77,0.10
11890001, 7.06,-0.91,2.09,0.19,0.59,-0.09,-38.56,14.87,15.25,0.62,0.08,-0.77,0.10
11900000, 10.74,-0.13,-5.10,0.19,0.59,-0.09,-38.56,14.87,15.25,0.62,0.08,-0.77,0.10
11910004, 14.69,0.43,-10.59,-0.07,0.51,-0.27,-38.56,14.87,15.25,0.63,0.09,-0.77,0.09
11920005, 19.57,0.77,-11.74,-0.45,0.17,-0.62,-38.06,14.50,16.06,0.63,0.09,-0.77,0.09
11930000, 22.73,2.35,-7.77,-0.92,-0.20,-0.92,-38.06,14.50,16.06,0.62,0.09,-0.77,0.08
11940001, 13.28,6.30,0.59,-1.10,-0.32,-0.91,-38.06,14.50,16.06,0.63,0.09,-0.77,0.08
11950004, 8.26,6.97,1.10,-0.64,-0.04,-0.43,-38.06,14.50,16.06,0.63,0.09,-0.77,0.08
11960000, 5.25,6.82,-0.76,0.13,0.44,0.03,-38.06,14.50,16.06,0.63,0.09,-0.77,0.08
11970001, 4.24,4.82,-1.63,0.90,0.81,-0.02,-39.25,13.38,14.50,0.63,0.09,-0.76,0.09
11980004, 9.97,-3.19,-0.02,1.75,1.01,-0.36,-39.25,13.38,14.50,0.64,0.10,-0.76,0.09
11990000, 12.37,-5.01,0.74,2.17,1.04,-0.40,-39.25,13.38,14.50,0.64,0.11,-0.76,0.10
12007902, 11.07,-3.85,0.66,1.04,0.80,0.07,-39.25,13.38,14.50,0.64,0.11,-0.75,0.11
12021875, 8.82,-1.69,0.31,-0.08,0.68,-0.46,-40.25,13.00,12.25,0.65,0.11,-0.75,0.10
12026839, 9.27,-0.71,0.44,-0.08,0.68,-0.46,-40.25,13.00,12.25,0.65,0.11,-0.75,0.10
12034518, 9.88,-0.33,0.73,-0.38,0.62,-0.38,-40.25,13.00,12.25,0.65,0.11,-0.75,0.10
12040393, 9.88,-0.33,0.73,-0.38,0.62,-0.38,-40.25,13.00,12.25,0.65,0.11,-0.74,0.10
12050000, 9.65,0.32,0.40,-0.59,0.56,-0.37,-40.25,13.00,12.25,0.65,0.11,-0.74,0.10
12060000, 9.24,0.85,0.04,-0.77,0.50,-0.44,-40.25,13.00,12.25,0.66,0.11,-0.74,0.09
12070001, 9.06,1.44,-0.31,-0.84,0.43,-0.46,-40.50,12.00,10.69,0.66,0.11,-0.74,0.09
12080000, 9.14,1.98,-0.43,-0.72,0.38,-0.40,-40.50,12.00,10.69,0.66,0.11,-0.74,0.09
12090004, 9.43,2.28,-0.33,-0.42,0.36,-0.33,-40.50,12.00,10.69,0.66,0.11,-0.74,0.08
12100001, 9.57,1.85,-0.40,-0.03,0.37,-0.30,-40.50,12.00,10.69,0.66,0.11,-0.74,0.09
12110004, 9.66,0.99,-0.54,0.33,0.38,-0.31,-40.50,12.00,10.69,0.66,0.11,-0.74,0.09
12120001, 9.70,0.15,-0.73,0.51,0.39,-0.30,-41.19,11.50,9.88,0.66,0.11,-0.73,0.09
12130000, 9.54,-0.56,-1.07,0.43,0.37,-0.27,-41.19,11.50,9.88,0.67,0.12,-0.73,0.09
12140004, 9.35,-0.31,-1.07,0.18,0.35,-0.25,-41.19,11.50,9.88,0.67,0.12,-0.73,0.09
12150004, 9.24,0.23,-0.98,-0.09,0.32,-0.27,-41.19,11.50,9.88,0.67,0.12,-0.73,0.08
12160004, 9.38,1.48,-0.78,-0.26,0.31,-0.28,-41.19,11.50,9.88,0.67,0.12,-0.73,0.08
12170001, 9.57,1.80,-0.70,-0.23,0.31,-0.27,-40.75,11.06,9.56,0.67,0.12,-0.73,0.08
12180004, 9.61,1.80,-0.74,-0.04,0.33,-0.25,-40.75,11.06,9.56,0.67,0.12,-0.73,0.08
12190004, 9.57,1.59,-0.93,0.21,0.35,-0.23,-40.75,11.06,9.56,0.67,0.12,-0.72,0.08
12200004, 9.41,1.06,-1.10,0.42,0.38,-0.22,-40.75,11.06,9.56,0.67,0.12,-0.72,0.08
12210000, 9.49,0.71,-0.95,0.52,0.39,-0.21,-40.75,11.06,9.56,0.67,0.12,-0.72,0.08
12220005, 9.78,0.14,-0.79,0.56,0.41,-0.21,-42.69,10.38,8.25,0.68,0.13,-0.72,0.09
12230004, 9.98,-0.62,-0.76,0.52,0.45,-0.20,-42.69,10.38,8.25,0.68,0.13,-0.72,0.09
12240000, 9.89,-1.45,-0.89,0.32,0.46,-0.20,-42.69,10.38,8.25,0.68,0.13,-0.72,0.09
12250004, 9.60,-1.08,-0.89,-0.01,0.47,-0.19,-42.69,10.38,8.25,0.68,0.13,-0.71,0.09
12260004, 9.33,-0.24,-0.82,-0.35,0.47,-0.21,-42.69,10.38,8.25,0.68,0.13,-0.71,0.09
12270004, 9.23,1.48,-0.52,-0.57,0.47,-0.23,-42.19,10.06,6.37,0.68,0.13,-0.71,0.08
12280000, 9.39,1.93,-0.41,-0.58,0.50,-0.23,-42.19,10.06,6.37,0.69,0.13,-0.71,0.08
12290004, 9.49,2.01,-0.33,-0.43,0.52,-0.21,-42.19,10.06,6.37,0.69,0.13,-0.71,0.08
12300004, 9.51,1.74,-0.28,-0.22,0.54,-0.20,-42.19,10.06,6.37,0.69,0.13,-0.71,0.08
12310004, 9.37,0.86,-0.05,-0.07,0.56,-0.18,-42.19,10.06,6.37,0.69,0.13,-0.71,0.08
12320005, 9.28,0.58,0.03,-0.04,0.55,-0.17,-42.69,9.88,7.06,0.69,0.13,-0.70,0.08
12330001, 9.31,0.46,0.14,-0.11,0.54,-0.16,-42.69,9.88,7.06,0.70,0.13,-0.70,0.08
12340004, 9.36,0.45,0.26,-0.23,0.51,-0.16,-42.69,9.88,7.06,0.70,0.13,-0.70,0.07
12350004, 9.39,0.71,0.48,-0.34,0.48,-0.16,-42.69,9.88,7.06,0.70,0.12,-0.70,0.07
12360000, 9.40,0.87,0.56,-0.40,0.46,-0.16,-42.69,9.88,7.06,0.70,0.12,-0.70,0.07
12370001, 9.47,1.01,0.66,-0.39,0.45,-0.16,-43.00,10.25,5.06,0.70,0.12,-0.70,0.07
12380004, 9.55,1.11,0.75,-0.31,0.43,-0.16,-43.00,10.25,5.06,0.71,0.12,-0.69,0.07
12390000, 9.53,1.05,0.64,-0.22,0.42,-0.15,-43.00,10.25,5.06,0.71,0.12,-0.69,0.07
12400000, 9.50,1.06,0.61,-0.16,0.41,-0.14,-43.00,10.25,5.06,0.71,0.12,-0.69,0.07
12410004, 9.50,1.09,0.59,-0.15,0.39,-0.13,-43.00,10.25,5.06,0.71,0.12,-0.69,0.07
12420005, 9.42,0.90,0.39,-0.14,0.38,-0.12,-44.06,9.69,5.56,0.71,0.12,-0.69,0.07
12430000, 9.31,0.92,0.31,-0.13,0.37,-0.12,-44.06,9.69,5.56,0.71,0.12,-0.69,0.07
12440000, 9.24,1.19,0.29,-0.17,0.36,-0.11,-44.06,9.69,5.56,0.72,0.12,-0.68,0.06
12450000, 9.23,1.58,0.33,-0.18,0.36,-0.10,-44.06,9.69,5.56,0.72,0.12,-0.68,0.06
12460001, 9.34,1.92,0.32,-0.12,0.36,-0.10,-44.06,9.69,5.56,0.72,0.12,-0.68,0.06
12470005, 9.31,1.71,0.31,0.00,0.37,-0.09,-43.00,9.50,4.00,0.72,0.12,-0.68,0.06
12480004, 9.28,1.30,0.23,0.14,0.39,-0.09,-43.00,9.50,4.00,0.72,0.12,-0.68,0.07
12490000, 9.48,0.36,0.15,0.24,0.42,-0.09,-43.00,9.50,4.00,0.72,0.12,-0.68,0.07
12500004, 9.49,0.22,0.25,0.22,0.45,-0.09,-43.00,9.50,4.00,0.72,0.12,-0.68,0.07
12517313, 9.40,0.60,0.44,-0.03,0.47,-0.07,-43.38,9.06,3.19,0.72,0.12,-0.67,0.07
12521798, 9.40,0.60,0.44,-0.03,0.47,-0.07,-43.38,9.06,3.19,0.73,0.12,-0.67,0.07
12530004, 9.38,0.81,0.60,-0.13,0.49,-0.08,-43.38,9.06,3.19,0.73,0.12,-0.67,0.07
12540001, 9.37,0.86,0.67,-0.17,0.50,-0.09,-43.38,9.06,3.19,0.73,0.12,-0.67,0.06
12550004, 9.28,1.03,0.79,-0.23,0.50,-0.08,-43.38,9.06,3.19,0.73,0.12,-0.67,0.06
12560000, 9.23,1.17,0.86,-0.26,0.52,-0.07,-43.38,9.06,3.19,0.73,0.12,-0.67,0.06
12570004, 9.28,1.07,0.89,-0.28,0.52,-0.07,-44.50,8.25,2.06,0.73,0.12,-0.67,0.06
12580000, 9.28,1.02,0.88,-0.27,0.53,-0.07,-44.50,8.25,2.06,0.74,0.12,-0.66,0.06
12590004, 9.26,1.10,0.91,-0.28,0.54,-0.06,-44.50,8.25,2.06,0.74,0.12,-0.66,0.06
12600004, 9.26,1.10,1.02,-0.29,0.55,-0.05,-44.50,8.25,2.06,0.74,0.12,-0.66,0.06
12610004, 9.24,0.88,1.06,-0.27,0.57,-0.05,-44.50,8.25,2.06,0.74,0.12,-0.66,0.06
12620000, 9.27,0.63,1.05,-0.25,0.59,-0.05,-43.38,8.25,0.37,0.74,0.12,-0.66,0.06
12630004, 9.24,0.61,1.10,-0.29,0.59,-0.04,-43.38,8.25,0.37,0.75,0.11,-0.65,0.06
12640001, 9.23,1.04,1.31,-0.39,0.60,-0.04,-43.38,8.25,0.37,0.75,0.11,-0.65,0.06
12650000, 9.31,1.14,1.49,-0.45,0.60,-0.04,-43.38,8.25,0.37,0.75,0.11,-0.65,0.05
12660004, 9.34,1.14,1.61,-0.45,0.60,-0.04,-43.38,8.25,0.37,0.75,0.11,-0.65,0.05
12670005, 9.37,1.14,1.69,-0.42,0.60,-0.02,-43.38,8.00,-0.75,0.75,0.11,-0.65,0.05
12680000, 9.24,1.01,1.76,-0.42,0.60,-0.02,-43.38,8.00,-0.75,0.76,0.11,-0.64,0.05
12690001, 9.12,0.97,1.77,-0.40,0.60,-0.01,-43.38,8.00,-0.75,0.76,0.10,-0.64,0.05
12700000, 9.07,1.01,1.75,-0.43,0.60,0.01,-43.38,8.00,-0.75,0.76,0.10,-0.64,0.05
12710004, 9.19,1.27,1.75,-0.43,0.60,0.01,-43.38,8.00,-0.75,0.76,0.10,-0.64,0.05
12720005, 9.26,1.42,1.76,-0.41,0.61,0.03,-44.75,8.56,-2.25,0.76,0.10,-0.63,0.05
12730000, 9.26,1.50,1.78,-0.36,0.62,0.04,-44.75,8.56,-2.25,0.77,0.10,-0.63,0.05
12740004, 9.18,1.45,1.77,-0.30,0.63,0.05,-44.75,8.56,-2.25,0.77,0.10,-0.63,0.05
12750004, 9.02,1.16,1.65,-0.26,0.65,0.07,-44.75,8.56,-2.25,0.77,0.09,-0.63,0.05
12760004, 9.04,1.24,1.57,-0.26,0.67,0.08,-44.75,8.56,-2.25,0.77,0.09,-0.63,0.05
12770001, 9.18,1.55,1.52,-0.28,0.70,0.10,-44.19,8.06,-2.19,0.78,0.09,-0.62,0.05
12780004, 9.49,2.03,1.53,-0.26,0.72,0.13,-44.19,8.06,-2.19,0.78,0.09,-0.62,0.05
12790004, 10.28,2.23,1.79,-0.13,0.75,0.15,-44.19,8.06,-2.19,0.78,0.09,-0.62,0.05
12800004, 10.26,1.41,1.94,0.01,0.76,0.16,-44.19,8.06,-2.19,0.78,0.09,-0.62,0.05
12810000, 9.84,0.32,2.06,0.01,0.77,0.16,-44.19,8.06,-2.19,0.78,0.09,-0.61,0.05
12820000, 9.49,-0.59,2.45,-0.12,0.78,0.15,-44.56,9.00,-4.19,0.79,0.09,-0.61,0.05
12830004, 9.74,-0.61,2.76,-0.28,0.79,0.11,-44.56,9.00,-4.19,0.79,0.09,-0.61,0.05
12840004, 10.00,-0.49,2.66,-0.40,0.81,0.10,-44.56,9.00,-4.19,0.79,0.08,-0.60,0.05
12850000, 10.43,-0.23,2.71,-0.47,0.82,0.11,-44.56,9.00,-4.19,0.79,0.08,-0.60,0.05
12860004, 11.12,0.12,2.85,-0.47,0.83,0.11,-44.56,9.00,-4.19,0.80,0.08,-0.60,0.05
12870001, 11.21,-0.06,2.60,-0.45,0.86,0.10,-44.88,8.88,-5.25,0.80,0.08,-0.59,0.05
12880001, 11.25,-0.26,2.45,-0.47,0.87,0.10,-44.88,8.88,-5.25,0.80,0.08,-0.59,0.05
12890004, 11.23,-0.22,2.25,-0.50,0.87,0.09,-44.88,8.88,-5.25,0.80,0.07,-0.59,0.05
12900004, 10.50,0.67,1.96,-0.49,0.91,0.06,-44.88,8.88,-5.25,0.81,0.07,-0.58,0.05
12910000, 9.93,0.93,1.73,-0.34,0.98,0.03,-44.88,8.88,-5.25,0.81,0.07,-0.58,0.04
12920005, 9.67,1.00,1.39,-0.13,1.06,0.01,-43.50,9.75,-6.87,0.81,0.07,-0.58,0.04
12930004, 9.43,1.33,0.61,0.09,1.16,-0.02,-43.50,9.75,-6.87,0.82,0.07,-0.57,0.05
12940000, 9.29,1.63,0.44,0.30,1.27,-0.05,-43.50,9.75,-6.87,0.82,0.07,-0.57,0.05
12950000, 9.22,2.08,1.64,0.51,1.32,-0.05,-43.50,9.75,-6.87,0.82,0.07,-0.56,0.05
12960000, 9.39,2.29,2.67,0.93,1.33,-0.02,-43.50,9.75,-6.87,0.83,0.08,-0.56,0.05
12970001, 9.95,0.74,3.70,1.20,1.32,-0.03,-43.06,9.50,-8.88,0.83,0.08,-0.55,0.05
12980004, 9.66,-0.26,4.17,1.15,1.30,-0.07,-43.06,9.50,-8.88,0.83,0.08,-0.54,0.06
12990000, 9.17,-0.71,4.37,0.87,1.25,-0.10,-43.06,9.50,-8.88,0.84,0.09,-0.54,0.06
13000004, 8.83,-0.73,4.52,0.50,1.19,-0.12,-43.06,9.50,-8.88,0.84,0.09,-0.53,0.06
13029280, 8.62,1.42,3.70,-0.29,0.91,-0.21,-42.00,9.88,-13.69,0.85,0.09,-0.52,0.06
13036079, 8.62,1.42,3.70,-0.10,0.79,-0.13,-42.00,9.88,-13.69,0.85,0.09,-0.52,0.06
13041298, 7.87,0.94,3.45,-0.10,0.79,-0.13,-42.00,9.88,-13.69,0.85,0.09,-0.52,0.06
13049059, 7.78,0.31,3.16,0.01,0.68,-0.03,-42.00,9.88,-13.69,0.85,0.09,-0.52,0.06
13055011, 7.78,0.31,3.16,0.02,0.55,0.01,-42.00,9.88,-13.69,0.85,0.09,-0.51,0.06
13061025, 8.05,0.32,2.53,0.02,0.55,0.01,-42.00,9.88,-13.69,0.85,0.09,-0.51,0.06
13075715, 8.52,0.34,2.19,0.06,0.42,0.01,-41.37,8.06,-16.00,0.85,0.09,-0.51,0.06
13080399, 8.81,-0.35,1.75,0.08,0.31,0.04,-41.37,8.06,-16.00,0.85,0.09,-0.51,0.06
13090000, 8.65,-0.48,1.47,0.02,0.23,0.10,-41.37,8.06,-16.00,0.85,0.09,-0.51,0.06
13100004, 8.64,-0.43,1.28,-0.05,0.17,0.13,-41.37,8.06,-16.00,0.85,0.09,-0.51,0.06
13110001, 8.92,-0.27,1.19,-0.10,0.14,0.14,-41.37,8.06,-16.00,0.85,0.09,-0.51,0.06
13120004, 9.41,-0.03,1.14,-0.11,0.13,0.14,-40.38,8.19,-17.19,0.85,0.09,-0.51,0.06
13130004, 9.38,0.03,1.43,-0.08,0.13,0.12,-40.38,8.19,-17.19,0.86,0.08,-0.51,0.06
13140004, 9.27,0.02,1.58,-0.05,0.15,0.09,-40.38,8.19,-17.19,0.86,0.08,-0.51,0.06
13150004, 9.24,-0.40,1.75,-0.06,0.16,0.07,-40.38,8.19,-17.19,0.86,0.08,-0.51,0.06
13160004, 9.31,-0.42,1.83,-0.14,0.17,0.05,-40.38,8.19,-17.19,0.86,0.08,-0.51,0.06
13170004, 9.46,-0.25,1.91,-0.26,0.17,0.03,-41.19,9.06,-17.69,0.86,0.08,-0.51,0.06
13180001, 9.63,-0.02,2.03,-0.38,0.17,0.01,-41.19,9.06,-17.69,0.86,0.08,-0.50,0.06
13190004, 9.81,0.66,2.17,-0.45,0.16,-0.01,-41.19,9.06,-17.69,0.86,0.08,-0.50,0.06
13200000, 9.79,0.89,2.30,-0.44,0.15,-0.03,-41.19,9.06,-17.69,0.86,0.08,-0.50,0.06
13210000, 9.77,0.95,2.35,-0.37,0.14,-0.04,-41.19,9.06,-17.69,0.86,0.07,-0.50,0.06
13220004, 9.75,1.01,2.42,-0.29,0.13,-0.03,-41.19,9.06,-18.06,0.86,0.07,-0.50,0.06
13230000, 9.91,1.13,2.62,-0.21,0.12,-0.03,-41.19,9.06,-18.06,0.86,0.07,-0.50,0.06
13240004, 9.95,1.13,2.78,-0.13,0.09,-0.02,-41.19,9.06,-18.06,0.86,0.07,-0.50,0.06
13250004, 9.93,1.06,2.92,-0.03,0.06,-0.01,-41.19,9.06,-18.06,0.86,0.07,-0.50,0.06
13260004, 9.69,0.79,3.19,0.04,0.02,0.01,-41.19,9.06,-18.06,0.86,0.07,-0.50,0.06
13270000, 9.66,0.67,3.29,0.07,-0.05,0.02,-40.56,9.50,-17.69,0.86,0.07,-0.50,0.06
13280001, 9.75,0.67,3.39,0.06,-0.12,0.03,-40.56,9.50,-17.69,0.86,0.07,-0.50,0.06
13290004, 9.85,0.84,3.45,0.04,-0.20,0.04,-40.56,9.50,-17.69,0.86,0.07,-0.50,0.06
13300004, 9.87,1.28,3.59,0.06,-0.28,0.07,-40.56,9.50,-17.69,0.86,0.07,-0.50,0.06
13310001, 9.66,1.23,3.65,0.14,-0.34,0.09,-40.56,9.50,-17.69,0.86,0.07,-0.51,0.06
13320004, 9.44,1.04,3.66,0.25,-0.38,0.13,-42.00,10.50,-18.50,0.86,0.07,-0.51,0.06
13330000, 9.28,0.87,3.67,0.32,-0.42,0.18,-42.00,10.50,-18.50,0.86,0.08,-0.51,0.06
13340000, 9.17,0.72,3.73,0.36,-0.46,0.20,-42.00,10.50,-18.50,0.85,0.08,-0.51,0.06
13350000, 9.10,0.64,3.80,0.38,-0.49,0.22,-42.00,10.50,-18.50,0.85,0.08,-0.51,0.06
13360000, 9.04,0.52,3.90,0.37,-0.54,0.23,-42.00,10.50,-18.50,0.85,0.08,-0.51,0.07
13370004, 8.69,0.47,4.30,0.34,-0.59,0.24,-42.75,11.50,-18.00,0.85,0.08,-0.52,0.07
13380001, 8.55,0.48,4.52,0.26,-0.65,0.22,-42.75,11.50,-18.00,0.85,0.08,-0.52,0.07
13390000, 8.49,0.55,4.68,0.13,-0.71,0.22,-42.75,11.50,-18.00,0.85,0.08,-0.52,0.07
13400004, 8.51,0.64,4.78,-0.01,-0.79,0.21,-42.75,11.50,-18.00,0.84,0.08,-0.53,0.07
13410004, 8.44,0.99,5.07,-0.13,-0.87,0.21,-42.75,11.50,-18.00,0.84,0.08,-0.53,0.07
13420004, 8.22,1.35,5.28,-0.22,-0.92,0.21,-43.19,10.69,-16.00,0.84,0.08,-0.53,0.07
13430005, 8.02,1.58,5.31,-0.24,-0.96,0.22,-43.19,10.69,-16.00,0.84,0.08,-0.54,0.07
13440004, 7.96,1.55,5.13,-0.18,-1.00,0.23,-43.19,10.69,-16.00,0.83,0.08,-0.54,0.07
13450004, 8.03,1.30,4.84,-0.10,-1.04,0.23,-43.19,10.69,-16.00,0.83,0.08,-0.55,0.07
13460000, 7.94,1.30,4.84,-0.03,-1.08,0.23,-43.19,10.69,-16.00,0.83,0.08,-0.55,0.07
13470000, 7.77,1.33,4.88,0.07,-1.12,0.24,-44.56,11.38,-14.00,0.83,0.08,-0.56,0.07
13480005, 7.57,1.13,4.76,0.17,-1.14,0.25,-44.56,11.38,-14.00,0.82,0.08,-0.56,0.07
13490000, 7.63,0.85,4.63,0.23,-1.17,0.25,-44.56,11.38,-14.00,0.82,0.08,-0.56,0.07
13500000, 7.63,0.64,4.60,0.26,-1.19,0.25,-44.56,11.38,-14.00,0.82,0.08,-0.57,0.08
13514782, 7.53,0.59,4.60,0.23,-1.21,0.24,-44.56,11.38,-14.00,0.81,0.08,-0.57,0.08
13520000, 7.11,0.70,4.93,0.19,-1.23,0.24,-45.25,11.69,-10.88,0.81,0.08,-0.58,0.08
13530005, 6.93,0.85,5.05,0.17,-1.22,0.24,-45.25,11.69,-10.88,0.80,0.08,-0.58,0.08
13540004, 6.93,0.90,4.83,0.18,-1.20,0.23,-45.25,11.69,-10.88,0.80,0.08,-0.59,0.08
13550004, 7.17,0.68,4.46,0.21,-1.19,0.23,-45.25,11.69,-10.88,0.80,0.08,-0.59,0.08
13560004, 7.56,0.45,3.76,0.22,-1.20,0.23,-45.25,11.69,-10.88,0.79,0.08,-0.60,0.08
13570000, 7.52,0.63,3.60,0.24,-1.23,0.24,-44.19,11.88,-8.50,0.79,0.08,-0.60,0.08
13580005, 7.31,0.76,3.58,0.35,-1.27,0.25,-44.19,11.88,-8.50,0.79,0.08,-0.61,0.08
13590000, 7.15,0.75,3.57,0.51,-1.31,0.26,-44.19,11.88,-8.50,0.78,0.08,-0.61,0.09
13600004, 7.09,0.40,3.47,0.66,-1.35,0.27,-44.19,11.88,-8.50,0.78,0.09,-0.62,0.09
13610004, 7.27,0.13,3.29,0.74,-1.40,0.29,-44.19,11.88,-8.50,0.77,0.09,-0.62,0.09
13620000, 7.27,0.13,3.29,0.73,-1.46,0.32,-44.56,12.25,-6.19,0.77,0.09,-0.63,0.09
13630001, 7.36,-0.29,3.27,0.66,-1.53,0.35,-44.56,12.25,-6.19,0.76,0.09,-0.63,0.10
13640004, 7.09,-0.11,3.52,0.58,-1.57,0.38,-44.56,12.25,-6.19,0.76,0.10,-0.64,0.10
13650004, 6.99,0.00,3.65,0.53,-1.60,0.39,-44.56,12.25,-6.19,0.75,0.10,-0.64,0.10
13660004, 7.18,-0.11,3.62,0.47,-1.63,0.41,-44.56,12.25,-6.19,0.75,0.10,-0.65,0.10
13670004, 7.18,-0.11,3.62,0.40,-1.67,0.44,-45.06,12.69,-3.00,0.74,0.10,-0.66,0.11
13680001, 7.94,-0.31,3.22,0.30,-1.72,0.47,-45.06,12.69,-3.00,0.73,0.10,-0.66,0.11
13690000, 8.15,-0.22,3.04,0.22,-1.76,0.51,-45.06,12.69,-3.00,0.73,0.10,-0.67,0.11
13700004, 8.34,0.04,2.88,0.17,-1.81,0.55,-45.06,12.69,-3.00,0.72,0.10,-0.68,0.11
13710004, 8.61,0.10,2.74,0.17,-1.84,0.58,-45.06,12.69,-3.00,0.72,0.10,-0.68,0.11
13720000, 8.61,0.10,2.74,0.20,-1.85,0.61,-44.69,13.25,1.00,0.71,0.10,-0.69,0.11
13730001, 9.11,-0.06,2.35,0.22,-1.87,0.66,-44.69,13.25,1.00,0.70,0.10,-0.69,0.12
13740004, 9.18,-0.01,2.50,0.23,-1.86,0.68,-44.69,13.25,1.00,0.70,0.10,-0.70,0.12
13750004, 9.32,0.05,2.48,0.24,-1.84,0.69,-44.69,13.25,1.00,0.69,0.10,-0.71,0.12
13760004, 9.32,0.05,2.48,0.26,-1.80,0.68,-44.69,13.25,1.00,0.68,0.10,-0.71,0.12
13770000, 9.45,0.24,2.41,0.29,-1.74,0.66,-43.38,14.87,6.50,0.68,0.10,-0.72,0.13
13780001, 9.59,0.23,2.43,0.32,-1.66,0.63,-43.38,14.87,6.50,0.67,0.10,-0.73,0.13
13790001, 9.86,-0.30,2.13,0.30,-1.60,0.58,-43.38,14.87,6.50,0.66,0.10,-0.73,0.13
13800004, 9.95,-0.54,1.96,0.24,-1.54,0.52,-43.38,14.87,6.50,0.66,0.10,-0.74,0.13
13810000, 10.03,-0.83,1.85,0.12,-1.49,0.45,-43.38,14.87,6.50,0.65,0.10,-0.74,0.13
13820004, 10.03,-1.11,1.62,-0.07,-1.43,0.38,-42.75,15.88,8.88,0.65,0.10,-0.74,0.13
13830005, 9.73,-1.05,1.51,-0.25,-1.35,0.31,-42.75,15.88,8.88,0.64,0.09,-0.75,0.13
13840004, 9.54,-0.92,1.44,-0.40,-1.24,0.24,-42.75,15.88,8.88,0.64,0.09,-0.75,0.13
13850000, 9.40,-0.73,1.12,-0.52,-1.12,0.20,-42.75,15.88,8.88,0.63,0.09,-0.76,0.13
13860001, 9.20,-0.35,1.03,-0.56,-0.99,0.16,-42.75,15.88,8.88,0.63,0.09,-0.76,0.13
13870004, 9.12,-0.19,0.88,-0.56,-0.84,0.12,-42.19,17.25,11.25,0.63,0.09,-0.76,0.13
13880001, 9.05,0.04,0.73,-0.52,-0.67,0.09,-42.19,17.25,11.25,0.62,0.09,-0.77,0.12
13890000, 9.03,0.22,0.65,-0.41,-0.49,0.04,-42.19,17.25,11.25,0.62,0.09,-0.77,0.12
13900001, 8.73,0.14,0.66,-0.28,-0.32,0.00,-42.19,17.25,11.25,0.62,0.08,-0.77,0.12
13910000, 8.53,-0.06,0.75,-0.21,-0.16,-0.04,-42.19,17.25,11.25,0.62,0.08,-0.77,0.12
13920000, 8.38,-0.33,0.79,-0.23,-0.03,-0.08,-41.50,17.56,14.19,0.62,0.08,-0.77,0.12
13930001, 8.36,-0.58,0.91,-0.29,0.08,-0.13,-41.50,17.56,14.19,0.62,0.08,-0.77,0.12
13940004, 8.66,-0.93,0.74,-0.41,0.19,-0.19,-41.50,17.56,14.19,0.62,0.08,-0.77,0.12
13950000, 9.04,-0.74,0.41,-0.64,0.30,-0.32,-41.50,17.56,14.19,0.62,0.08,-0.77,0.11
13960000, 9.88,0.33,-0.90,-0.68,0.34,-0.50,-41.50,17.56,14.19,0.63,0.08,-0.77,0.11
13970000, 14.53,0.62,-6.84,-0.68,0.34,-0.50,-40.75,17.25,15.00,0.63,0.08,-0.77,0.10
13980001, 17.09,-0.09,-7.37,-0.51,0.24,-0.65,-40.75,17.25,15.00,0.63,0.08,-0.77,0.10
13990000, 17.58,0.00,-5.74,-0.46,0.09,-0.50,-40.75,17.25,15.00,0.63,0.08,-0.77,0.10
14007115, 8.53,4.26,1.04,-0.13,0.30,-0.34,-40.75,17.25,15.00,0.63,0.09,-0.76,0.10
14025322, 6.47,1.59,-0.57,0.83,0.89,-0.28,-41.88,16.19,15.38,0.64,0.09,-0.76,0.10
14029819, 6.47,1.59,-0.57,0.83,0.89,-0.28,-41.88,16.19,15.38,0.64,0.09,-0.76,0.10
14034560, 7.86,-1.24,-0.67,1.19,0.97,-0.39,-41.88,16.19,15.38,0.64,0.09,-0.76,0.10
14042046, 11.42,-3.09,0.65,1.22,0.93,-0.40,-41.88,16.19,15.38,0.64,0.10,-0.75,0.11
14056691, 10.98,-2.44,0.43,0.86,0.83,-0.37,-41.88,16.19,15.38,0.65,0.10,-0.75,0.11
14064098, 9.99,-1.58,1.16,0.37,0.72,-0.44,-41.88,16.19,15.38,0.65,0.10,-0.75,0.11
14070001, 9.99,-1.58,1.16,0.37,0.72,-0.44,-42.00,15.19,14.06,0.65,0.11,-0.74,0.11
14080001, 8.77,-0.20,0.51,0.09,0.63,-0.49,-42.00,15.19,14.06,0.65,0.11,-0.74,0.11
14090000, 9.02,0.32,0.35,-0.14,0.52,-0.40,-42.00,15.19,14.06,0.65,0.11,-0.74,0.11
14100001, 9.58,0.50,0.31,-0.15,0.47,-0.39,-42.00,15.19,14.06,0.66,0.11,-0.74,0.10
14110004, 9.86,0.57,0.34,-0.14,0.42,-0.43,-42.00,15.19,14.06,0.66,0.11,-0.74,0.10
14120000, 9.38,0.77,0.41,-0.14,0.42,-0.43,-42.69,14.06,11.00,0.66,0.11,-0.74,0.10
14130004, 9.09,0.78,0.30,-0.11,0.39,-0.48,-42.69,14.06,11.00,0.66,0.11,-0.73,0.10
14140001, 9.14,0.56,0.03,0.10,0.36,-0.38,-42.69,14.06,11.00,0.66,0.11,-0.73,0.10
14150000, 9.45,0.34,-0.22,0.20,0.35,-0.34,-42.69,14.06,11.00,0.66,0.12,-0.73,0.10
14160000, 10.02,0.04,-0.24,0.27,0.34,-0.37,-42.69,14.06,11.00,0.67,0.12,-0.73,0.10
14170004, 9.94,-0.23,-0.39,0.27,0.34,-0.37,-42.69,14.06,11.00,0.67,0.12,-0.73,0.10
14180001, 9.73,-0.44,-0.57,0.27,0.34,-0.40,-43.87,13.38,9.00,0.67,0.12,-0.73,0.10
14190004, 9.65,-0.11,-0.67,0.05,0.34,-0.37,-43.87,13.38,9.00,0.67,0.12,-0.73,0.10
14200000, 9.69,0.33,-0.60,-0.00,0.34,-0.35,-43.87,13.38,9.00,0.67,0.12,-0.72,0.10
14210001, 9.69,0.64,-0.56,-0.00,0.34,-0.35,-43.87,13.38,9.00,0.67,0.12,-0.72,0.10
14220004, 9.61,0.82,-0.61,-0.00,0.34,-0.35,-43.87,13.38,9.00,0.67,0.13,-0.72,0.09
14230001, 9.56,1.14,-0.48,-0.01,0.34,-0.35,-44.56,12.75,9.38,0.67,0.13,-0.72,0.09
14240004, 9.57,1.21,-0.44,-0.01,0.34,-0.34,-44.56,12.75,9.38,0.68,0.13,-0.72,0.09
14250000, 9.69,1.18,-0.32,0.03,0.34,-0.31,-44.56,12.75,9.38,0.68,0.13,-0.72,0.09
14260000, 9.79,0.89,-0.35,0.05,0.34,-0.29,-44.56,12.75,9.38,0.68,0.13,-0.72,0.09
14270000, 9.74,0.25,-0.32,-0.00,0.34,-0.28,-44.56,12.75,9.38,0.68,0.13,-0.72,0.09
14280005, 9.70,0.23,-0.33,-0.14,0.33,-0.27,-44.56,11.56,7.87,0.68,0.13,-0.71,0.09
14290004, 9.69,0.45,-0.34,-0.29,0.33,-0.25,-44.56,11.56,7.87,0.68,0.13,-0.71,0.09
14300000, 9.72,0.90,-0.38,-0.39,0.33,-0.23,-44.56,11.56,7.87,0.68,0.13,-0.71,0.08
14310000, 9.67,1.05,-0.33,-0.42,0.33,-0.21,-44.56,11.56,7.87,0.69,0.13,-0.71,0.08
14320004, 9.58,1.16,-0.23,-0.39,0.33,-0.20,-44.56,11.56,7.87,0.69,0.13,-0.71,0.08
14330005, 9.35,1.20,-0.20,-0.35,0.33,-0.19,-45.25,11.38,9.00,0.69,0.13,-0.71,0.08
14340000, 9.21,1.11,-0.18,-0.31,0.34,-0.17,-45.25,11.38,9.00,0.69,0.13,-0.71,0.08
14350004, 9.29,1.00,-0.17,-0.28,0.34,-0.17,-45.25,11.38,9.00,0.69,0.13,-0.71,0.08
14360000, 9.31,0.89,-0.20,-0.26,0.35,-0.16,-45.25,11.38,9.00,0.69,0.13,-0.71,0.08
14370004, 9.34,0.85,-0.29,-0.26,0.35,-0.16,-45.25,11.38,9.00,0.69,0.12,-0.70,0.08
14380004, 9.36,0.83,-0.30,-0.27,0.36,-0.15,-45.69,11.38,7.37,0.70,0.12,-0.70,0.07
14390004, 9.36,0.79,-0.29,-0.28,0.38,-0.15,-45.69,11.38,7.37,0.70,0.12,-0.70,0.07
14400004, 9.33,0.77,-0.36,-0.28,0.39,-0.15,-45.69,11.38,7.37,0.70,0.12,-0.70,0.07
14410000, 9.15,0.98,-0.30,-0.29,0.40,-0.15,-45.69,11.38,7.37,0.70,0.12,-0.70,0.07
14420004, 9.22,1.21,-0.14,-0.29,0.42,-0.15,-45.69,11.38,7.37,0.70,0.12,-0.70,0.07
14430001, 9.33,1.41,0.06,-0.27,0.42,-0.15,-46.37,10.25,7.00,0.70,0.12,-0.70,0.07
14440000, 9.42,1.50,0.27,-0.19,0.43,-0.14,-46.37,10.25,7.00,0.71,0.12,-0.70,0.07
14450001, 9.38,1.20,0.49,-0.10,0.44,-0.14,-46.37,10.25,7.00,0.71,0.12,-0.69,0.07
