Count,Timestamp,IMU,AccelX,AccelY,AccelZ,GyroX,GyroY,GyroZ,MagX,MagY,MagZ,QuatX,QuatY,QuatZ,QuatW
37854,00:02:44,IMU2,0.0,0.0,0.0,0.65,-2.91,9.38,-18.5,-6.88,-26.81,-0.09,0.12,-0.89,0.43
37854,00:02:44,IMU3,0.0,0.0,0.0,-0.46,-1.0,9.58,-12.94,-31.31,-17.94,0.02,0.05,-0.99,0.16
37855,00:02:44,IMU1,0.01,0.0,0.0,1.46,-0.88,9.54,-1.44,-7.38,-32.69,0.06,-0.07,0.94,0.34
37855,00:02:44,IMU2,0.0,0.0,0.0,0.65,-2.91,9.38,-18.5,-6.88,-26.81,-0.09,0.12,-0.89,0.43
37855,00:02:44,IMU3,0.0,0.0,0.0,-0.46,-1.0,9.58,-12.94,-31.31,-17.94,0.02,0.05,-0.99,0.16
37856,00:02:44,IMU1,0.01,0.0,0.0,1.46,-0.88,9.54,-1.44,-7.38,-32.69,0.06,-0.07,0.94,0.34
37856,00:02:44,IMU2,0.0,0.0,0.0,0.65,-2.91,9.38,-18.5,-6.88,-26.81,-0.09,0.12,-0.89,0.43
37856,00:02:44,IMU3,0.0,0.0,0.0,-0.46,-0.92,9.61,-12.94,-31.31,-17.94,0.02,0.05,-0.99,0.16
37857,00:02:44,IMU1,0.0,0.0,0.0,1.46,-0.88,9.54,-1.44,-7.38,-32.69,0.06,-0.07,0.94,0.34
37857,00:02:44,IMU2,0.0,0.0,0.0,0.65,-2.91,9.38,-18.5,-6.88,-26.81,-0.09,0.12,-0.89,0.43
37857,00:02:44,IMU3,0.0,0.0,0.0,-0.46,-0.92,9.61,-14.0,-31.31,-13.25,0.02,0.05,-0.99,0.16
37858,00:02:44,IMU1,0.0,0.0,0.0,1.46,-0.88,9.54,-1.44,-7.38,-32.69,0.06,-0.07,0.94,0.34
37858,00:02:44,IMU2,0.0,0.0,0.0,0.69,-2.87,9.39,-18.5,-6.88,-26.81,-0.09,0.12,-0.89,0.43
37858,00:02:44,IMU3,0.0,0.0,0.0,-0.46,-0.92,9.61,-14.0,-31.31,-13.25,0.02,0.05,-0.99,0.16
37859,00:02:44,IMU1,0.0,0.0,0.0,1.46,-0.92,9.5,-1.44,-7.38,-32.69,0.06,-0.07,0.94,0.34
37859,00:02:44,IMU2,0.0,0.0,0.0,0.69,-2.87,9.39,-17.06,-6.12,-29.5,-0.09,0.12,-0.89,0.43
37859,00:02:44,IMU3,0.0,0.0,0.0,-0.46,-0.92,9.61,-14.0,-31.31,-13.25,0.02,0.05,-0.99,0.16
37860,00:02:44,IMU1,0.0,0.0,0.0,1.46,-0.92,9.5,-0.31,-6.62,-29.88,0.06,-0.07,0.94,0.34
37860,00:02:44,IMU2,0.0,0.0,0.0,0.69,-2.87,9.39,-17.06,-6.12,-29.5,-0.09,0.12,-0.89,0.43
37860,00:02:44,IMU3,0.0,0.0,0.0,-0.46,-0.92,9.61,-14.0,-31.31,-13.25,0.02,0.05,-0.99,0.16
37861,00:02:44,IMU1,0.0,0.0,0.01,1.46,-0.92,9.5,-0.31,-6.62,-29.88,0.06,-0.07,0.94,0.34
37861,00:02:44,IMU2,0.0,0.0,0.0,0.69,-2.87,9.39,-17.06,-6.12,-29.5,-0.09,0.12,-0.89,0.43
37861,00:02:44,IMU3,0.0,0.0,0.0,-0.46,-0.92,9.61,-14.0,-31.31,-13.25,0.02,0.05,-0.99,0.16
37862,00:02:44,IMU1,0.0,0.0,0.01,1.46,-0.92,9.5,-0.31,-6.62,-29.88,0.06,-0.07,0.94,0.34
37862,00:02:44,IMU2,0.0,0.0,0.0,0.69,-2.87,9.39,-17.06,-6.12,-29.5,-0.09,0.12,-0.89,0.43
37862,00:02:44,IMU3,0.0,0.0,0.0,-0.46,-0.92,9.61,-14.0,-31.31,-13.25,0.02,0.05,-0.99,0.16
37863,00:02:44,IMU1,0.0,0.0,0.0,1.46,-0.92,9.5,-0.31,-6.62,-29.88,0.06,-0.07,0.94,0.34
37863,00:02:44,IMU2,0.0,0.0,0.0,0.69,-2.87,9.39,-17.06,-6.12,-29.5,-0.09,0.12,-0.89,0.43
37863,00:02:44,IMU3,0.0,0.0,0.0,-0.46,-0.92,9.61,-14.0,-31.31,-13.25,0.02,0.05,-0.99,0.16
37864,00:02:44,IMU1,0.0,0.0,0.0,1.46,-0.92,9.5,-0.31,-6.62,-29.88,0.06,-0.07,0.94,0.34
37864,00:02:44,IMU2,0.0,0.0,0.0,0.61,-2.87,9.34,-17.06,-6.12,-29.5,-0.09,0.12,-0.89,0.43
37864,00:02:44,IMU3,0.0,0.0,0.0,-0.5,-0.96,9.58,-14.0,-31.31,-13.25,0.02,0.05,-0.99,0.16
37865,00:02:44,IMU1,0.0,0.0,0.0,1.42,-0.88,9.5,-0.31,-6.62,-29.88,0.06,-0.07,0.94,0.34
37865,00:02:44,IMU2,0.0,0.0,0.0,0.61,-2.87,9.34,-18.5,-7.62,-28.38,-0.09,0.12,-0.89,0.43
37865,00:02:44,IMU3,0.0,0.0,0.0,-0.5,-0.96,9.58,-13.69,-36.0,-14.81,0.02,0.05,-0.99,0.16
37866,00:02:44,IMU1,0.0,0.0,0.0,1.42,-0.88,9.5,-0.31,-6.62,-29.88,0.06,-0.07,0.94,0.34
37866,00:02:44,IMU2,0.0,0.0,0.0,0.61,-2.87,9.34,-18.5,-7.62,-28.38,-0.09,0.12,-0.89,0.43
37866,00:02:44,IMU3,0.0,0.0,0.0,-0.5,-0.96,9.58,-13.69,-36.0,-14.81,0.02,0.05,-0.99,0.16
37867,00:02:44,IMU1,0.0,0.0,0.0,1.42,-0.88,9.5,-1.44,-7.75,-27.88,0.06,-0.07,0.94,0.34
37867,00:02:44,IMU2,0.0,0.0,0.0,0.61,-2.87,9.34,-18.5,-7.62,-28.38,-0.09,0.12,-0.89,0.43
37867,00:02:44,IMU3,0.0,0.0,0.0,-0.5,-0.96,9.58,-13.69,-36.0,-14.81,0.02,0.05,-0.99,0.16
37868,00:02:44,IMU1,0.0,0.0,0.0,1.42,-0.88,9.5,-1.44,-7.75,-27.88,0.06,-0.07,0.94,0.34
37868,00:02:44,IMU2,0.0,0.0,0.0,0.65,-2.87,9.34,-18.5,-7.62,-28.38,-0.09,0.12,-0.89,0.43
37868,00:02:44,IMU3,0.0,0.0,0.0,-0.5,-0.96,9.58,-13.69,-36.0,-14.81,0.02,0.05,-0.99,0.16
37869,00:02:44,IMU1,0.01,0.0,0.0,1.42,-0.88,9.5,-1.44,-7.75,-27.88,0.06,-0.07,0.94,0.34
37869,00:02:44,IMU2,0.0,0.0,0.0,0.65,-2.87,9.34,-18.5,-7.62,-28.38,-0.09,0.12,-0.89,0.43
37869,00:02:44,IMU3,0.0,0.0,0.0,-0.5,-0.96,9.58,-13.69,-36.0,-14.81,0.02,0.05,-0.99,0.16
37870,00:02:44,IMU1,0.01,0.0,0.0,1.42,-0.88,9.5,-1.44,-7.75,-27.88,0.06,-0.07,0.94,0.34
37870,00:02:44,IMU2,0.0,0.0,0.0,0.65,-2.87,9.34,-18.5,-7.62,-28.38,-0.09,0.12,-0.89,0.43
37870,00:02:44,IMU3,0.0,0.0,0.0,-0.46,-0.92,9.58,-13.69,-36.0,-14.81,0.02,0.05,-0.99,0.16
37871,00:02:44,IMU1,0.0,0.0,0.01,1.42,-0.88,9.5,-1.44,-7.75,-27.88,0.06,-0.07,0.94,0.34
37871,00:02:44,IMU2,0.0,0.0,0.0,0.65,-2.87,9.34,-18.5,-7.62,-28.38,-0.09,0.12,-0.89,0.43
37871,00:02:44,IMU3,0.0,0.0,0.0,-0.46,-0.92,9.58,-14.0,-36.38,-14.0,0.02,0.05,-0.99,0.16
37872,00:02:44,IMU1,0.0,0.0,0.01,1.42,-0.88,9.5,-1.44,-7.75,-27.88,0.06,-0.07,0.94,0.34
37872,00:02:44,IMU2,0.0,0.0,0.0,0.65,-2.87,9.34,-18.5,-7.62,-28.38,-0.09,0.12,-0.89,0.43
37872,00:02:44,IMU3,0.0,0.0,0.0,-0.46,-0.92,9.58,-14.0,-36.38,-14.0,0.02,0.05,-0.99,0.16
37873,00:02:44,IMU1,0.0,0.0,0.01,1.46,-0.88,9.46,-1.44,-7.75,-27.88,0.06,-0.07,0.94,0.34
37873,00:02:44,IMU2,0.0,0.0,0.0,0.65,-2.87,9.34,-18.5,-7.62,-28.38,-0.09,0.12,-0.89,0.43
37873,00:02:44,IMU3,0.0,0.0,0.0,-0.46,-0.92,9.58,-14.0,-36.38,-14.0,0.02,0.05,-0.99,0.16
37874,00:02:44,IMU1,0.0,0.0,0.01,1.46,-0.88,9.46,-1.06,-7.75,-33.06,0.06,-0.07,0.94,0.34
37874,00:02:44,IMU2,0.0,0.0,0.0,0.65,-2.87,9.34,-18.5,-7.62,-28.38,-0.09,0.12,-0.89,0.43
37874,00:02:44,IMU3,0.0,0.0,0.0,-0.46,-0.92,9.58,-14.0,-36.38,-14.0,0.02,0.05,-0.99,0.16
37875,00:02:44,IMU1,0.0,0.0,0.0,1.46,-0.88,9.46,-1.06,-7.75,-33.06,0.06,-0.07,0.94,0.34
37875,00:02:44,IMU2,0.0,0.0,0.0,0.65,-2.87,9.34,-18.5,-7.62,-28.38,-0.09,0.12,-0.89,0.43
37875,00:02:44,IMU3,0.0,0.0,0.0,-0.46,-0.92,9.58,-14.0,-36.38,-14.0,0.02,0.05,-0.99,0.16
37876,00:02:44,IMU1,0.0,0.0,0.0,1.46,-0.88,9.46,-1.06,-7.75,-33.06,0.06,-0.07,0.94,0.34
37876,00:02:44,IMU2,0.0,0.0,0.0,0.69,-2.91,9.35,-18.5,-7.62,-28.38,-0.09,0.12,-0.89,0.43
37876,00:02:44,IMU3,0.0,0.0,0.0,-0.42,-0.92,9.58,-14.0,-36.38,-14.0,0.02,0.05,-0.99,0.16
37877,00:02:44,IMU1,0.0,0.0,0.0,1.46,-0.88,9.46,-1.06,-7.75,-33.06,0.06,-0.07,0.94,0.34
37877,00:02:44,IMU2,0.0,0.0,0.0,0.69,-2.91,9.35,-18.19,-6.12,-22.12,-0.09,0.12,-0.89,0.43
37877,00:02:44,IMU3,0.0,0.0,0.0,-0.42,-0.92,9.58,-12.56,-32.38,-13.25,0.02,0.05,-0.99,0.16
37878,00:02:44,IMU1,0.0,0.0,0.0,1.46,-0.88,9.46,-1.06,-7.75,-33.06,0.06,-0.07,0.94,0.34
37878,00:02:44,IMU2,0.0,0.0,0.0,0.69,-2.91,9.35,-18.19,-6.12,-22.12,-0.09,0.12,-0.89,0.43
37878,00:02:44,IMU3,0.0,0.0,0.0,-0.42,-0.92,9.58,-12.56,-32.38,-13.25,0.02,0.05,-0.99,0.16
37879,00:02:44,IMU1,0.0,0.0,0.0,1.49,-0.88,9.54,-1.06,-7.75,-33.06,0.06,-0.07,0.94,0.34
37879,00:02:44,IMU2,0.0,0.0,0.0,0.69,-2.91,9.35,-18.19,-6.12,-22.12,-0.09,0.12,-0.89,0.43
37879,00:02:44,IMU3,0.0,0.0,0.0,-0.42,-0.92,9.58,-12.56,-32.38,-13.25,0.02,0.05,-0.99,0.16
37880,00:02:44,IMU1,0.0,0.0,0.0,1.49,-0.88,9.54,-1.06,-7.0,-28.69,0.06,-0.07,0.94,0.34
37880,00:02:44,IMU2,0.0,0.0,0.0,0.69,-2.91,9.35,-18.19,-6.12,-22.12,-0.09,0.12,-0.89,0.43
37880,00:02:44,IMU3,0.0,0.0,0.0,-0.42,-0.92,9.58,-12.56,-32.38,-13.25,0.02,0.05,-0.99,0.16
37881,00:02:44,IMU1,0.01,-0.01,0.0,1.49,-0.88,9.54,-1.06,-7.0,-28.69,0.06,-0.07,0.94,0.34
37881,00:02:44,IMU2,0.0,0.0,0.0,0.69,-2.91,9.35,-18.19,-6.12,-22.12,-0.09,0.12,-0.89,0.43
37881,00:02:44,IMU3,0.0,0.0,0.0,-0.42,-0.92,9.58,-12.56,-32.38,-13.25,0.02,0.05,-0.99,0.16
37882,00:02:44,IMU1,0.01,-0.01,0.0,1.49,-0.88,9.54,-1.06,-7.0,-28.69,0.06,-0.07,0.94,0.34
37882,00:02:44,IMU2,0.0,0.0,0.0,0.61,-2.87,9.38,-18.19,-6.12,-22.12,-0.09,0.12,-0.89,0.43
37882,00:02:44,IMU3,0.0,0.0,0.0,-0.42,-0.92,9.58,-12.56,-32.38,-13.25,0.02,0.05,-0.99,0.16
37883,00:02:44,IMU1,0.0,0.0,0.0,1.49,-0.88,9.54,-1.06,-7.0,-28.69,0.06,-0.07,0.94,0.34
37883,00:02:44,IMU2,0.0,0.0,0.0,0.61,-2.87,9.38,-17.81,-6.88,-23.31,-0.09,0.12,-0.89,0.43
37883,00:02:44,IMU3,0.0,0.0,0.0,-0.42,-0.92,9.58,-12.56,-32.38,-13.25,0.02,0.05,-0.99,0.16
37884,00:02:44,IMU1,0.0,0.0,0.0,1.49,-0.88,9.54,-1.06,-7.0,-28.69,0.06,-0.07,0.94,0.34
37884,00:02:44,IMU2,0.0,0.0,0.0,0.61,-2.87,9.38,-17.81,-6.88,-23.31,-0.09,0.12,-0.89,0.43
37884,00:02:44,IMU3,0.0,0.0,0.0,-0.42,-0.92,9.58,-12.56,-32.38,-13.25,0.02,0.05,-0.99,0.16
37885,00:02:44,IMU1,0.0,0.0,0.0,1.49,-0.88,9.54,-1.06,-7.0,-28.69,0.06,-0.07,0.94,0.34
37885,00:02:44,IMU2,0.0,0.0,0.0,0.61,-2.87,9.38,-17.81,-6.88,-23.31,-0.09,0.12,-0.89,0.43
37885,00:02:44,IMU3,0.0,0.0,0.0,-0.42,-0.92,9.58,-12.94,-31.31,-13.62,0.02,0.05,-0.99,0.16
37886,00:02:44,IMU1,0.0,0.0,0.0,1.49,-0.88,9.54,-1.06,-7.0,-28.69,0.06,-0.07,0.94,0.34
37886,00:02:44,IMU2,0.0,0.0,0.0,0.61,-2.87,9.38,-17.81,-6.88,-23.31,-0.09,0.12,-0.89,0.43
37886,00:02:44,IMU3,0.0,0.0,0.0,-0.42,-0.92,9.58,-12.94,-31.31,-13.62,0.02,0.05,-0.99,0.16
37887,00:02:44,IMU1,0.0,0.0,0.0,1.38,-0.88,9.5,-1.06,-7.0,-28.69,0.06,-0.07,0.94,0.34
37887,00:02:44,IMU2,0.0,0.0,0.0,0.61,-2.87,9.38,-17.81,-6.88,-23.31,-0.09,0.12,-0.89,0.43
37887,00:02:44,IMU3,0.0,0.0,0.0,-0.42,-0.92,9.58,-12.94,-31.31,-13.62,0.02,0.05,-0.99,0.16
37888,00:02:44,IMU1,0.0,0.0,0.0,1.38,-0.88,9.5,-1.06,-7.0,-28.69,0.06,-0.07,0.94,0.34
37888,00:02:44,IMU2,0.0,0.0,0.0,0.61,-2.87,9.38,-17.81,-6.88,-23.31,-0.09,0.12,-0.89,0.43
37888,00:02:44,IMU3,0.0,0.0,0.0,-0.42,-0.92,9.58,-12.94,-31.31,-13.62,0.02,0.05,-0.99,0.16
37889,00:02:44,IMU1,0.0,0.0,0.0,1.38,-0.88,9.5,-1.81,-5.5,-31.5,0.06,-0.07,0.94,0.34
37889,00:02:44,IMU2,0.0,0.0,0.0,0.61,-2.87,9.38,-17.81,-6.88,-23.31,-0.09,0.12,-0.89,0.43
37889,00:02:44,IMU3,0.0,0.0,0.0,-0.42,-0.92,9.58,-12.94,-31.31,-13.62,0.02,0.05,-0.99,0.16
37890,00:02:44,IMU1,0.0,0.0,0.0,1.38,-0.88,9.5,-1.81,-5.5,-31.5,0.06,-0.07,0.94,0.34
37890,00:02:44,IMU2,0.0,0.0,0.0,0.65,-2.87,9.38,-17.81,-6.88,-23.31,-0.09,0.12,-0.89,0.43
37890,00:02:44,IMU3,0.0,0.0,0.0,-0.42,-0.92,9.58,-12.94,-31.31,-13.62,0.02,0.05,-0.99,0.16
37891,00:02:44,IMU1,0.0,0.0,0.0,1.38,-0.88,9.5,-1.81,-5.5,-31.5,0.06,-0.07,0.94,0.34
37891,00:02:44,IMU2,0.0,0.0,0.0,0.65,-2.87,9.38,-18.19,-5.44,-26.81,-0.09,0.12,-0.89,0.43
37891,00:02:44,IMU3,0.0,0.0,0.0,-0.42,-0.92,9.58,-12.94,-31.31,-13.62,0.02,0.05,-0.99,0.16
37892,00:02:44,IMU1,0.0,0.0,0.0,1.38,-0.88,9.5,-1.81,-5.5,-31.5,0.06,-0.07,0.94,0.34
37892,00:02:44,IMU2,0.0,0.0,0.0,0.65,-2.87,9.38,-18.19,-5.44,-26.81,-0.09,0.12,-0.89,0.43
37892,00:02:44,IMU3,0.0,0.0,0.0,-0.42,-0.92,9.58,-12.94,-31.31,-13.62,0.02,0.05,-0.99,0.16
37893,00:02:44,IMU1,0.0,0.0,0.0,1.46,-0.88,9.46,-1.81,-5.5,-31.5,0.06,-0.07,0.94,0.34
37893,00:02:44,IMU2,0.0,0.0,0.0,0.65,-2.87,9.38,-18.19,-5.44,-26.81,-0.09,0.12,-0.89,0.43
37893,00:02:44,IMU3,0.0,0.0,0.0,-0.42,-0.92,9.58,-12.94,-31.31,-13.62,0.02,0.05,-0.99,0.16
37894,00:02:44,IMU1,0.0,0.0,0.0,1.46,-0.88,9.46,-1.06,-6.62,-30.31,0.06,-0.07,0.94,0.34
37894,00:02:44,IMU2,0.0,0.0,0.0,0.65,-2.91,9.38,-18.19,-5.44,-26.81,-0.09,0.12,-0.89,0.43
37894,00:02:44,IMU3,0.0,0.0,0.0,-0.42,-0.96,9.58,-12.94,-31.31,-13.62,0.02,0.05,-0.99,0.16
37895,00:02:44,IMU1,0.0,0.01,0.0,1.46,-0.88,9.46,-1.06,-6.62,-30.31,0.06,-0.07,0.94,0.34
37895,00:02:44,IMU2,0.0,0.0,0.0,0.65,-2.91,9.38,-17.81,-5.06,-23.69,-0.09,0.12,-0.89,0.43
37895,00:02:44,IMU3,0.0,0.0,0.0,-0.42,-0.96,9.58,-14.0,-32.38,-13.62,0.02,0.05,-0.99,0.16
37896,00:02:44,IMU1,0.0,0.01,0.0,1.46,-0.88,9.46,-1.06,-6.62,-30.31,0.06,-0.07,0.94,0.34
37896,00:02:44,IMU2,0.0,0.0,0.0,0.65,-2.91,9.38,-17.81,-5.06,-23.69,-0.09,0.12,-0.89,0.43
37896,00:02:44,IMU3,0.0,0.0,0.0,-0.42,-0.96,9.58,-14.0,-32.38,-13.62,0.02,0.05,-0.99,0.16
37897,00:02:44,IMU1,0.0,0.0,0.0,1.46,-0.88,9.46,-1.06,-6.62,-30.31,0.06,-0.07,0.94,0.34
37897,00:02:44,IMU2,0.0,0.0,0.0,0.65,-2.91,9.38,-17.81,-5.06,-23.69,-0.09,0.12,-0.89,0.43
37897,00:02:44,IMU3,0.0,0.0,0.0,-0.42,-0.96,9.58,-14.0,-32.38,-13.62,0.02,0.05,-0.99,0.16
37898,00:02:44,IMU1,0.0,0.0,0.0,1.46,-0.88,9.46,-1.06,-6.62,-30.31,0.06,-0.07,0.94,0.34
37898,00:02:44,IMU2,0.0,0.0,0.0,0.65,-2.91,9.38,-17.81,-5.06,-23.69,-0.09,0.12,-0.89,0.43
37898,00:02:44,IMU3,0.0,0.0,0.0,-0.42,-0.96,9.58,-14.0,-32.38,-13.62,0.02,0.05,-0.99,0.16
37899,00:02:44,IMU1,0.0,0.0,0.0,1.46,-0.88,9.46,-1.06,-6.62,-30.31,0.06,-0.07,0.94,0.34
37899,00:02:44,IMU2,0.0,0.0,0.0,0.65,-2.91,9.38,-17.81,-5.06,-23.69,-0.09,0.12,-0.89,0.43
37899,00:02:44,IMU3,0.0,0.0,0.0,-0.42,-0.96,9.58,-14.0,-32.38,-13.62,0.02,0.05,-0.99,0.16
37900,00:02:44,IMU1,0.0,0.0,0.0,1.46,-0.88,9.46,-1.06,-6.62,-30.31,0.06,-0.07,0.94,0.34
37900,00:02:44,IMU2,0.0,0.0,0.0,0.61,-2.87,9.38,-17.81,-5.06,-23.69,-0.09,0.12,-0.89,0.43
37900,00:02:44,IMU3,0.0,0.0,0.0,-0.42,-0.96,9.58,-14.0,-32.38,-13.62,0.02,0.05,-0.99,0.16
37901,00:02:44,IMU1,0.0,0.0,0.0,1.46,-0.88,9.42,-1.06,-6.62,-30.31,0.06,-0.07,0.94,0.34
37901,00:02:44,IMU2,0.0,0.0,0.0,0.61,-2.87,9.38,-18.19,-6.12,-28.38,-0.09,0.12,-0.89,0.43
37901,00:02:44,IMU3,0.0,0.0,0.0,-0.42,-0.96,9.58,-14.0,-32.38,-13.62,0.02,0.05,-0.99,0.16
37902,00:02:44,IMU1,0.0,0.0,0.0,1.46,-0.88,9.42,-2.19,-6.62,-29.12,0.06,-0.07,0.94,0.34
37902,00:02:44,IMU2,0.0,0.0,0.0,0.61,-2.87,9.38,-18.19,-6.12,-28.38,-0.09,0.12,-0.89,0.43
37902,00:02:44,IMU3,0.0,0.0,0.0,-0.42,-0.96,9.61,-14.0,-32.38,-13.62,0.02,0.05,-0.99,0.16
37903,00:02:44,IMU1,0.0,0.0,0.01,1.46,-0.88,9.42,-2.19,-6.62,-29.12,0.06,-0.07,0.94,0.34
37903,00:02:44,IMU2,0.0,0.0,0.0,0.61,-2.87,9.38,-18.19,-6.12,-28.38,-0.09,0.12,-0.89,0.43
37903,00:02:44,IMU3,0.0,0.0,0.0,-0.42,-0.96,9.61,-14.0,-32.38,-13.62,0.02,0.05,-0.99,0.16
37904,00:02:44,IMU1,0.0,0.0,0.01,1.46,-0.88,9.42,-2.19,-6.62,-29.12,0.06,-0.07,0.94,0.34
37904,00:02:44,IMU2,0.0,0.0,0.0,0.61,-2.87,9.38,-18.19,-6.12,-28.38,-0.09,0.12,-0.89,0.43
37904,00:02:44,IMU3,0.0,0.0,0.0,-0.42,-0.96,9.61,-13.69,-32.75,-13.62,0.02,0.05,-0.99,0.16
37905,00:02:44,IMU1,0.0,0.0,0.0,1.46,-0.88,9.42,-2.19,-6.62,-29.12,0.06,-0.07,0.94,0.34
37905,00:02:44,IMU2,0.0,0.0,0.0,0.61,-2.87,9.38,-18.19,-6.12,-28.38,-0.09,0.12,-0.89,0.43
37905,00:02:44,IMU3,0.0,0.0,0.0,-0.42,-0.96,9.61,-13.69,-32.75,-13.62,0.02,0.05,-0.99,0.16
37906,00:02:44,IMU1,0.0,0.0,0.0,1.46,-0.88,9.42,-2.19,-6.62,-29.12,0.06,-0.07,0.94,0.34
37906,00:02:44,IMU2,0.0,0.0,0.0,0.61,-2.87,9.38,-18.19,-6.12,-28.38,-0.09,0.12,-0.89,0.43
37906,00:02:44,IMU3,0.0,0.0,0.0,-0.42,-0.96,9.61,-13.69,-32.75,-13.62,0.02,0.05,-0.99,0.16
37907,00:02:44,IMU1,0.0,0.0,0.0,1.46,-0.88,9.5,-2.19,-6.62,-29.12,0.06,-0.07,0.94,0.34
37907,00:02:44,IMU2,0.0,0.0,0.0,0.61,-2.87,9.38,-18.19,-6.12,-28.38,-0.09,0.12,-0.89,0.43
37907,00:02:44,IMU3,0.0,0.0,0.0,-0.42,-0.96,9.61,-13.69,-32.75,-13.62,0.02,0.05,-0.99,0.16
37908,00:02:44,IMU1,0.0,0.0,0.0,1.46,-0.88,9.5,-2.19,-6.62,-29.12,0.06,-0.07,0.94,0.34
37908,00:02:44,IMU2,0.0,0.0,0.0,0.61,-2.87,9.38,-18.88,-6.5,-24.44,-0.09,0.12,-0.89,0.43
37908,00:02:44,IMU3,0.0,0.0,0.0,-0.42,-0.96,9.61,-13.69,-32.75,-13.62,0.02,0.05,-0.99,0.16
37909,00:02:44,IMU1,0.0,0.0,0.0,1.46,-0.88,9.5,-0.69,-7.38,-29.88,0.06,-0.07,0.94,0.34
37909,00:02:44,IMU2,0.0,0.0,0.0,0.61,-2.87,9.38,-18.88,-6.5,-24.44,-0.09,0.12,-0.89,0.43
37909,00:02:44,IMU3,0.0,0.0,0.0,-0.42,-0.96,9.61,-13.69,-32.75,-13.62,0.02,0.05,-0.99,0.16
37910,00:02:44,IMU1,0.0,0.0,0.0,1.46,-0.88,9.5,-0.69,-7.38,-29.88,0.06,-0.07,0.94,0.34
37910,00:02:44,IMU2,0.0,0.0,0.0,0.61,-2.87,9.38,-18.88,-6.5,-24.44,-0.09,0.12,-0.89,0.43
37910,00:02:44,IMU3,0.0,0.0,0.0,-0.42,-0.96,9.61,-13.69,-32.75,-13.62,0.02,0.05,-0.99,0.16
37911,00:02:44,IMU1,0.0,0.0,0.0,1.46,-0.88,9.5,-0.69,-7.38,-29.88,0.06,-0.07,0.94,0.34
37911,00:02:44,IMU2,0.0,0.0,0.0,0.61,-2.87,9.38,-18.88,-6.5,-24.44,-0.09,0.12,-0.89,0.43
37911,00:02:44,IMU3,0.0,0.0,0.0,-0.42,-0.96,9.61,-13.69,-32.75,-13.62,0.02,0.05,-0.99,0.16
37912,00:02:44,IMU1,0.0,0.0,0.0,1.46,-0.88,9.5,-0.69,-7.38,-29.88,0.06,-0.07,0.94,0.34
37912,00:02:44,IMU2,0.0,0.0,0.0,0.61,-2.87,9.38,-18.88,-6.5,-24.44,-0.09,0.12,-0.89,0.43
37912,00:02:44,IMU3,0.0,0.0,0.0,-0.46,-0.92,9.61,-13.69,-32.75,-13.62,0.02,0.05,-0.99,0.16
37913,00:02:44,IMU1,0.0,0.0,0.0,1.46,-0.88,9.5,-0.69,-7.38,-29.88,0.06,-0.07,0.94,0.34
37913,00:02:44,IMU2,0.0,0.0,0.0,0.61,-2.87,9.38,-18.88,-6.5,-24.44,-0.09,0.12,-0.89,0.43
37913,00:02:44,IMU3,0.0,0.0,0.0,-0.46,-0.92,9.61,-13.69,-32.75,-13.62,0.02,0.05,-0.99,0.16
37914,00:02:44,IMU1,0.0,0.0,0.0,1.46,-0.88,9.5,-0.69,-7.38,-29.88,0.06,-0.07,0.94,0.34
37914,00:02:44,IMU2,0.0,0.0,0.0,0.65,-2.87,9.34,-18.88,-6.5,-24.44,-0.09,0.12,-0.89,0.43
37914,00:02:44,IMU3,0.0,0.0,0.0,-0.46,-0.92,9.61,-10.75,-30.56,-16.0,0.02,0.05,-0.99,0.16
37915,00:02:44,IMU1,0.0,0.0,0.0,1.46,-0.88,9.5,-0.69,-7.38,-29.88,0.06,-0.07,0.94,0.34
37915,00:02:44,IMU2,0.0,0.0,0.0,0.65,-2.87,9.34,-18.88,-6.5,-24.44,-0.09,0.12,-0.89,0.43
37915,00:02:44,IMU3,0.0,0.0,0.0,-0.46,-0.92,9.61,-10.75,-30.56,-16.0,0.02,0.05,-0.99,0.16
37916,00:02:44,IMU1,0.0,0.0,0.0,1.46,-0.88,9.5,-0.69,-7.38,-29.88,0.06,-0.07,0.94,0.34
37916,00:02:44,IMU2,0.0,0.0,0.0,0.65,-2.87,9.34,-18.19,-7.25,-28.38,-0.09,0.12,-0.89,0.43
37916,00:02:44,IMU3,0.0,0.0,0.0,-0.46,-0.92,9.61,-10.75,-30.56,-16.0,0.02,0.05,-0.99,0.16
37917,00:02:44,IMU1,0.0,0.0,0.0,1.46,-0.92,9.5,-0.69,-7.38,-29.88,0.06,-0.07,0.94,0.34
37917,00:02:44,IMU2,0.0,0.0,0.0,0.65,-2.87,9.34,-18.19,-7.25,-28.38,-0.09,0.12,-0.89,0.43
37917,00:02:44,IMU3,0.0,0.0,0.0,-0.46,-0.92,9.61,-10.75,-30.56,-16.0,0.02,0.05,-0.99,0.16
37918,00:02:44,IMU1,0.0,0.0,0.0,1.46,-0.92,9.5,-1.06,-9.56,-31.5,0.06,-0.07,0.94,0.34
37918,00:02:44,IMU2,0.0,0.0,0.0,0.65,-2.87,9.34,-18.19,-7.25,-28.38,-0.09,0.12,-0.89,0.43
37918,00:02:44,IMU3,0.0,0.0,0.0,-0.46,-0.92,9.61,-10.75,-30.56,-16.0,0.02,0.05,-0.99,0.16
37919,00:02:44,IMU1,0.0,0.0,0.0,1.46,-0.92,9.5,-1.06,-9.56,-31.5,0.06,-0.07,0.94,0.34
37919,00:02:44,IMU2,0.0,0.0,0.0,0.65,-2.87,9.34,-18.19,-7.25,-28.38,-0.09,0.12,-0.89,0.43
37919,00:02:44,IMU3,0.0,0.0,0.0,-0.46,-0.92,9.61,-10.75,-30.56,-16.0,0.02,0.05,-0.99,0.16
37920,00:02:44,IMU1,0.0,0.0,0.0,1.46,-0.92,9.5,-1.06,-9.56,-31.5,0.06,-0.07,0.94,0.34
37920,00:02:44,IMU2,0.0,0.0,0.0,0.65,-2.87,9.34,-18.19,-7.25,-28.38,-0.09,0.12,-0.89,0.43
37920,00:02:44,IMU3,0.0,0.0,0.0,-0.46,-0.92,9.61,-10.75,-30.56,-16.0,0.02,0.05,-0.99,0.16
37921,00:02:44,IMU1,1.77,-1.76,-1.76,1.46,-0.92,9.5,-1.06,-9.56,-31.5,0.06,-0.07,0.94,0.34
37921,00:02:44,IMU2,0.0,0.0,0.0,0.65,-2.87,9.34,-18.19,-7.25,-28.38,-0.09,0.12,-0.89,0.43
37921,00:02:44,IMU3,0.0,0.0,0.0,-0.46,-0.92,9.61,-10.75,-30.56,-16.0,0.02,0.05,-0.99,0.16
37922,00:02:44,IMU1,1.77,-1.76,-1.76,1.46,-0.92,9.5,-1.06,-9.56,-31.5,0.07,-0.06,0.93,0.35
37922,00:02:44,IMU2,0.0,0.0,0.0,0.65,-2.87,9.34,-18.19,-7.25,-28.38,-0.09,0.12,-0.89,0.43
37922,00:02:44,IMU3,0.0,0.0,0.0,-0.46,-0.96,9.58,-10.75,-30.56,-16.0,0.02,0.05,-0.99,0.16
37923,00:02:44,IMU1,1.77,-1.76,-1.76,1.49,-0.92,9.5,-1.06,-9.56,-31.5,0.07,-0.06,0.93,0.35
37923,00:02:44,IMU2,0.0,0.0,0.0,0.65,-2.87,9.34,-17.44,-6.5,-26.0,-0.09,0.12,-0.89,0.43
37923,00:02:44,IMU3,0.0,0.0,0.0,-0.46,-0.96,9.58,-12.94,-31.69,-16.75,0.02,0.05,-0.99,0.16
37924,00:02:44,IMU1,1.77,-1.76,-1.76,1.49,-0.92,9.5,-1.81,-6.62,-33.5,0.07,-0.06,0.93,0.35
37924,00:02:44,IMU2,0.0,0.0,0.0,0.65,-2.87,9.34,-17.44,-6.5,-26.0,-0.09,0.12,-0.89,0.43
37924,00:02:44,IMU3,0.0,0.0,0.0,-0.46,-0.96,9.58,-12.94,-31.69,-16.75,0.02,0.05,-0.99,0.16
37925,00:02:44,IMU1,0.14,-0.14,-0.13,1.49,-0.92,9.5,-1.81,-6.62,-33.5,0.07,-0.06,0.93,0.35
37925,00:02:44,IMU2,0.0,0.0,0.0,0.65,-2.87,9.34,-17.44,-6.5,-26.0,-0.09,0.12,-0.89,0.43
37925,00:02:44,IMU3,0.0,0.0,0.0,-0.46,-0.96,9.58,-12.94,-31.69,-16.75,0.02,0.05,-0.99,0.16
37926,00:02:44,IMU1,0.14,-0.14,-0.13,1.49,-0.92,9.5,-1.81,-6.62,-33.5,0.07,-0.06,0.93,0.35
37926,00:02:44,IMU2,0.0,0.0,0.0,0.65,-2.87,9.34,-17.44,-6.5,-26.0,-0.09,0.12,-0.89,0.43
37926,00:02:44,IMU3,0.0,0.0,0.0,-0.46,-0.96,9.58,-12.94,-31.69,-16.75,0.02,0.05,-0.99,0.16
37927,00:02:44,IMU1,-0.07,0.06,0.07,1.49,-0.92,9.5,-1.81,-6.62,-33.5,0.07,-0.06,0.93,0.35
37927,00:02:44,IMU2,0.0,0.0,0.0,0.65,-2.87,9.34,-17.44,-6.5,-26.0,-0.09,0.12,-0.89,0.43
37927,00:02:44,IMU3,0.0,0.0,0.0,-0.46,-0.96,9.58,-12.94,-31.69,-16.75,0.02,0.05,-0.99,0.16
37928,00:02:44,IMU1,-0.07,0.06,0.07,1.49,-0.92,9.5,-1.81,-6.62,-33.5,0.07,-0.06,0.93,0.35
37928,00:02:44,IMU2,0.0,0.0,0.0,0.65,-2.91,9.38,-17.44,-6.5,-26.0,-0.09,0.12,-0.89,0.43
37928,00:02:44,IMU3,0.0,0.0,0.0,-0.46,-0.92,9.58,-12.94,-31.69,-16.75,0.02,0.05,-0.99,0.16
37929,00:02:44,IMU1,-0.07,0.06,0.07,1.38,-0.88,9.54,-1.81,-6.62,-33.5,0.07,-0.06,0.93,0.35
37929,00:02:44,IMU2,0.0,0.0,0.0,0.65,-2.91,9.38,-17.81,-5.81,-28.75,-0.09,0.12,-0.89,0.43
37929,00:02:44,IMU3,0.0,0.0,0.0,-0.46,-0.92,9.58,-12.94,-31.69,-16.75,0.02,0.05,-0.99,0.16
37930,00:02:44,IMU1,-0.07,0.06,0.07,1.38,-0.88,9.54,-2.19,-6.62,-29.5,0.07,-0.06,0.93,0.35
37930,00:02:44,IMU2,0.0,0.0,0.0,0.65,-2.91,9.38,-17.81,-5.81,-28.75,-0.09,0.12,-0.89,0.43
37930,00:02:44,IMU3,0.0,0.0,0.0,-0.46,-0.92,9.58,-12.19,-32.0,-12.88,0.02,0.05,-0.99,0.16
37931,00:02:44,IMU1,0.0,0.0,0.01,1.38,-0.88,9.54,-2.19,-6.62,-29.5,0.07,-0.06,0.93,0.35
37931,00:02:44,IMU2,0.0,0.0,0.0,0.65,-2.91,9.38,-17.81,-5.81,-28.75,-0.09,0.12,-0.89,0.43
37931,00:02:44,IMU3,0.0,0.0,0.0,-0.46,-0.92,9.58,-12.19,-32.0,-12.88,0.02,0.05,-0.99,0.16
37932,00:02:44,IMU1,0.0,0.0,0.01,1.38,-0.88,9.54,-2.19,-6.62,-29.5,0.07,-0.06,0.93,0.35
37932,00:02:44,IMU2,0.0,0.0,0.0,0.65,-2.91,9.38,-17.81,-5.81,-28.75,-0.09,0.12,-0.89,0.43
37932,00:02:44,IMU3,0.0,0.0,0.0,-0.46,-0.92,9.58,-12.19,-32.0,-12.88,0.02,0.05,-0.99,0.16
37933,00:02:44,IMU1,0.0,-0.01,0.0,1.38,-0.88,9.54,-2.19,-6.62,-29.5,0.07,-0.06,0.93,0.35
37933,00:02:44,IMU2,0.0,0.0,0.0,0.65,-2.91,9.38,-17.81,-5.81,-28.75,-0.09,0.12,-0.89,0.43
37933,00:02:44,IMU3,0.0,0.0,0.0,-0.46,-0.92,9.58,-12.19,-32.0,-12.88,0.02,0.05,-0.99,0.16
37934,00:02:44,IMU1,0.0,-0.01,0.0,1.38,-0.88,9.54,-2.19,-6.62,-29.5,0.07,-0.06,0.93,0.35
37934,00:02:44,IMU2,0.0,0.0,0.0,0.65,-2.87,9.34,-17.81,-5.81,-28.75,-0.09,0.12,-0.89,0.43
37934,00:02:44,IMU3,0.0,0.0,0.0,-0.46,-0.96,9.61,-12.19,-32.0,-12.88,0.02,0.05,-0.99,0.16
37935,00:02:44,IMU1,0.0,0.0,0.0,1.38,-0.88,9.54,-2.19,-6.62,-29.5,0.07,-0.06,0.93,0.35
37939,00:02:44,IMU1,0.0,0.0,0.0,1.42,-0.88,9.5,-1.44,-7.38,-32.25,0.07,-0.06,0.93,0.35
37939,00:02:44,IMU2,0.0,0.0,0.0,0.65,-2.87,9.43,-17.44,-6.88,-22.5,-0.09,0.12,-0.89,0.43
37939,00:02:44,IMU3,0.0,0.0,0.0,-0.46,-0.96,9.61,-14.75,-35.25,-14.81,0.02,0.05,-0.99,0.16
37940,00:02:44,IMU1,0.0,0.0,0.0,1.42,-0.88,9.5,-1.44,-7.38,-32.25,0.07,-0.06,0.93,0.35
37940,00:02:44,IMU2,0.0,0.0,0.0,0.65,-2.87,9.43,-18.5,-4.69,-24.88,-0.09,0.12,-0.89,0.43
37940,00:02:44,IMU3,0.0,0.0,0.0,-0.46,-0.96,9.61,-14.75,-35.25,-14.81,0.02,0.05,-0.99,0.16
37941,00:02:44,IMU1,0.0,0.01,-0.01,1.42,-0.88,9.5,-1.44,-7.38,-32.25,0.07,-0.06,0.93,0.35
37941,00:02:44,IMU2,0.0,0.0,0.0,0.65,-2.87,9.43,-18.5,-4.69,-24.88,-0.09,0.12,-0.89,0.43
37941,00:02:44,IMU3,0.0,0.0,0.0,-0.46,-0.96,9.61,-14.75,-35.25,-14.81,0.02,0.05,-0.99,0.16
37942,00:02:44,IMU1,0.0,0.01,-0.01,1.42,-0.88,9.5,-1.44,-7.38,-32.25,0.07,-0.06,0.93,0.35
37942,00:02:44,IMU2,0.0,0.0,0.0,0.65,-2.87,9.43,-18.5,-4.69,-24.88,-0.09,0.12,-0.89,0.43
37942,00:02:44,IMU3,0.0,0.0,0.0,-0.42,-0.96,9.61,-14.75,-35.25,-14.81,0.02,0.05,-0.99,0.16
37943,00:02:44,IMU1,0.0,0.0,0.0,1.42,-0.88,9.5,-1.44,-7.38,-32.25,0.07,-0.06,0.93,0.35
37943,00:02:44,IMU2,0.0,0.0,0.0,0.65,-2.87,9.43,-18.5,-4.69,-24.88,-0.09,0.12,-0.89,0.43
37943,00:02:44,IMU3,0.0,0.0,0.0,-0.42,-0.96,9.61,-13.69,-32.38,-14.44,0.02,0.05,-0.99,0.16
37944,00:02:44,IMU1,0.0,0.0,0.0,1.42,-0.88,9.5,-1.44,-7.38,-32.25,0.07,-0.06,0.93,0.35
37944,00:02:44,IMU2,0.0,0.0,0.0,0.65,-2.87,9.31,-18.5,-4.69,-24.88,-0.09,0.12,-0.89,0.43
37944,00:02:44,IMU3,0.0,0.0,0.0,-0.42,-0.96,9.61,-13.69,-32.38,-14.44,0.02,0.05,-0.99,0.16
37945,00:02:44,IMU1,0.0,0.0,0.0,1.46,-0.88,9.42,-1.44,-7.38,-32.25,0.07,-0.06,0.93,0.35
37945,00:02:44,IMU2,0.0,0.0,0.0,0.65,-2.87,9.31,-18.5,-5.81,-22.5,-0.09,0.12,-0.89,0.43
37945,00:02:44,IMU3,0.0,0.0,0.0,-0.42,-0.96,9.61,-13.69,-32.38,-14.44,0.02,0.05,-0.99,0.16
37946,00:02:44,IMU1,0.0,0.0,0.0,1.46,-0.88,9.42,-1.06,-6.25,-29.88,0.07,-0.06,0.93,0.35
37946,00:02:44,IMU2,0.0,0.0,0.0,0.65,-2.87,9.31,-18.5,-5.81,-22.5,-0.09,0.12,-0.89,0.43
37946,00:02:44,IMU3,0.0,0.0,0.0,-0.42,-0.96,9.61,-13.69,-32.38,-14.44,0.02,0.05,-0.99,0.16
37947,00:02:44,IMU1,-0.01,0.0,0.0,1.46,-0.88,9.42,-1.06,-6.25,-29.88,0.07,-0.06,0.93,0.35
37947,00:02:44,IMU2,0.0,0.0,0.0,0.65,-2.87,9.31,-18.5,-5.81,-22.5,-0.09,0.12,-0.89,0.43
37947,00:02:44,IMU3,0.0,0.0,0.0,-0.42,-0.96,9.61,-13.69,-32.38,-14.44,0.02,0.05,-0.99,0.16
37948,00:02:44,IMU1,-0.01,0.0,0.0,1.46,-0.88,9.42,-1.06,-6.25,-29.88,0.07,-0.06,0.93,0.35
37948,00:02:44,IMU2,0.0,0.0,0.0,0.65,-2.87,9.34,-18.5,-5.81,-22.5,-0.09,0.12,-0.89,0.43
37948,00:02:44,IMU3,0.0,0.0,0.0,-0.42,-0.96,9.61,-13.69,-32.38,-14.44,0.02,0.05,-0.99,0.16
37949,00:02:44,IMU1,0.0,0.0,0.01,1.46,-0.88,9.42,-1.06,-6.25,-29.88,0.07,-0.06,0.93,0.35
37949,00:02:44,IMU2,0.0,0.0,0.0,0.65,-2.87,9.34,-18.5,-5.81,-22.5,-0.09,0.12,-0.89,0.43
37949,00:02:44,IMU3,0.0,0.0,0.0,-0.42,-0.96,9.61,-13.69,-32.38,-14.44,0.02,0.05,-0.99,0.16
37950,00:02:44,IMU1,0.0,0.0,0.01,1.46,-0.88,9.42,-1.06,-6.25,-29.88,0.07,-0.06,0.93,0.35
37950,00:02:44,IMU2,0.0,0.0,0.0,0.65,-2.87,9.34,-18.5,-5.81,-22.5,-0.09,0.12,-0.89,0.43
37950,00:02:44,IMU3,0.0,0.0,0.0,-0.42,-0.92,9.58,-13.69,-32.38,-14.44,0.02,0.05,-0.99,0.16
37951,00:02:44,IMU1,0.0,0.0,0.01,1.49,-0.88,9.54,-1.06,-6.25,-29.88,0.07,-0.06,0.93,0.35
37951,00:02:44,IMU2,0.0,0.0,0.0,0.65,-2.87,9.34,-18.5,-5.81,-22.5,-0.09,0.12,-0.89,0.43
37951,00:02:44,IMU3,0.0,0.0,0.0,-0.42,-0.92,9.58,-12.56,-32.0,-14.0,0.02,0.05,-0.99,0.16
37952,00:02:45,IMU1,-0.01,-0.01,0.0,1.49,-0.88,9.54,-1.06,-6.25,-29.88,0.07,-0.06,0.93,0.35
37952,00:02:45,IMU2,0.0,0.0,0.0,0.65,-2.87,9.34,-18.5,-5.81,-22.5,-0.09,0.12,-0.89,0.43
37952,00:02:45,IMU3,0.0,0.0,0.0,-0.42,-0.92,9.58,-12.56,-32.0,-14.0,0.02,0.05,-0.99,0.16
37953,00:02:47,IMU1,-0.01,-0.01,0.0,1.49,-0.88,9.54,-1.44,-5.12,-30.31,0.07,-0.06,0.93,0.35
37953,00:02:47,IMU2,0.0,0.0,0.0,0.65,-2.87,9.34,-18.5,-5.81,-22.5,-0.09,0.12,-0.89,0.43
37953,00:02:47,IMU3,0.0,0.0,0.0,-0.42,-0.92,9.58,-12.56,-32.0,-14.0,0.02,0.05,-0.99,0.16
37954,00:02:49,IMU1,0.0,0.0,-0.01,1.49,-0.88,9.54,-1.44,-5.12,-30.31,0.07,-0.06,0.93,0.35
37954,00:02:49,IMU2,0.0,0.0,0.0,0.65,-2.87,9.34,-18.5,-5.81,-22.5,-0.09,0.12,-0.89,0.43
37954,00:02:49,IMU3,0.0,0.0,0.0,-0.42,-0.92,9.58,-12.56,-32.0,-14.0,0.02,0.05,-0.99,0.16
37955,00:02:51,IMU1,0.0,0.0,0.0,1.49,-0.88,9.54,-1.44,-5.12,-30.31,0.07,-0.06,0.93,0.35
37955,00:02:51,IMU2,0.0,0.0,0.0,0.65,-2.87,9.34,-18.5,-5.81,-22.5,-0.09,0.12,-0.89,0.43
37955,00:02:51,IMU3,0.0,0.0,0.0,-0.42,-0.92,9.58,-12.56,-32.0,-14.0,0.02,0.05,-0.99,0.16
37956,00:02:52,IMU1,0.0,0.0,0.0,1.42,-0.88,9.54,-1.44,-5.12,-30.31,0.07,-0.06,0.93,0.35
37956,00:02:52,IMU2,0.0,0.0,0.0,0.69,-2.91,9.35,-18.5,-5.81,-22.5,-0.09,0.12,-0.89,0.43
37956,00:02:52,IMU3,0.0,0.0,0.0,-0.42,-0.92,9.58,-12.56,-32.0,-14.0,0.02,0.05,-0.99,0.16
37957,00:02:52,IMU1,0.0,0.0,0.0,1.42,-0.88,9.54,-1.44,-5.12,-30.31,0.07,-0.06,0.93,0.35
37957,00:02:52,IMU2,0.0,0.0,0.0,0.69,-2.91,9.35,-18.5,-5.81,-22.5,-0.09,0.12,-0.89,0.43
37957,00:02:52,IMU3,0.0,0.0,0.0,-0.42,-0.92,9.58,-11.88,-29.88,-15.56,0.02,0.05,-0.99,0.16
37958,00:02:52,IMU1,0.0,0.0,0.0,1.42,-0.88,9.54,-1.44,-5.12,-30.31,0.06,-0.07,0.93,0.35
37958,00:02:52,IMU2,0.0,0.0,0.0,0.69,-2.91,9.35,-18.5,-5.81,-22.5,-0.09,0.12,-0.89,0.43
37958,00:02:52,IMU3,0.0,0.0,0.0,-0.42,-0.92,9.58,-11.88,-29.88,-15.56,0.02,0.05,-0.99,0.16
37959,00:02:52,IMU1,0.0,0.0,0.0,1.42,-0.88,9.54,-1.44,-5.12,-30.31,0.06,-0.07,0.93,0.35
37959,00:02:52,IMU2,0.0,0.0,0.0,0.65,-2.87,9.34,-18.5,-5.81,-22.5,-0.09,0.12,-0.89,0.43
37959,00:02:52,IMU3,0.0,0.0,0.0,-0.42,-0.92,9.58,-11.88,-29.88,-15.56,0.02,0.05,-0.99,0.15
37960,00:02:52,IMU1,0.0,0.0,0.0,1.42,-0.88,9.54,-1.44,-5.12,-30.31,0.06,-0.07,0.93,0.35
37960,00:02:52,IMU2,0.0,0.0,0.0,0.65,-2.87,9.34,-18.5,-5.81,-22.5,-0.09,0.12,-0.89,0.43
37960,00:02:52,IMU3,0.0,0.0,0.0,-0.46,-0.92,9.54,-11.88,-29.88,-15.56,0.02,0.05,-0.99,0.15
37961,00:02:52,IMU1,0.0,0.0,0.0,1.42,-0.88,9.54,-1.44,-5.12,-30.31,0.06,-0.07,0.93,0.35
37961,00:02:52,IMU2,0.0,0.0,0.0,0.65,-2.87,9.34,-17.81,-6.5,-28.31,-0.09,0.12,-0.89,0.43
37961,00:02:52,IMU3,0.0,0.0,0.0,-0.46,-0.92,9.54,-12.56,-32.38,-17.12,0.02,0.05,-0.99,0.15
37962,00:02:52,IMU1,0.0,0.0,0.0,1.42,-0.88,9.54,-1.44,-5.12,-30.31,0.06,-0.07,0.93,0.35
37962,00:02:52,IMU2,0.0,0.0,0.0,0.65,-2.87,9.34,-17.81,-6.5,-28.31,-0.09,0.12,-0.89,0.43
37962,00:02:52,IMU3,0.0,0.0,0.0,-0.46,-0.92,9.54,-12.56,-32.38,-17.12,0.02,0.05,-0.99,0.15
37963,00:02:52,IMU1,0.0,0.0,0.0,1.49,-0.88,9.5,-1.44,-5.12,-30.31,0.06,-0.07,0.93,0.35
37963,00:02:52,IMU2,0.0,0.0,0.0,0.65,-2.87,9.34,-17.81,-6.5,-28.31,-0.09,0.12,-0.89,0.43
37963,00:02:52,IMU3,0.0,0.0,0.0,-0.46,-0.92,9.54,-12.56,-32.38,-17.12,0.02,0.05,-0.99,0.15
37964,00:02:52,IMU1,0.0,0.0,0.0,1.49,-0.88,9.5,-0.31,-7.38,-28.69,0.06,-0.07,0.93,0.35
37964,00:02:52,IMU2,0.0,0.0,0.0,0.65,-2.87,9.34,-17.81,-6.5,-28.31,-0.09,0.12,-0.89,0.43
37964,00:02:52,IMU3,0.0,0.0,0.0,-0.42,-0.96,9.58,-12.56,-32.38,-17.12,0.02,0.05,-0.99,0.15
37965,00:02:52,IMU1,0.0,0.0,0.0,1.49,-0.88,9.5,-0.31,-7.38,-28.69,0.06,-0.07,0.93,0.35
37965,00:02:52,IMU2,0.0,0.0,0.0,0.61,-2.87,9.34,-17.81,-6.5,-28.31,-0.09,0.12,-0.89,0.43
37965,00:02:52,IMU3,0.0,0.0,0.0,-0.42,-0.96,9.58,-12.19,-32.0,-16.31,0.02,0.05,-0.99,0.15
37966,00:02:52,IMU1,0.0,0.0,0.0,1.49,-0.88,9.5,-0.31,-7.38,-28.69,0.06,-0.07,0.93,0.35
37966,00:02:52,IMU2,0.0,0.0,0.0,0.61,-2.87,9.34,-17.81,-4.31,-22.88,-0.09,0.12,-0.89,0.43
37966,00:02:52,IMU3,0.0,0.0,0.0,-0.42,-0.96,9.58,-12.19,-32.0,-16.31,0.02,0.05,-0.99,0.15
37967,00:02:52,IMU1,0.0,0.0,0.0,1.49,-0.88,9.5,-0.31,-7.38,-28.69,0.06,-0.07,0.93,0.35
37967,00:02:52,IMU2,0.0,0.0,0.0,0.61,-2.87,9.34,-17.81,-4.31,-22.88,-0.09,0.12,-0.89,0.43
37967,00:02:52,IMU3,0.0,0.0,0.0,-0.42,-0.96,9.58,-12.19,-32.0,-16.31,0.02,0.05,-0.99,0.15
37968,00:02:52,IMU1,0.0,0.0,0.0,1.49,-0.88,9.5,-0.31,-7.38,-28.69,0.06,-0.07,0.93,0.35
37968,00:02:52,IMU2,0.0,0.0,0.0,0.61,-2.87,9.34,-17.81,-4.31,-22.88,-0.09,0.12,-0.89,0.43
37968,00:02:52,IMU3,0.0,0.0,0.0,-0.42,-0.96,9.58,-12.19,-32.0,-16.31,0.02,0.05,-0.99,0.15
37969,00:02:52,IMU1,0.0,0.0,0.0,1.46,-0.92,9.5,-0.31,-7.38,-28.69,0.06,-0.07,0.93,0.35
37969,00:02:52,IMU2,0.0,0.0,0.0,0.61,-2.87,9.34,-17.81,-4.31,-22.88,-0.09,0.12,-0.89,0.43
37969,00:02:52,IMU3,0.0,0.0,0.0,-0.42,-0.96,9.58,-12.19,-32.0,-16.31,0.02,0.05,-0.99,0.15
37970,00:02:52,IMU1,0.0,0.0,0.0,1.46,-0.92,9.5,-0.31,-7.38,-28.69,0.06,-0.07,0.93,0.35
37970,00:02:52,IMU2,0.0,0.0,0.0,0.61,-2.87,9.34,-17.81,-4.31,-22.88,-0.09,0.12,-0.89,0.43
37970,00:02:52,IMU3,0.0,0.0,0.0,-0.42,-0.96,9.58,-12.19,-32.0,-16.31,0.02,0.05,-0.99,0.15
37971,00:02:52,IMU1,0.0,0.0,0.0,1.46,-0.92,9.5,-1.81,-5.12,-32.62,0.06,-0.07,0.93,0.35
37971,00:02:52,IMU2,0.0,0.0,0.0,0.61,-2.87,9.34,-17.81,-4.31,-22.88,-0.09,0.12,-0.89,0.43
37971,00:02:52,IMU3,0.0,0.0,0.0,-0.42,-0.92,9.65,-12.19,-32.0,-16.31,0.02,0.05,-0.99,0.15
37972,00:02:52,IMU1,0.0,0.0,0.0,1.46,-0.92,9.5,-1.81,-5.12,-32.62,0.06,-0.07,0.93,0.35
37972,00:02:52,IMU2,0.0,0.0,0.0,0.61,-2.87,9.34,-17.81,-4.31,-22.88,-0.09,0.12,-0.89,0.43
37972,00:02:52,IMU3,0.0,0.0,0.0,-0.42,-0.92,9.65,-12.56,-32.75,-13.62,0.02,0.05,-0.99,0.15
37973,00:02:52,IMU1,0.0,0.0,0.0,1.46,-0.92,9.5,-1.81,-5.12,-32.62,0.06,-0.07,0.93,0.35
37973,00:02:52,IMU2,0.0,0.0,0.0,0.65,-2.87,9.34,-17.81,-4.31,-22.88,-0.09,0.12,-0.89,0.43
37973,00:02:52,IMU3,0.0,-0.01,0.0,-0.42,-0.92,9.65,-12.56,-32.75,-13.62,0.02,0.05,-0.99,0.15
37974,00:02:52,IMU1,0.0,0.0,0.0,1.46,-0.92,9.5,-1.81,-5.12,-32.62,0.06,-0.07,0.93,0.35
37974,00:02:52,IMU2,0.0,0.0,0.0,0.65,-2.87,9.34,-18.19,-7.62,-27.56,-0.09,0.12,-0.89,0.43
37974,00:02:52,IMU3,0.0,-0.01,0.0,-0.42,-0.92,9.65,-12.56,-32.75,-13.62,0.02,0.05,-0.99,0.15
37975,00:02:52,IMU1,0.0,0.0,0.0,1.46,-0.92,9.5,-1.81,-5.12,-32.62,0.06,-0.07,0.93,0.35
37975,00:02:52,IMU2,0.0,0.0,0.0,0.65,-2.87,9.34,-18.19,-7.62,-27.56,-0.09,0.12,-0.89,0.43
37975,00:02:52,IMU3,0.0,-0.01,0.0,-0.42,-0.96,9.61,-12.56,-32.75,-13.62,0.02,0.05,-0.99,0.15
37976,00:02:52,IMU1,0.0,0.0,0.0,1.46,-0.92,9.5,-1.81,-5.12,-32.62,0.06,-0.07,0.93,0.35
37976,00:02:52,IMU2,0.0,0.0,0.0,0.65,-2.87,9.34,-18.19,-7.62,-27.56,-0.09,0.12,-0.89,0.43
37976,00:02:52,IMU3,0.0,-0.01,0.0,-0.42,-0.96,9.61,-12.56,-32.75,-13.62,0.02,0.05,-0.99,0.15
37977,00:02:52,IMU1,0.0,0.0,0.0,1.46,-0.92,9.5,-1.81,-5.12,-32.62,0.06,-0.07,0.93,0.35
37977,00:02:52,IMU2,0.0,0.0,0.0,0.65,-2.87,9.34,-18.19,-7.62,-27.56,-0.09,0.12,-0.89,0.43
37977,00:02:52,IMU3,0.0,0.0,0.0,-0.42,-0.96,9.61,-12.56,-32.75,-13.62,0.02,0.05,-0.99,0.15
37978,00:02:52,IMU1,0.0,0.0,0.0,1.46,-0.92,9.5,-1.81,-5.12,-32.62,0.06,-0.07,0.93,0.35
37978,00:02:52,IMU2,0.0,0.0,0.0,0.65,-2.87,9.34,-18.19,-7.62,-27.56,-0.09,0.12,-0.89,0.43
37978,00:02:52,IMU3,0.0,0.0,0.0,-0.42,-0.96,9.61,-12.56,-32.75,-13.62,0.02,0.05,-0.99,0.15
37979,00:02:52,IMU1,0.0,0.0,0.0,1.46,-0.88,9.5,-1.81,-5.12,-32.62,0.06,-0.07,0.93,0.35
37979,00:02:52,IMU2,0.0,0.0,0.0,0.65,-2.87,9.34,-18.19,-7.62,-27.56,-0.09,0.12,-0.89,0.43
37979,00:02:52,IMU3,-0.01,0.0,0.0,-0.42,-0.96,9.61,-12.56,-32.75,-13.62,0.02,0.05,-0.99,0.15
37980,00:02:52,IMU1,0.0,0.0,0.0,1.46,-0.88,9.5,-2.19,-7.38,-28.25,0.06,-0.07,0.93,0.35
37980,00:02:52,IMU2,0.0,0.0,0.0,0.65,-2.87,9.34,-18.19,-7.62,-27.56,-0.09,0.12,-0.89,0.43
37980,00:02:52,IMU3,-0.01,0.0,0.0,-0.42,-0.96,9.61,-12.56,-32.75,-13.62,0.02,0.05,-0.99,0.15
37981,00:02:52,IMU1,0.0,0.0,0.0,1.46,-0.88,9.5,-2.19,-7.38,-28.25,0.06,-0.07,0.93,0.35
37981,00:02:52,IMU2,0.0,0.0,0.0,0.65,-2.87,9.43,-18.19,-7.62,-27.56,-0.09,0.12,-0.89,0.43
37981,00:02:52,IMU3,0.0,0.0,0.0,-0.42,-0.96,9.61,-12.56,-32.75,-13.62,0.02,0.05,-0.99,0.15
37982,00:02:52,IMU1,0.0,0.0,0.0,1.46,-0.88,9.5,-2.19,-7.38,-28.25,0.06,-0.07,0.93,0.35
37982,00:02:52,IMU2,0.0,0.0,0.0,0.65,-2.87,9.43,-18.19,-7.62,-27.56,-0.09,0.12,-0.89,0.43
37982,00:02:52,IMU3,0.0,0.0,0.0,-0.42,-0.96,9.61,-12.56,-32.75,-13.62,0.02,0.05,-0.99,0.15
37983,00:02:52,IMU1,0.0,0.0,0.0,1.46,-0.88,9.5,-2.19,-7.38,-28.25,0.06,-0.07,0.93,0.35
37983,00:02:52,IMU2,0.0,0.0,0.0,0.65,-2.87,9.43,-18.19,-7.62,-27.56,-0.09,0.12,-0.89,0.43
37983,00:02:52,IMU3,0.01,0.01,0.0,-0.42,-0.96,9.61,-12.56,-32.75,-13.62,0.02,0.05,-0.99,0.15
37984,00:02:52,IMU1,0.0,0.0,0.0,1.46,-0.88,9.5,-2.19,-7.38,-28.25,0.06,-0.07,0.93,0.35
37984,00:02:52,IMU2,0.0,0.0,0.0,0.65,-2.87,9.43,-18.19,-7.62,-27.56,-0.09,0.12,-0.89,0.43
37984,00:02:52,IMU3,0.01,0.01,0.0,-0.42,-0.96,9.61,-12.56,-32.75,-13.62,0.02,0.05,-0.99,0.15
37985,00:02:52,IMU1,0.0,0.0,0.0,1.46,-0.88,9.54,-2.19,-7.38,-28.25,0.06,-0.07,0.93,0.35
37985,00:02:52,IMU2,0.0,0.0,0.0,0.61,-2.91,9.34,-18.19,-7.62,-27.56,-0.09,0.12,-0.89,0.43
37985,00:02:52,IMU3,0.0,0.0,0.0,-0.42,-0.96,9.61,-12.56,-32.75,-13.62,0.02,0.05,-0.99,0.15
37986,00:02:52,IMU1,0.0,0.0,0.0,1.46,-0.88,9.54,-1.44,-8.12,-29.06,0.06,-0.07,0.93,0.35
37986,00:02:52,IMU2,0.0,0.0,0.0,0.61,-2.91,9.34,-19.25,-7.25,-23.69,-0.09,0.12,-0.89,0.43
37986,00:02:52,IMU3,0.0,0.0,0.0,-0.42,-0.96,9.61,-12.56,-32.75,-13.62,0.02,0.05,-0.99,0.15
37987,00:02:52,IMU1,0.0,0.0,0.0,1.46,-0.88,9.54,-1.44,-8.12,-29.06,0.06,-0.07,0.93,0.35
37987,00:02:52,IMU2,0.0,0.0,0.0,0.61,-2.91,9.34,-19.25,-7.25,-23.69,-0.09,0.12,-0.89,0.43
37987,00:02:52,IMU3,0.0,0.0,0.0,-0.42,-0.92,9.61,-12.56,-32.75,-13.62,0.02,0.05,-0.99,0.15
37988,00:02:52,IMU1,0.0,0.0,0.0,1.46,-0.88,9.54,-1.44,-8.12,-29.06,0.06,-0.07,0.93,0.35
37988,00:02:52,IMU2,0.0,0.0,0.0,0.61,-2.91,9.34,-19.25,-7.25,-23.69,-0.09,0.12,-0.89,0.43
37988,00:02:52,IMU3,0.0,0.0,0.0,-0.42,-0.92,9.61,-12.56,-32.75,-13.62,0.02,0.05,-0.99,0.15
37989,00:02:52,IMU1,0.0,0.0,0.0,1.46,-0.88,9.54,-1.44,-8.12,-29.06,0.06,-0.07,0.93,0.35
37989,00:02:52,IMU2,0.0,0.0,0.0,0.61,-2.91,9.34,-19.25,-7.25,-23.69,-0.09,0.12,-0.89,0.43
37989,00:02:52,IMU3,0.0,0.0,0.0,-0.42,-0.92,9.61,-12.94,-34.56,-15.94,0.02,0.05,-0.99,0.15
37990,00:02:52,IMU1,0.0,0.0,0.0,1.46,-0.88,9.54,-1.44,-8.12,-29.06,0.06,-0.07,0.93,0.35
37990,00:02:52,IMU2,0.0,0.0,0.0,0.61,-2.91,9.34,-19.25,-7.25,-23.69,-0.09,0.12,-0.89,0.43
37990,00:02:52,IMU3,0.0,0.0,0.0,-0.42,-0.92,9.61,-12.94,-34.56,-15.94,0.02,0.05,-0.99,0.15
37991,00:02:52,IMU1,0.0,0.0,0.0,1.46,-0.88,9.5,-1.44,-8.12,-29.06,0.06,-0.07,0.93,0.35
37991,00:02:52,IMU2,0.0,0.0,0.0,0.65,-2.91,9.34,-19.25,-7.25,-23.69,-0.09,0.12,-0.89,0.43
37991,00:02:52,IMU3,0.0,0.0,0.0,-0.42,-0.92,9.61,-12.94,-34.56,-15.94,0.02,0.05,-0.99,0.15
37992,00:02:52,IMU1,0.0,0.0,0.0,1.46,-0.88,9.5,-1.44,-6.62,-33.06,0.06,-0.07,0.93,0.35
37992,00:02:52,IMU2,0.0,0.0,0.0,0.65,-2.91,9.34,-16.69,-2.88,-26.38,-0.09,0.12,-0.89,0.43
37992,00:02:52,IMU3,0.0,0.0,0.0,-0.42,-0.92,9.61,-12.94,-34.56,-15.94,0.02,0.05,-0.99,0.15
37993,00:02:52,IMU1,0.0,0.0,0.0,1.46,-0.88,9.5,-1.44,-6.62,-33.06,0.06,-0.07,0.93,0.35
37993,00:02:52,IMU2,0.0,0.0,0.0,0.65,-2.91,9.34,-16.69,-2.88,-26.38,-0.09,0.12,-0.89,0.43
37993,00:02:52,IMU3,0.0,0.0,0.0,-0.42,-0.96,9.54,-12.94,-34.56,-15.94,0.02,0.05,-0.99,0.15
37994,00:02:52,IMU1,0.0,0.0,0.0,1.46,-0.88,9.5,-1.44,-6.62,-33.06,0.06,-0.07,0.93,0.35
37994,00:02:52,IMU2,0.0,0.0,0.0,0.65,-2.91,9.34,-16.69,-2.88,-26.38,-0.09,0.12,-0.89,0.43
37994,00:02:52,IMU3,0.0,0.0,0.0,-0.42,-0.96,9.54,-11.88,-28.81,-15.56,0.02,0.05,-0.99,0.15
37995,00:02:52,IMU1,0.0,0.0,0.0,1.49,-0.88,9.54,-1.44,-6.62,-33.06,0.06,-0.07,0.93,0.35
37995,00:02:52,IMU2,0.0,0.0,0.0,0.65,-2.91,9.34,-16.69,-2.88,-26.38,-0.09,0.12,-0.89,0.43
37995,00:02:52,IMU3,0.0,0.0,0.0,-0.42,-0.96,9.54,-11.88,-28.81,-15.56,0.02,0.05,-0.99,0.15
37996,00:02:52,IMU1,0.0,0.0,0.0,1.49,-0.88,9.54,-1.44,-6.62,-33.06,0.06,-0.07,0.93,0.35
37996,00:02:52,IMU2,0.0,0.0,0.0,0.65,-2.91,9.34,-16.69,-2.88,-26.38,-0.09,0.12,-0.89,0.43
37996,00:02:52,IMU3,0.0,0.0,0.0,-0.42,-0.96,9.54,-11.88,-28.81,-15.56,0.02,0.05,-0.99,0.15
37997,00:02:52,IMU1,0.0,0.0,0.0,1.49,-0.88,9.54,-2.56,-5.88,-29.44,0.06,-0.07,0.93,0.35
37997,00:02:52,IMU2,0.0,0.0,0.0,0.65,-2.87,9.34,-16.69,-2.88,-26.38,-0.09,0.12,-0.89,0.43
37997,00:02:52,IMU3,0.0,0.0,0.0,-0.42,-0.96,9.54,-11.88,-28.81,-15.56,0.02,0.05,-0.99,0.15
37998,00:02:52,IMU1,0.0,0.0,0.0,1.49,-0.88,9.54,-2.56,-5.88,-29.44,0.06,-0.07,0.93,0.35
37998,00:02:52,IMU2,0.0,0.0,0.0,0.65,-2.87,9.34,-18.19,-5.06,-23.25,-0.09,0.12,-0.89,0.43
37998,00:02:52,IMU3,0.0,0.0,0.0,-0.42,-0.96,9.54,-11.88,-28.81,-15.56,0.02,0.05,-0.99,0.15
37999,00:02:52,IMU1,0.0,0.0,0.0,1.49,-0.88,9.54,-2.56,-5.88,-29.44,0.06,-0.07,0.93,0.35
37999,00:02:52,IMU2,0.0,0.0,0.0,0.65,-2.87,9.34,-18.19,-5.06,-23.25,-0.09,0.12,-0.89,0.43
37999,00:02:52,IMU3,0.0,0.0,0.0,-0.42,-0.96,9.54,-11.88,-28.81,-15.56,0.02,0.05,-0.99,0.15
38000,00:02:52,IMU1,0.0,0.0,0.0,1.49,-0.88,9.54,-2.56,-5.88,-29.44,0.06,-0.07,0.93,0.35
38000,00:02:52,IMU2,0.0,0.0,0.0,0.65,-2.87,9.34,-18.19,-5.06,-23.25,-0.09,0.12,-0.89,0.43
38000,00:02:52,IMU3,0.0,0.0,0.0,-0.42,-0.96,9.54,-11.88,-28.81,-15.56,0.02,0.05,-0.99,0.15
38001,00:02:52,IMU1,0.0,0.0,0.0,1.46,-0.88,9.54,-2.56,-5.88,-29.44,0.06,-0.07,0.93,0.35
38001,00:02:52,IMU2,0.0,0.0,0.0,0.65,-2.87,9.34,-18.19,-5.06,-23.25,-0.09,0.12,-0.89,0.43
38001,00:02:52,IMU3,0.0,0.0,0.0,-0.42,-0.96,9.54,-11.88,-28.81,-15.56,0.02,0.05,-0.99,0.15
38002,00:02:52,IMU1,0.0,0.0,0.0,1.46,-0.88,9.54,-1.06,-5.12,-31.44,0.06,-0.07,0.93,0.35
38002,00:02:52,IMU2,0.0,0.0,0.0,0.65,-2.87,9.34,-18.19,-5.06,-23.25,-0.09,0.12,-0.89,0.43
38002,00:02:52,IMU3,0.0,0.0,0.0,-0.42,-0.96,9.54,-11.88,-28.81,-15.56,0.02,0.05,-0.99,0.15
38003,00:02:52,IMU1,0.0,0.0,0.0,1.46,-0.88,9.54,-1.06,-5.12,-31.44,0.06,-0.07,0.93,0.35
38003,00:02:52,IMU2,0.0,0.0,0.0,0.65,-2.87,9.34,-18.19,-5.06,-23.25,-0.09,0.12,-0.89,0.43
38003,00:02:52,IMU3,0.0,0.0,0.0,-0.46,-0.92,9.58,-11.88,-28.81,-15.56,0.02,0.05,-0.99,0.15
38004,00:02:52,IMU1,0.0,0.0,0.0,1.46,-0.88,9.54,-1.06,-5.12,-31.44,0.06,-0.07,0.93,0.35
38004,00:02:52,IMU2,0.0,0.0,0.0,0.65,-2.87,9.34,-18.19,-5.06,-23.25,-0.09,0.12,-0.89,0.43
38004,00:02:52,IMU3,0.0,0.0,0.0,-0.46,-0.92,9.58,-11.88,-28.81,-15.56,0.02,0.05,-0.99,0.15
38005,00:02:52,IMU1,0.0,0.0,0.0,1.46,-0.88,9.54,-1.06,-5.12,-31.44,0.06,-0.07,0.93,0.35
38005,00:02:52,IMU2,0.0,0.0,0.0,0.65,-2.84,9.43,-18.19,-5.06,-23.25,-0.09,0.12,-0.89,0.43
38005,00:02:52,IMU3,0.0,0.0,0.0,-0.46,-0.92,9.58,-11.12,-29.5,-15.56,0.02,0.05,-0.99,0.15
38006,00:02:52,IMU1,0.0,0.0,0.0,1.46,-0.88,9.54,-1.06,-5.12,-31.44,0.06,-0.07,0.93,0.35
38006,00:02:52,IMU2,0.0,0.0,0.0,0.65,-2.84,9.43,-16.0,-3.62,-26.38,-0.09,0.12,-0.89,0.43
38006,00:02:52,IMU3,0.0,0.0,0.0,-0.46,-0.92,9.58,-11.12,-29.5,-15.56,0.02,0.05,-0.99,0.15
38007,00:02:52,IMU1,0.0,0.0,0.0,1.49,-0.92,9.54,-1.06,-5.12,-31.44,0.06,-0.07,0.93,0.35
38007,00:02:52,IMU2,0.0,0.0,0.0,0.65,-2.84,9.43,-16.0,-3.62,-26.38,-0.09,0.12,-0.89,0.43
38007,00:02:52,IMU3,0.0,0.0,0.0,-0.46,-0.92,9.58,-11.12,-29.5,-15.56,0.02,0.05,-0.99,0.15
38008,00:02:52,IMU1,0.0,0.0,0.0,1.49,-0.92,9.54,-1.81,-9.19,-32.62,0.06,-0.07,0.93,0.35
38008,00:02:52,IMU2,0.0,0.0,0.0,0.65,-2.84,9.43,-16.0,-3.62,-26.38,-0.09,0.12,-0.89,0.43
38008,00:02:52,IMU3,0.0,0.0,0.0,-0.46,-0.92,9.58,-11.12,-29.5,-15.56,0.02,0.05,-0.99,0.15
38009,00:02:52,IMU1,0.0,0.0,0.0,1.49,-0.92,9.54,-1.81,-9.19,-32.62,0.06,-0.07,0.93,0.35
38009,00:02:52,IMU2,0.0,0.0,0.0,0.61,-2.87,9.34,-16.0,-3.62,-26.38,-0.09,0.12,-0.89,0.43
38009,00:02:52,IMU3,0.0,0.0,0.01,-0.46,-0.92,9.58,-11.12,-29.5,-15.56,0.02,0.05,-0.99,0.15
38010,00:02:52,IMU1,0.0,0.0,0.0,1.49,-0.92,9.54,-1.81,-9.19,-32.62,0.06,-0.07,0.93,0.35
38010,00:02:52,IMU2,0.0,0.0,0.0,0.61,-2.87,9.34,-17.81,-6.12,-28.31,-0.09,0.12,-0.89,0.43
38010,00:02:52,IMU3,0.0,0.0,0.01,-0.46,-0.92,9.58,-11.12,-29.5,-15.56,0.02,0.05,-0.99,0.15
38011,00:02:52,IMU1,0.0,0.0,0.0,1.49,-0.92,9.54,-1.81,-9.19,-32.62,0.06,-0.07,0.93,0.35
38011,00:02:52,IMU2,0.0,0.0,0.0,0.61,-2.87,9.34,-17.81,-6.12,-28.31,-0.09,0.12,-0.89,0.43
38011,00:02:52,IMU3,0.0,0.0,0.01,-0.46,-0.92,9.54,-11.12,-29.5,-15.56,0.02,0.05,-0.99,0.15
38012,00:02:52,IMU1,0.0,0.0,0.0,1.49,-0.92,9.54,-1.81,-9.19,-32.62,0.06,-0.07,0.93,0.35
38012,00:02:52,IMU2,0.0,0.0,0.0,0.61,-2.87,9.34,-17.81,-6.12,-28.31,-0.09,0.12,-0.89,0.43
38012,00:02:52,IMU3,0.0,0.0,0.01,-0.46,-0.92,9.54,-12.19,-32.75,-16.75,0.02,0.05,-0.99,0.15
38013,00:02:52,IMU1,0.0,0.0,0.0,1.49,-0.92,9.54,-1.81,-9.19,-32.62,0.06,-0.07,0.93,0.35
38013,00:02:52,IMU2,0.0,0.0,0.0,0.61,-2.87,9.34,-17.81,-6.12,-28.31,-0.09,0.12,-0.89,0.43
38013,00:02:52,IMU3,0.0,0.0,0.0,-0.46,-0.92,9.54,-12.19,-32.75,-16.75,0.02,0.05,-0.99,0.15
38014,00:02:52,IMU1,0.0,0.0,0.0,1.49,-0.92,9.54,-1.81,-9.19,-32.62,0.06,-0.07,0.93,0.35
38014,00:02:52,IMU2,0.0,0.0,0.0,0.61,-2.87,9.34,-17.81,-6.12,-28.31,-0.09,0.12,-0.89,0.43
38014,00:02:52,IMU3,0.0,0.0,0.0,-0.46,-0.92,9.54,-12.19,-32.75,-16.75,0.02,0.05,-0.99,0.15
38015,00:02:52,IMU1,0.0,0.0,0.0,1.49,-0.88,9.5,-1.81,-9.19,-32.62,0.06,-0.07,0.93,0.35
38015,00:02:52,IMU2,0.0,0.0,0.0,0.61,-2.87,9.34,-17.81,-6.12,-28.31,-0.09,0.12,-0.89,0.43
38015,00:02:52,IMU3,0.0,0.0,0.0,-0.46,-0.92,9.54,-12.19,-32.75,-16.75,0.02,0.05,-0.99,0.15
38016,00:02:52,IMU1,0.0,0.0,0.0,1.49,-0.88,9.5,-1.06,-9.19,-31.06,0.06,-0.07,0.93,0.35
38016,00:02:52,IMU2,0.0,0.0,0.0,0.61,-2.87,9.34,-17.81,-6.12,-28.31,-0.09,0.12,-0.89,0.43
38016,00:02:52,IMU3,0.0,0.0,0.0,-0.46,-0.92,9.54,-12.19,-32.75,-16.75,0.02,0.05,-0.99,0.15
38017,00:02:52,IMU1,0.0,0.0,0.0,1.49,-0.88,9.5,-1.06,-9.19,-31.06,0.06,-0.07,0.93,0.35
38017,00:02:52,IMU2,0.0,0.0,0.0,0.65,-2.87,9.34,-17.81,-6.12,-28.31,-0.09,0.12,-0.89,0.43
38017,00:02:52,IMU3,0.0,0.0,0.0,-0.46,-0.92,9.54,-12.19,-32.75,-16.75,0.02,0.05,-0.99,0.15
38018,00:02:52,IMU1,0.0,0.0,0.0,1.49,-0.88,9.5,-1.06,-9.19,-31.06,0.06,-0.07,0.93,0.35
38018,00:02:52,IMU2,0.0,0.0,0.0,0.65,-2.87,9.34,-17.06,-5.06,-27.56,-0.09,0.12,-0.89,0.43
38018,00:02:52,IMU3,0.0,0.0,0.0,-0.46,-0.92,9.54,-12.19,-32.75,-16.75,0.02,0.05,-0.99,0.15
38019,00:02:52,IMU1,0.0,0.0,0.0,1.49,-0.88,9.5,-1.06,-9.19,-31.06,0.06,-0.07,0.93,0.35
38019,00:02:52,IMU2,0.0,0.0,0.0,0.65,-2.87,9.34,-17.06,-5.06,-27.56,-0.09,0.12,-0.89,0.43
38019,00:02:52,IMU3,0.0,0.0,0.0,-0.46,-0.92,9.54,-12.19,-32.75,-16.75,0.02,0.05,-0.99,0.15
38020,00:02:52,IMU1,0.0,0.0,0.0,1.49,-0.88,9.5,-1.06,-9.19,-31.06,0.06,-0.07,0.93,0.35
38020,00:02:52,IMU2,0.0,0.0,0.0,0.65,-2.87,9.34,-17.06,-5.06,-27.56,-0.09,0.12,-0.89,0.43
38020,00:02:52,IMU3,0.0,0.0,0.0,-0.46,-0.92,9.54,-12.19,-32.75,-16.75,0.02,0.05,-0.99,0.15
38021,00:02:52,IMU1,0.0,0.0,0.0,1.49,-0.92,9.5,-1.06,-9.19,-31.06,0.06,-0.07,0.93,0.35
38021,00:02:52,IMU2,0.0,0.0,0.0,0.65,-2.87,9.34,-17.06,-5.06,-27.56,-0.09,0.12,-0.89,0.43
38021,00:02:52,IMU3,0.0,0.0,0.0,-0.42,-0.96,9.61,-12.19,-32.75,-16.75,0.02,0.05,-0.99,0.15
38022,00:02:52,IMU1,0.0,0.0,0.0,1.49,-0.92,9.5,-2.19,-6.25,-29.88,0.06,-0.07,0.93,0.35
38022,00:02:52,IMU2,0.0,0.0,0.0,0.65,-2.87,9.34,-17.06,-5.06,-27.56,-0.09,0.12,-0.89,0.43
38022,00:02:52,IMU3,0.0,0.0,0.0,-0.42,-0.96,9.61,-14.75,-34.56,-14.44,0.02,0.05,-0.99,0.15
38023,00:02:52,IMU1,0.0,0.0,0.0,1.49,-0.92,9.5,-2.19,-6.25,-29.88,0.06,-0.07,0.93,0.35
38023,00:02:52,IMU2,0.0,0.0,0.0,0.65,-2.87,9.34,-17.06,-5.06,-27.56,-0.09,0.12,-0.89,0.43
38023,00:02:52,IMU3,0.0,0.0,0.0,-0.42,-0.96,9.61,-14.75,-34.56,-14.44,0.02,0.05,-0.99,0.15
38024,00:02:52,IMU1,0.0,0.0,0.0,1.49,-0.92,9.5,-2.19,-6.25,-29.88,0.06,-0.07,0.93,0.35
38024,00:02:52,IMU2,0.0,0.0,0.0,0.65,-2.87,9.34,-18.5,-6.5,-27.56,-0.09,0.12,-0.89,0.43
38024,00:02:52,IMU3,0.0,0.0,0.0,-0.42,-0.96,9.61,-14.75,-34.56,-14.44,0.02,0.05,-0.99,0.15
38025,00:02:52,IMU1,0.0,0.0,0.0,1.49,-0.88,9.5,-2.19,-6.25,-29.88,0.06,-0.07,0.93,0.35
38025,00:02:52,IMU2,0.0,0.0,0.0,0.65,-2.87,9.34,-18.5,-6.5,-27.56,-0.09,0.12,-0.89,0.43
38025,00:02:52,IMU3,0.0,0.0,0.0,-0.42,-0.96,9.61,-14.75,-34.56,-14.44,0.02,0.05,-0.99,0.15
38026,00:02:52,IMU1,0.0,0.0,0.0,1.49,-0.88,9.5,-1.44,-8.88,-32.62,0.06,-0.07,0.93,0.35
38026,00:02:52,IMU2,0.0,0.0,0.0,0.65,-2.87,9.34,-18.5,-6.5,-27.56,-0.09,0.12,-0.89,0.43
38026,00:02:52,IMU3,0.0,0.0,0.0,-0.42,-0.96,9.61,-14.75,-34.56,-14.44,0.02,0.05,-0.99,0.15
38027,00:02:52,IMU1,0.0,0.0,0.0,1.49,-0.88,9.5,-1.44,-8.88,-32.62,0.06,-0.07,0.93,0.35
38027,00:02:52,IMU2,0.0,0.0,0.0,0.65,-2.87,9.34,-18.5,-6.5,-27.56,-0.09,0.12,-0.89,0.43
38027,00:02:52,IMU3,0.0,0.0,0.0,-0.46,-0.92,9.61,-14.75,-34.56,-14.44,0.02,0.05,-0.99,0.15
38028,00:02:52,IMU1,0.0,0.0,0.0,1.49,-0.88,9.5,-1.44,-8.88,-32.62,0.06,-0.07,0.93,0.35
38028,00:02:52,IMU2,0.0,0.0,0.0,0.65,-2.87,9.34,-18.5,-6.5,-27.56,-0.09,0.12,-0.89,0.43
38028,00:02:52,IMU3,0.0,0.0,0.0,-0.46,-0.92,9.61,-14.75,-34.56,-14.44,0.02,0.05,-0.99,0.15
38029,00:02:52,IMU1,0.0,0.0,0.0,1.49,-0.88,9.5,-1.44,-8.88,-32.62,0.06,-0.07,0.93,0.35
38029,00:02:52,IMU2,0.0,0.0,0.0,0.65,-2.87,9.34,-18.5,-6.5,-27.56,-0.09,0.12,-0.89,0.43
38029,00:02:52,IMU3,0.0,0.0,0.0,-0.46,-0.92,9.61,-12.56,-33.44,-17.12,0.02,0.05,-0.99,0.15
38030,00:02:52,IMU1,0.0,0.0,0.0,1.49,-0.88,9.5,-1.44,-8.88,-32.62,0.06,-0.07,0.93,0.35
38030,00:02:52,IMU2,0.0,0.0,0.0,0.65,-2.87,9.34,-18.5,-6.5,-27.56,-0.09,0.12,-0.89,0.43
38030,00:02:52,IMU3,0.0,0.0,0.0,-0.46,-0.92,9.61,-12.56,-33.44,-17.12,0.02,0.05,-0.99,0.15
38031,00:02:52,IMU1,0.0,0.0,0.0,1.49,-0.88,9.5,-1.44,-8.88,-32.62,0.06,-0.07,0.93,0.35
38031,00:02:52,IMU2,0.0,0.0,0.0,0.61,-2.87,9.38,-18.5,-6.5,-27.56,-0.09,0.12,-0.89,0.43
38031,00:02:52,IMU3,-0.01,0.0,0.0,-0.46,-0.92,9.61,-12.56,-33.44,-17.12,0.02,0.05,-0.99,0.15
38032,00:02:52,IMU1,0.0,0.0,0.0,1.49,-0.88,9.5,-1.81,-5.12,-27.88,0.06,-0.07,0.93,0.35
38032,00:02:52,IMU2,0.0,0.0,0.0,0.61,-2.87,9.38,-18.5,-6.5,-27.56,-0.09,0.12,-0.89,0.43
38032,00:02:52,IMU3,-0.01,0.0,0.0,-0.46,-0.92,9.61,-12.56,-33.44,-17.12,0.02,0.05,-0.99,0.15
38033,00:02:52,IMU1,0.0,0.0,0.0,1.49,-0.88,9.5,-1.81,-5.12,-27.88,0.06,-0.07,0.93,0.35
38033,00:02:52,IMU2,0.0,0.0,0.0,0.61,-2.87,9.38,-18.19,-6.12,-23.69,-0.09,0.12,-0.89,0.43
38033,00:02:52,IMU3,0.0,0.0,0.0,-0.46,-0.92,9.61,-12.56,-33.44,-17.12,0.02,0.05,-0.99,0.15
38034,00:02:52,IMU1,0.0,0.0,0.0,1.49,-0.88,9.5,-1.81,-5.12,-27.88,0.06,-0.07,0.93,0.35
38034,00:02:52,IMU2,0.0,0.0,0.0,0.61,-2.87,9.38,-18.19,-6.12,-23.69,-0.09,0.12,-0.89,0.43
38034,00:02:52,IMU3,0.0,0.0,0.0,-0.46,-0.92,9.61,-12.56,-33.44,-17.12,0.02,0.05,-0.99,0.15
38035,00:02:52,IMU1,0.0,0.0,0.0,1.49,-0.88,9.5,-1.81,-5.12,-27.88,0.06,-0.07,0.93,0.35
38035,00:02:52,IMU2,0.0,0.0,0.0,0.61,-2.87,9.38,-18.19,-6.12,-23.69,-0.09,0.12,-0.89,0.43
38035,00:02:52,IMU3,0.0,0.0,0.0,-0.46,-0.96,9.61,-12.56,-33.44,-17.12,0.02,0.05,-0.99,0.15
38036,00:02:52,IMU1,0.0,0.0,0.0,1.49,-0.88,9.5,-1.81,-5.12,-27.88,0.06,-0.07,0.93,0.35
38036,00:02:52,IMU2,0.0,0.0,0.0,0.61,-2.87,9.38,-18.19,-6.12,-23.69,-0.09,0.12,-0.89,0.43
38036,00:02:52,IMU3,0.0,0.0,0.0,-0.46,-0.96,9.61,-12.56,-33.44,-17.12,0.02,0.05,-0.99,0.15
38037,00:02:53,IMU1,0.0,0.0,0.0,1.49,-0.88,9.5,-1.81,-5.12,-27.88,0.06,-0.07,0.93,0.35
38037,00:02:53,IMU2,0.0,0.0,0.0,0.61,-2.87,9.38,-18.19,-6.12,-23.69,-0.09,0.12,-0.89,0.43
38037,00:02:53,IMU3,0.0,0.0,0.0,-0.46,-0.96,9.61,-11.88,-29.88,-15.56,0.02,0.05,-0.99,0.15
38038,00:02:53,IMU1,0.0,0.0,0.0,1.49,-0.88,9.5,-1.81,-5.12,-27.88,0.06,-0.07,0.93,0.35
38038,00:02:53,IMU2,0.0,0.0,0.0,0.61,-2.87,9.38,-18.19,-6.12,-23.69,-0.09,0.12,-0.89,0.43
38038,00:02:53,IMU3,0.0,0.0,0.0,-0.46,-0.96,9.61,-11.88,-29.88,-15.56,0.02,0.05,-0.99,0.15
38039,00:02:53,IMU1,0.0,0.0,0.0,1.49,-0.92,9.54,-1.81,-5.12,-27.88,0.06,-0.07,0.93,0.35
38039,00:02:53,IMU2,0.0,0.0,0.0,0.61,-2.87,9.38,-18.19,-6.12,-23.69,-0.09,0.12,-0.89,0.43
38039,00:02:53,IMU3,0.0,0.0,0.0,-0.46,-0.96,9.61,-11.88,-29.88,-15.56,0.02,0.05,-0.99,0.15
38040,00:02:53,IMU1,0.0,0.0,0.0,1.49,-0.92,9.54,-1.06,-9.19,-31.06,0.06,-0.07,0.93,0.35
38040,00:02:53,IMU2,0.0,0.0,0.0,0.61,-2.87,9.38,-18.19,-6.12,-23.69,-0.09,0.12,-0.89,0.43
38040,00:02:53,IMU3,0.0,0.0,0.0,-0.46,-0.96,9.61,-11.88,-29.88,-15.56,0.02,0.05,-0.99,0.15
38041,00:02:53,IMU1,0.0,0.0,0.0,1.49,-0.92,9.54,-1.06,-9.19,-31.06,0.06,-0.07,0.93,0.35
38041,00:02:53,IMU2,0.0,0.0,0.0,0.61,-2.87,9.38,-18.19,-6.12,-23.69,-0.09,0.12,-0.89,0.43
38041,00:02:53,IMU3,-0.01,0.0,0.0,-0.46,-0.96,9.61,-11.88,-29.88,-15.56,0.02,0.05,-0.99,0.15
38042,00:02:53,IMU1,0.0,0.0,0.0,1.49,-0.92,9.54,-1.06,-9.19,-31.06,0.06,-0.07,0.93,0.35
38042,00:02:53,IMU2,0.0,0.0,0.0,0.61,-2.87,9.38,-18.19,-6.12,-23.69,-0.09,0.12,-0.89,0.43
38042,00:02:53,IMU3,-0.01,0.0,0.0,-0.46,-0.96,9.61,-11.88,-29.88,-15.56,0.02,0.05,-0.99,0.15
38043,00:02:53,IMU1,0.0,0.0,0.0,1.49,-0.92,9.54,-1.06,-9.19,-31.06,0.06,-0.07,0.93,0.35
38043,00:02:53,IMU2,0.0,0.0,0.0,0.69,-2.87,9.35,-18.19,-6.12,-23.69,-0.09,0.12,-0.89,0.43
38043,00:02:53,IMU3,0.0,0.0,0.0,-0.46,-0.96,9.61,-11.88,-29.88,-15.56,0.02,0.05,-0.99,0.15
38044,00:02:53,IMU1,0.0,0.0,0.0,1.49,-0.92,9.54,-1.06,-9.19,-31.06,0.06,-0.07,0.93,0.35
38044,00:02:53,IMU2,0.0,0.0,0.0,0.69,-2.87,9.35,-17.44,-4.0,-26.38,-0.09,0.12,-0.89,0.43
38044,00:02:53,IMU3,0.0,0.0,0.0,-0.46,-0.96,9.61,-11.88,-29.88,-15.56,0.02,0.05,-0.99,0.15
38045,00:02:53,IMU1,0.0,0.0,0.0,1.46,-0.88,9.5,-1.06,-9.19,-31.06,0.06,-0.07,0.93,0.35
38045,00:02:53,IMU2,0.0,0.0,0.0,0.69,-2.87,9.35,-17.44,-4.0,-26.38,-0.09,0.12,-0.89,0.43
38045,00:02:53,IMU3,0.0,0.0,0.0,-0.5,-0.88,9.58,-11.88,-29.88,-15.56,0.02,0.05,-0.99,0.15
38046,00:02:53,IMU1,0.0,0.0,0.0,1.46,-0.88,9.5,-1.81,-7.0,-29.88,0.06,-0.07,0.93,0.35
38046,00:02:53,IMU2,0.0,0.0,0.0,0.69,-2.87,9.35,-17.44,-4.0,-26.38,-0.09,0.12,-0.89,0.43
38046,00:02:53,IMU3,0.0,0.0,0.0,-0.5,-0.88,9.58,-11.88,-29.88,-15.56,0.02,0.05,-0.99,0.15
38047,00:02:53,IMU1,0.0,0.0,0.0,1.46,-0.88,9.5,-1.81,-7.0,-29.88,0.06,-0.07,0.93,0.35
38047,00:02:53,IMU2,0.0,0.0,0.0,0.69,-2.87,9.35,-17.44,-4.0,-26.38,-0.09,0.12,-0.89,0.43
38047,00:02:53,IMU3,0.0,0.0,0.0,-0.5,-0.88,9.58,-12.19,-31.31,-13.25,0.02,0.05,-0.99,0.15
38048,00:02:53,IMU1,0.0,0.0,0.0,1.46,-0.88,9.5,-1.81,-7.0,-29.88,0.06,-0.07,0.93,0.35
38048,00:02:53,IMU2,0.0,0.0,0.0,0.69,-2.87,9.35,-17.44,-4.0,-26.38,-0.09,0.12,-0.89,0.43
38048,00:02:53,IMU3,0.0,0.0,0.0,-0.5,-0.88,9.58,-12.19,-31.31,-13.25,0.02,0.05,-0.99,0.15
38049,00:02:53,IMU1,0.0,0.0,0.0,1.46,-0.88,9.5,-1.81,-7.0,-29.88,0.06,-0.07,0.93,0.35
38049,00:02:53,IMU2,0.0,0.0,0.0,0.65,-2.91,9.34,-17.44,-4.0,-26.38,-0.09,0.12,-0.89,0.43
38049,00:02:53,IMU3,0.0,0.0,0.0,-0.5,-0.88,9.58,-12.19,-31.31,-13.25,0.02,0.05,-0.99,0.15
38050,00:02:53,IMU1,0.0,0.0,0.0,1.46,-0.88,9.5,-1.81,-7.0,-29.88,0.06,-0.07,0.93,0.35
38050,00:02:53,IMU2,0.0,0.0,0.0,0.65,-2.91,9.34,-17.44,-6.5,-23.69,-0.09,0.12,-0.89,0.43
38050,00:02:53,IMU3,0.0,0.0,0.0,-0.5,-0.88,9.58,-12.19,-31.31,-13.25,0.02,0.05,-0.99,0.15
38051,00:02:53,IMU1,0.0,0.0,0.0,1.46,-0.88,9.5,-1.81,-7.0,-29.88,0.06,-0.07,0.93,0.35
38051,00:02:53,IMU2,0.0,0.0,0.0,0.65,-2.91,9.34,-17.44,-6.5,-23.69,-0.09,0.12,-0.89,0.43
38051,00:02:53,IMU3,0.0,0.0,0.0,-0.46,-0.96,9.58,-12.19,-31.31,-13.25,0.02,0.05,-0.99,0.15
38052,00:02:53,IMU1,0.0,0.0,0.0,1.46,-0.88,9.5,-1.81,-7.0,-29.88,0.06,-0.07,0.93,0.35
38052,00:02:53,IMU2,0.0,0.0,0.0,0.65,-2.91,9.34,-17.44,-6.5,-23.69,-0.09,0.12,-0.89,0.43
38052,00:02:53,IMU3,0.0,0.01,0.0,-0.46,-0.96,9.58,-12.19,-31.31,-13.25,0.02,0.05,-0.99,0.15
38053,00:02:53,IMU1,0.0,0.0,0.0,1.46,-0.92,9.54,-1.81,-7.0,-29.88,0.06,-0.07,0.93,0.35
38053,00:02:53,IMU2,0.0,0.0,0.0,0.65,-2.91,9.34,-17.44,-6.5,-23.69,-0.09,0.12,-0.89,0.43
38053,00:02:53,IMU3,0.0,0.01,0.0,-0.46,-0.96,9.58,-12.94,-32.75,-17.94,0.02,0.05,-0.99,0.15
38054,00:02:53,IMU1,0.0,0.0,0.0,1.46,-0.92,9.54,-0.31,-7.0,-30.69,0.06,-0.07,0.93,0.35
38054,00:02:53,IMU2,0.0,0.0,0.0,0.65,-2.91,9.34,-17.44,-6.5,-23.69,-0.09,0.12,-0.89,0.43
38054,00:02:53,IMU3,0.0,0.01,0.0,-0.46,-0.96,9.58,-12.94,-32.75,-17.94,0.02,0.05,-0.99,0.15
38055,00:02:53,IMU1,0.0,0.0,0.0,1.46,-0.92,9.54,-0.31,-7.0,-30.69,0.06,-0.07,0.93,0.35
38055,00:02:53,IMU2,0.0,0.0,0.0,0.65,-2.91,9.34,-17.44,-6.5,-23.69,-0.09,0.12,-0.89,0.43
38055,00:02:53,IMU3,0.0,0.0,0.0,-0.46,-0.96,9.58,-12.94,-32.75,-17.94,0.02,0.05,-0.99,0.15
38056,00:02:53,IMU1,0.0,0.0,0.0,1.46,-0.92,9.54,-0.31,-7.0,-30.69,0.06,-0.07,0.93,0.35
38056,00:02:53,IMU2,0.0,0.0,0.0,0.65,-2.91,9.34,-17.44,-6.5,-23.69,-0.09,0.12,-0.89,0.43
38056,00:02:53,IMU3,0.0,0.0,0.0,-0.46,-0.96,9.58,-12.94,-32.75,-17.94,0.02,0.05,-0.99,0.15
38057,00:02:53,IMU1,0.0,0.0,0.0,1.46,-0.92,9.54,-0.31,-7.0,-30.69,0.06,-0.07,0.93,0.35
38057,00:02:53,IMU2,0.0,0.0,0.0,0.65,-2.87,9.34,-17.44,-6.5,-23.69,-0.09,0.12,-0.89,0.43
38057,00:02:53,IMU3,0.0,0.0,0.0,-0.46,-0.96,9.61,-12.94,-32.75,-17.94,0.02,0.05,-0.99,0.15
38058,00:02:53,IMU1,0.0,0.0,0.0,1.46,-0.92,9.54,-0.31,-7.0,-30.69,0.06,-0.07,0.93,0.35
38058,00:02:53,IMU2,0.0,0.0,0.0,0.65,-2.87,9.34,-17.81,-6.12,-25.62,-0.09,0.12,-0.89,0.43
38058,00:02:53,IMU3,0.0,0.0,0.0,-0.46,-0.96,9.61,-12.94,-32.75,-17.94,0.02,0.05,-0.99,0.15
38059,00:02:53,IMU1,0.0,0.0,0.0,1.46,-0.88,9.5,-0.31,-7.0,-30.69,0.06,-0.07,0.93,0.35
38059,00:02:53,IMU2,0.0,0.0,0.0,0.65,-2.87,9.34,-17.81,-6.12,-25.62,-0.09,0.12,-0.89,0.43
38059,00:02:53,IMU3,0.0,0.0,0.0,-0.46,-0.96,9.61,-13.31,-34.94,-15.19,0.02,0.05,-0.99,0.15
38060,00:02:53,IMU1,0.0,0.0,0.0,1.46,-0.88,9.5,-0.31,-7.0,-30.69,0.06,-0.07,0.93,0.35
38060,00:02:53,IMU2,0.0,0.0,0.0,0.65,-2.87,9.34,-17.81,-6.12,-25.62,-0.09,0.12,-0.89,0.43
38060,00:02:53,IMU3,0.0,0.0,0.0,-0.46,-0.96,9.61,-13.31,-34.94,-15.19,0.02,0.05,-0.99,0.15
38061,00:02:53,IMU1,0.0,0.0,0.0,1.46,-0.88,9.5,-1.44,-5.88,-34.25,0.06,-0.07,0.93,0.35
38061,00:02:53,IMU2,0.0,0.0,0.0,0.65,-2.87,9.34,-17.81,-6.12,-25.62,-0.09,0.12,-0.89,0.43
38061,00:02:53,IMU3,0.0,0.0,0.01,-0.46,-0.96,9.61,-13.31,-34.94,-15.19,0.02,0.05,-0.99,0.15
38062,00:02:53,IMU1,0.0,0.0,0.0,1.46,-0.88,9.5,-1.44,-5.88,-34.25,0.06,-0.07,0.93,0.35
38062,00:02:53,IMU2,0.0,0.0,0.0,0.65,-2.87,9.34,-17.81,-6.12,-25.62,-0.09,0.12,-0.89,0.43
38062,00:02:53,IMU3,0.0,0.0,0.01,-0.46,-0.96,9.61,-13.31,-34.94,-15.19,0.02,0.05,-0.99,0.15
38063,00:02:53,IMU1,0.0,0.0,0.0,1.46,-0.88,9.5,-1.44,-5.88,-34.25,0.06,-0.07,0.93,0.35
38063,00:02:53,IMU2,0.0,0.0,0.0,0.69,-2.87,9.39,-17.81,-6.12,-25.62,-0.09,0.12,-0.89,0.43
38063,00:02:53,IMU3,0.0,0.0,0.01,-0.46,-0.96,9.61,-13.31,-34.94,-15.19,0.02,0.05,-0.99,0.15
38064,00:02:53,IMU1,0.0,0.0,0.0,1.46,-0.88,9.5,-1.44,-5.88,-34.25,0.06,-0.07,0.93,0.35
38064,00:02:53,IMU2,0.0,0.0,0.0,0.69,-2.87,9.39,-18.88,-8.69,-25.62,-0.09,0.12,-0.89,0.43
38064,00:02:53,IMU3,0.0,0.0,0.01,-0.46,-0.96,9.61,-13.31,-34.94,-15.19,0.02,0.05,-0.99,0.15
38065,00:02:53,IMU1,0.0,0.0,0.0,1.46,-0.88,9.5,-1.44,-5.88,-34.25,0.06,-0.07,0.93,0.35
38065,00:02:53,IMU2,0.0,0.0,0.0,0.69,-2.87,9.39,-18.88,-8.69,-25.62,-0.09,0.12,-0.89,0.43
38065,00:02:53,IMU3,0.0,0.0,0.01,-0.46,-0.96,9.61,-13.31,-34.94,-15.19,0.02,0.05,-0.99,0.15
38066,00:02:53,IMU1,0.0,0.0,0.0,1.46,-0.88,9.5,-1.44,-5.88,-34.25,0.06,-0.07,0.93,0.35
38066,00:02:53,IMU2,0.0,0.0,0.0,0.69,-2.87,9.39,-18.88,-8.69,-25.62,-0.09,0.12,-0.89,0.43
38066,00:02:53,IMU3,0.0,0.0,0.01,-0.46,-0.96,9.61,-12.94,-32.38,-13.25,0.02,0.05,-0.99,0.15
38067,00:02:53,IMU1,0.0,0.0,0.0,1.46,-0.88,9.5,-1.44,-5.88,-34.25,0.06,-0.07,0.93,0.35
38067,00:02:53,IMU2,0.0,0.0,0.0,0.69,-2.87,9.39,-18.88,-8.69,-25.62,-0.09,0.12,-0.89,0.43
38067,00:02:53,IMU3,0.0,0.0,-0.01,-0.46,-0.96,9.61,-12.94,-32.38,-13.25,0.02,0.05,-0.99,0.15
38068,00:02:53,IMU1,0.0,0.0,0.0,1.46,-0.88,9.5,-1.44,-5.88,-34.25,0.06,-0.07,0.93,0.35
38068,00:02:53,IMU2,0.0,0.0,0.0,0.69,-2.87,9.39,-18.88,-8.69,-25.62,-0.09,0.12,-0.89,0.43
38068,00:02:53,IMU3,0.0,0.0,-0.01,-0.46,-0.96,9.61,-12.94,-32.38,-13.25,0.02,0.05,-0.99,0.15
38069,00:02:53,IMU1,0.0,0.0,0.0,1.49,-0.92,9.54,-1.44,-5.88,-34.25,0.06,-0.07,0.93,0.35
38069,00:02:53,IMU2,0.0,0.0,0.0,0.65,-2.87,9.38,-18.88,-8.69,-25.62,-0.09,0.12,-0.89,0.43
38069,00:02:53,IMU3,0.0,0.0,-0.01,-0.46,-0.96,9.61,-12.94,-32.38,-13.25,0.02,0.05,-0.99,0.15
38070,00:02:53,IMU1,0.0,0.0,0.0,1.49,-0.92,9.54,-1.44,-8.88,-30.25,0.06,-0.07,0.93,0.35
38070,00:02:53,IMU2,0.0,0.0,0.0,0.65,-2.87,9.38,-17.44,-6.88,-25.25,-0.09,0.12,-0.89,0.43
38070,00:02:53,IMU3,0.0,0.0,-0.01,-0.46,-0.96,9.61,-12.94,-32.38,-13.25,0.02,0.05,-0.99,0.15
38071,00:02:53,IMU1,0.0,0.0,0.0,1.49,-0.92,9.54,-1.44,-8.88,-30.25,0.06,-0.07,0.93,0.35
38071,00:02:53,IMU2,0.0,0.0,0.0,0.65,-2.87,9.38,-17.44,-6.88,-25.25,-0.09,0.12,-0.89,0.43
38071,00:02:53,IMU3,0.0,0.0,-0.01,-0.5,-0.92,9.58,-12.94,-32.38,-13.25,0.02,0.05,-0.99,0.15
38072,00:02:53,IMU1,0.0,0.0,0.0,1.49,-0.92,9.54,-1.44,-8.88,-30.25,0.06,-0.07,0.93,0.35
38072,00:02:53,IMU2,0.0,0.0,0.0,0.65,-2.87,9.38,-17.44,-6.88,-25.25,-0.09,0.12,-0.89,0.43
38072,00:02:53,IMU3,0.0,0.0,-0.01,-0.5,-0.92,9.58,-12.94,-30.25,-14.44,0.02,0.05,-0.99,0.15
38073,00:02:53,IMU1,0.0,0.0,0.0,1.42,-0.88,9.5,-1.44,-8.88,-30.25,0.06,-0.07,0.93,0.35
38073,00:02:53,IMU2,0.0,0.0,0.0,0.65,-2.87,9.38,-17.44,-6.88,-25.25,-0.09,0.12,-0.89,0.43
38073,00:02:53,IMU3,0.0,-0.01,0.0,-0.5,-0.92,9.58,-12.94,-30.25,-14.44,0.02,0.05,-0.99,0.15
38074,00:02:53,IMU1,0.0,0.0,0.0,1.42,-0.88,9.5,-1.44,-6.25,-32.25,0.06,-0.07,0.93,0.35
38074,00:02:53,IMU2,0.0,0.0,0.0,0.65,-2.87,9.38,-17.44,-6.88,-25.25,-0.09,0.12,-0.89,0.43
38074,00:02:53,IMU3,0.0,-0.01,0.0,-0.5,-0.92,9.58,-12.94,-30.25,-14.44,0.02,0.05,-0.99,0.15
38075,00:02:53,IMU1,0.0,0.0,0.0,1.42,-0.88,9.5,-1.44,-6.25,-32.25,0.06,-0.07,0.93,0.35
38075,00:02:53,IMU2,0.0,0.0,0.0,0.65,-2.87,9.38,-17.44,-6.88,-25.25,-0.09,0.12,-0.89,0.43
38075,00:02:53,IMU3,0.0,-0.01,0.0,-0.5,-0.92,9.61,-12.94,-30.25,-14.44,0.02,0.05,-0.99,0.15
38076,00:02:53,IMU1,0.0,0.0,0.0,1.42,-0.88,9.5,-1.44,-6.25,-32.25,0.06,-0.07,0.93,0.35
38076,00:02:53,IMU2,0.0,0.0,0.0,0.65,-2.87,9.38,-17.44,-6.88,-25.25,-0.09,0.12,-0.89,0.43
38076,00:02:53,IMU3,0.0,0.0,0.0,-0.5,-0.92,9.61,-12.94,-30.25,-14.44,0.02,0.05,-0.99,0.15
38077,00:02:53,IMU1,0.0,0.0,0.0,1.42,-0.88,9.5,-1.44,-6.25,-32.25,0.06,-0.07,0.93,0.35
38077,00:02:53,IMU2,0.0,0.0,0.0,0.61,-2.84,9.34,-17.44,-6.88,-25.25,-0.09,0.12,-0.89,0.43
38077,00:02:53,IMU3,0.0,0.0,0.0,-0.5,-0.92,9.61,-12.94,-33.12,-17.5,0.02,0.05,-0.99,0.15
38078,00:02:53,IMU1,0.0,0.0,0.0,1.42,-0.88,9.5,-1.44,-6.25,-32.25,0.06,-0.07,0.93,0.35
38078,00:02:53,IMU2,0.0,0.0,0.0,0.61,-2.84,9.34,-17.44,-6.88,-25.25,-0.09,0.12,-0.89,0.43
38078,00:02:53,IMU3,0.0,0.0,0.0,-0.5,-0.92,9.61,-12.94,-33.12,-17.5,0.02,0.05,-0.99,0.15
38079,00:02:53,IMU1,0.0,0.0,0.0,1.42,-0.88,9.5,-1.44,-6.25,-32.25,0.06,-0.07,0.93,0.35
38079,00:02:53,IMU2,0.0,0.0,0.0,0.61,-2.84,9.34,-18.5,-8.69,-24.44,-0.09,0.12,-0.89,0.43
38079,00:02:53,IMU3,0.0,0.0,0.0,-0.5,-0.92,9.61,-12.94,-33.12,-17.5,0.02,0.05,-0.99,0.15
38080,00:02:53,IMU1,0.0,0.0,0.0,1.42,-0.88,9.5,-1.44,-6.25,-32.25,0.06,-0.07,0.93,0.35
38080,00:02:53,IMU2,0.0,0.0,0.0,0.61,-2.84,9.34,-18.5,-8.69,-24.44,-0.09,0.12,-0.89,0.43
38080,00:02:53,IMU3,0.0,0.0,0.0,-0.5,-0.92,9.61,-12.94,-33.12,-17.5,0.02,0.05,-0.99,0.15
38081,00:02:53,IMU1,0.0,0.0,0.0,1.42,-0.92,9.5,-1.44,-6.25,-32.25,0.06,-0.07,0.93,0.35
38081,00:02:53,IMU2,0.0,0.0,0.0,0.61,-2.84,9.34,-18.5,-8.69,-24.44,-0.09,0.12,-0.89,0.43
38081,00:02:53,IMU3,0.0,0.0,0.0,-0.46,-0.92,9.58,-12.94,-33.12,-17.5,0.02,0.05,-0.99,0.15
38082,00:02:53,IMU1,0.0,0.0,0.0,1.42,-0.92,9.5,0.0,-7.75,-32.25,0.06,-0.07,0.93,0.35
38082,00:02:53,IMU2,0.0,0.0,0.0,0.61,-2.84,9.34,-18.5,-8.69,-24.44,-0.09,0.12,-0.89,0.43
38082,00:02:53,IMU3,0.0,0.0,0.0,-0.46,-0.92,9.58,-12.94,-33.12,-17.5,0.02,0.05,-0.99,0.15
38083,00:02:53,IMU1,0.0,0.0,0.0,1.42,-0.92,9.5,0.0,-7.75,-32.25,0.06,-0.07,0.93,0.35
38083,00:02:53,IMU2,0.0,0.0,0.0,0.61,-2.84,9.34,-18.5,-8.69,-24.44,-0.09,0.12,-0.89,0.43
38083,00:02:53,IMU3,0.0,0.0,0.0,-0.46,-0.92,9.58,-12.56,-33.44,-17.12,0.02,0.05,-0.99,0.15
38084,00:02:53,IMU1,0.0,0.0,0.0,1.42,-0.92,9.5,0.0,-7.75,-32.25,0.06,-0.07,0.93,0.35
38084,00:02:53,IMU2,0.0,0.0,0.0,0.61,-2.84,9.34,-18.5,-8.69,-24.44,-0.09,0.12,-0.89,0.43
38084,00:02:53,IMU3,0.0,0.0,0.0,-0.46,-0.92,9.58,-12.56,-33.44,-17.12,0.02,0.05,-0.99,0.15
38085,00:02:53,IMU1,0.0,0.0,0.0,1.42,-0.92,9.5,0.0,-7.75,-32.25,0.06,-0.07,0.93,0.35
38085,00:02:53,IMU2,0.0,0.0,0.0,0.61,-2.87,9.34,-18.5,-8.69,-24.44,-0.09,0.12,-0.89,0.43
38085,00:02:53,IMU3,0.0,0.0,0.0,-0.46,-0.92,9.58,-12.56,-33.44,-17.12,0.02,0.05,-0.99,0.15
38086,00:02:53,IMU1,0.0,0.0,0.0,1.42,-0.92,9.5,0.0,-7.75,-32.25,0.06,-0.07,0.93,0.35
38086,00:02:53,IMU2,0.0,0.0,0.0,0.61,-2.87,9.34,-18.88,-6.88,-27.94,-0.09,0.12,-0.89,0.43
38086,00:02:53,IMU3,0.0,0.0,0.0,-0.46,-0.92,9.58,-12.56,-33.44,-17.12,0.02,0.05,-0.99,0.15
38087,00:02:53,IMU1,0.0,0.0,0.0,1.42,-0.92,9.5,0.0,-7.75,-32.25,0.06,-0.07,0.93,0.35
38087,00:02:53,IMU2,0.0,0.0,0.0,0.61,-2.87,9.34,-18.88,-6.88,-27.94,-0.09,0.12,-0.89,0.43
38087,00:02:53,IMU3,0.0,0.0,0.0,-0.46,-0.92,9.58,-12.56,-33.44,-17.12,0.02,0.05,-0.99,0.15
38088,00:02:53,IMU1,0.0,0.0,0.0,1.42,-0.92,9.5,0.0,-7.75,-32.25,0.06,-0.07,0.93,0.35
38088,00:02:53,IMU2,0.0,0.0,0.0,0.61,-2.87,9.34,-18.88,-6.88,-27.94,-0.09,0.12,-0.89,0.43
38088,00:02:53,IMU3,0.0,0.0,0.0,-0.46,-0.92,9.58,-12.56,-33.44,-17.12,0.02,0.05,-0.99,0.15
38089,00:02:53,IMU1,0.0,0.0,0.0,1.42,-0.92,9.5,0.0,-7.75,-32.25,0.06,-0.07,0.93,0.35
38089,00:02:53,IMU2,0.0,0.0,0.0,0.61,-2.87,9.34,-18.88,-6.88,-27.94,-0.09,0.12,-0.89,0.43
38089,00:02:53,IMU3,0.0,0.0,0.0,-0.46,-0.92,9.58,-12.56,-33.44,-17.12,0.02,0.05,-0.99,0.15
38090,00:02:53,IMU1,0.0,0.0,0.0,1.42,-0.92,9.5,0.0,-7.75,-32.25,0.06,-0.07,0.93,0.35
38090,00:02:53,IMU2,0.0,0.0,0.0,0.61,-2.87,9.34,-18.88,-6.88,-27.94,-0.09,0.12,-0.89,0.43
38090,00:02:53,IMU3,0.0,0.0,0.0,-0.46,-0.92,9.58,-12.56,-33.44,-17.12,0.02,0.05,-0.99,0.15
38091,00:02:53,IMU1,0.0,0.0,0.0,1.46,-0.92,9.54,0.0,-7.75,-32.25,0.06,-0.07,0.93,0.35
38091,00:02:53,IMU2,0.0,0.0,0.0,0.61,-2.87,9.34,-18.88,-6.88,-27.94,-0.09,0.12,-0.89,0.43
38091,00:02:53,IMU3,0.0,0.0,0.0,-0.46,-0.96,9.58,-12.56,-33.44,-17.12,0.02,0.05,-0.99,0.15
38092,00:02:53,IMU1,0.0,0.0,0.0,1.46,-0.92,9.54,-1.81,-7.38,-28.69,0.06,-0.07,0.93,0.35
38092,00:02:53,IMU2,0.0,0.0,0.0,0.61,-2.87,9.34,-18.88,-6.88,-27.94,-0.09,0.12,-0.89,0.43
38092,00:02:53,IMU3,0.0,0.0,0.0,-0.46,-0.96,9.58,-13.62,-33.12,-16.75,0.02,0.05,-0.99,0.15
38093,00:02:53,IMU1,0.0,0.0,0.0,1.46,-0.92,9.54,-1.81,-7.38,-28.69,0.06,-0.07,0.93,0.35
38093,00:02:53,IMU2,0.0,0.0,0.0,0.65,-2.91,9.34,-18.88,-6.88,-27.94,-0.09,0.12,-0.89,0.43
38093,00:02:53,IMU3,0.0,0.0,0.0,-0.46,-0.96,9.58,-13.62,-33.12,-16.75,0.02,0.05,-0.99,0.15
38094,00:02:53,IMU1,0.0,0.0,0.0,1.46,-0.92,9.54,-1.81,-7.38,-28.69,0.06,-0.07,0.93,0.35
38094,00:02:53,IMU2,0.0,0.0,0.0,0.65,-2.91,9.34,-17.44,-5.06,-26.0,-0.09,0.12,-0.89,0.43
38094,00:02:53,IMU3,0.0,0.0,0.0,-0.46,-0.96,9.58,-13.62,-33.12,-16.75,0.02,0.05,-0.99,0.15
38095,00:02:53,IMU1,0.0,0.0,0.0,1.46,-0.92,9.54,-1.81,-7.38,-28.69,0.06,-0.07,0.93,0.35
38095,00:02:53,IMU2,0.0,0.0,0.0,0.65,-2.91,9.34,-17.44,-5.06,-26.0,-0.09,0.12,-0.89,0.43
38095,00:02:53,IMU3,0.0,0.0,0.0,-0.46,-0.96,9.58,-13.62,-33.12,-16.75,0.02,0.05,-0.99,0.15
38096,00:02:53,IMU1,0.0,0.0,0.0,1.46,-0.92,9.54,-1.81,-7.38,-28.69,0.06,-0.07,0.93,0.35
38096,00:02:53,IMU2,0.0,0.0,0.0,0.65,-2.91,9.34,-17.44,-5.06,-26.0,-0.09,0.12,-0.89,0.43
38096,00:02:53,IMU3,0.0,0.0,0.0,-0.46,-0.96,9.58,-13.62,-33.12,-16.75,0.02,0.05,-0.99,0.15
38097,00:02:53,IMU1,0.0,0.0,0.0,1.42,-0.92,9.54,-1.81,-7.38,-28.69,0.06,-0.07,0.93,0.35
38097,00:02:53,IMU2,0.0,0.0,0.0,0.65,-2.91,9.34,-17.44,-5.06,-26.0,-0.09,0.12,-0.89,0.43
38097,00:02:53,IMU3,0.0,0.0,0.0,-0.38,-0.96,9.61,-13.62,-33.12,-16.75,0.02,0.05,-0.99,0.15
38098,00:02:53,IMU1,0.0,0.0,0.0,1.42,-0.92,9.54,-2.56,-6.25,-29.5,0.06,-0.07,0.93,0.35
38098,00:02:53,IMU2,0.0,0.0,0.0,0.65,-2.91,9.34,-17.44,-5.06,-26.0,-0.09,0.12,-0.89,0.43
38098,00:02:53,IMU3,0.0,0.0,0.0,-0.38,-0.96,9.61,-11.88,-29.5,-17.12,0.02,0.05,-0.99,0.15
38099,00:02:53,IMU1,0.0,0.0,0.0,1.42,-0.92,9.54,-2.56,-6.25,-29.5,0.06,-0.07,0.93,0.35
38099,00:02:53,IMU2,0.0,0.0,0.0,0.65,-2.91,9.34,-17.44,-5.06,-26.0,-0.09,0.12,-0.89,0.43
38099,00:02:53,IMU3,0.0,0.0,0.0,-0.38,-0.96,9.61,-11.88,-29.5,-17.12,0.02,0.05,-0.99,0.15
38100,00:02:53,IMU1,0.0,0.0,0.0,1.42,-0.92,9.54,-2.56,-6.25,-29.5,0.06,-0.07,0.93,0.35
38100,00:02:53,IMU2,0.0,0.0,0.0,0.65,-2.91,9.34,-17.44,-5.06,-26.0,-0.09,0.12,-0.89,0.43
38100,00:02:53,IMU3,0.0,0.0,0.0,-0.38,-0.96,9.61,-11.88,-29.5,-17.12,0.02,0.05,-0.99,0.15
38101,00:02:53,IMU1,0.0,0.0,0.0,1.42,-0.92,9.54,-2.56,-6.25,-29.5,0.06,-0.07,0.93,0.35
38101,00:02:53,IMU2,0.0,0.0,0.0,0.61,-2.87,9.34,-17.44,-5.06,-26.0,-0.09,0.12,-0.89,0.43
38101,00:02:53,IMU3,0.0,0.0,0.0,-0.38,-0.96,9.61,-11.88,-29.5,-17.12,0.02,0.05,-0.99,0.15
38102,00:02:53,IMU1,0.0,0.0,0.0,1.42,-0.92,9.54,-2.56,-6.25,-29.5,0.06,-0.07,0.93,0.35
38102,00:02:53,IMU2,0.0,0.0,0.0,0.61,-2.87,9.34,-18.19,-6.88,-27.94,-0.09,0.12,-0.89,0.43
38102,00:02:53,IMU3,0.0,0.0,0.0,-0.38,-0.96,9.61,-11.88,-29.5,-17.12,0.02,0.05,-0.99,0.15
38103,00:02:53,IMU1,0.0,0.0,0.0,1.42,-0.92,9.54,-2.56,-6.25,-29.5,0.06,-0.07,0.93,0.35
38103,00:02:53,IMU2,0.0,0.0,0.0,0.61,-2.87,9.34,-18.19,-6.88,-27.94,-0.09,0.12,-0.89,0.43
38103,00:02:53,IMU3,0.0,0.0,0.0,-0.38,-0.96,9.61,-11.88,-29.5,-17.12,0.02,0.05,-0.99,0.15
38104,00:02:53,IMU1,0.0,0.0,0.0,1.42,-0.92,9.54,-2.56,-6.25,-29.5,0.06,-0.07,0.93,0.35
38104,00:02:53,IMU2,0.0,0.0,0.0,0.61,-2.87,9.34,-18.19,-6.88,-27.94,-0.09,0.12,-0.89,0.43
38104,00:02:53,IMU3,0.0,0.0,0.0,-0.38,-0.96,9.61,-11.88,-29.5,-17.12,0.02,0.05,-0.99,0.15
38105,00:02:53,IMU1,0.0,0.0,0.0,1.46,-0.92,9.5,-2.56,-6.25,-29.5,0.06,-0.07,0.93,0.35
38105,00:02:53,IMU2,0.0,0.0,0.0,0.61,-2.87,9.34,-18.19,-6.88,-27.94,-0.09,0.12,-0.89,0.43
38105,00:02:53,IMU3,0.0,0.0,0.0,-0.38,-0.96,9.61,-11.88,-29.5,-17.12,0.02,0.05,-0.99,0.15
38106,00:02:53,IMU1,0.0,0.0,0.0,1.46,-0.92,9.5,-2.19,-7.38,-29.06,0.06,-0.07,0.93,0.35
38106,00:02:53,IMU2,0.0,0.0,0.0,0.61,-2.87,9.34,-18.19,-6.88,-27.94,-0.09,0.12,-0.89,0.43
38106,00:02:53,IMU3,0.0,0.0,0.0,-0.38,-0.96,9.61,-11.88,-29.5,-17.12,0.02,0.05,-0.99,0.15
38107,00:02:53,IMU1,0.0,0.0,0.0,1.46,-0.92,9.5,-2.19,-7.38,-29.06,0.06,-0.07,0.93,0.35
38107,00:02:53,IMU2,0.0,0.0,0.0,0.61,-2.87,9.34,-18.19,-6.88,-27.94,-0.09,0.12,-0.89,0.43
38107,00:02:53,IMU3,0.0,0.0,0.0,-0.38,-0.96,9.61,-11.88,-29.5,-17.12,0.02,0.05,-0.99,0.15
38108,00:02:53,IMU1,0.0,0.0,0.0,1.46,-0.92,9.5,-2.19,-7.38,-29.06,0.06,-0.07,0.93,0.35
38108,00:02:53,IMU2,0.0,0.0,0.0,0.61,-2.87,9.34,-17.44,-2.12,-24.06,-0.09,0.12,-0.89,0.43
38108,00:02:53,IMU3,0.0,0.0,0.0,-0.38,-0.96,9.61,-11.88,-29.5,-17.12,0.02,0.05,-0.99,0.15
38109,00:02:53,IMU1,0.0,0.0,0.0,1.46,-0.92,9.5,-2.19,-7.38,-29.06,0.06,-0.07,0.93,0.35
38109,00:02:53,IMU2,0.0,0.0,0.0,0.61,-2.87,9.34,-17.44,-2.12,-24.06,-0.09,0.12,-0.89,0.43
38109,00:02:53,IMU3,0.0,0.0,0.0,-0.46,-0.92,9.58,-11.88,-29.5,-17.12,0.02,0.05,-0.99,0.15
38110,00:02:53,IMU1,0.0,0.0,0.0,1.46,-0.92,9.5,-2.19,-7.38,-29.06,0.06,-0.07,0.93,0.35
38110,00:02:53,IMU2,0.0,0.0,0.0,0.61,-2.87,9.34,-17.44,-2.12,-24.06,-0.09,0.12,-0.89,0.43
38110,00:02:53,IMU3,0.0,0.0,0.0,-0.46,-0.92,9.58,-12.56,-33.12,-17.12,0.02,0.05,-0.99,0.15
38111,00:02:53,IMU1,0.0,0.0,0.0,1.46,-0.88,9.54,-2.19,-7.38,-29.06,0.06,-0.07,0.93,0.35
38111,00:02:53,IMU2,0.0,0.0,0.0,0.61,-2.87,9.34,-17.44,-2.12,-24.06,-0.09,0.12,-0.89,0.43
38111,00:02:53,IMU3,0.0,0.0,0.0,-0.46,-0.92,9.58,-12.56,-33.12,-17.12,0.02,0.05,-0.99,0.15
38112,00:02:53,IMU1,0.0,0.0,0.0,1.46,-0.88,9.54,-1.44,-9.19,-29.5,0.06,-0.07,0.93,0.35
38112,00:02:53,IMU2,0.0,0.0,0.0,0.61,-2.87,9.34,-17.44,-2.12,-24.06,-0.09,0.12,-0.89,0.43
38112,00:02:53,IMU3,0.0,0.0,0.0,-0.46,-0.92,9.58,-12.56,-33.12,-17.12,0.02,0.05,-0.99,0.15
38113,00:02:53,IMU1,0.0,0.0,0.0,1.46,-0.88,9.54,-1.44,-9.19,-29.5,0.06,-0.07,0.93,0.35
38113,00:02:53,IMU2,0.0,0.0,0.0,0.61,-2.87,9.34,-17.44,-2.12,-24.06,-0.09,0.12,-0.89,0.43
38113,00:02:53,IMU3,0.0,0.0,0.0,-0.46,-0.92,9.58,-12.56,-33.12,-17.12,0.02,0.05,-0.99,0.15
38114,00:02:53,IMU1,0.0,0.0,0.0,1.46,-0.88,9.54,-1.44,-9.19,-29.5,0.06,-0.07,0.93,0.35
38114,00:02:53,IMU2,0.0,0.0,0.0,0.61,-2.87,9.34,-17.44,-2.12,-24.06,-0.09,0.12,-0.89,0.43
38114,00:02:53,IMU3,0.0,0.0,0.0,-0.46,-0.92,9.58,-12.56,-33.12,-17.12,0.02,0.05,-0.99,0.15
38115,00:02:53,IMU1,0.0,0.0,0.0,1.46,-0.88,9.54,-1.44,-9.19,-29.5,0.06,-0.07,0.93,0.35
38115,00:02:53,IMU2,0.0,0.0,0.0,0.65,-2.87,9.31,-17.44,-2.12,-24.06,-0.09,0.12,-0.89,0.43
38115,00:02:53,IMU3,0.0,0.0,0.0,-0.46,-0.92,9.58,-12.56,-33.12,-17.12,0.02,0.05,-0.99,0.15
38116,00:02:53,IMU1,0.0,0.0,0.0,1.46,-0.88,9.54,-1.44,-9.19,-29.5,0.06,-0.07,0.93,0.35
38116,00:02:53,IMU2,0.0,0.0,0.0,0.65,-2.87,9.31,-17.81,-3.25,-27.56,-0.09,0.12,-0.89,0.43
38116,00:02:53,IMU3,0.0,0.0,0.0,-0.46,-0.92,9.58,-12.56,-33.12,-17.12,0.02,0.05,-0.99,0.15
38117,00:02:53,IMU1,0.0,0.0,0.0,1.46,-0.88,9.54,-1.44,-9.19,-29.5,0.06,-0.07,0.93,0.35
38117,00:02:53,IMU2,0.0,0.0,0.0,0.65,-2.87,9.31,-17.81,-3.25,-27.56,-0.09,0.12,-0.89,0.43
38117,00:02:53,IMU3,0.0,0.0,0.0,-0.46,-0.92,9.54,-12.56,-33.12,-17.12,0.02,0.05,-0.99,0.15
38118,00:02:53,IMU1,0.0,0.0,0.0,1.46,-0.88,9.54,-1.44,-9.19,-29.5,0.06,-0.07,0.93,0.35
38118,00:02:53,IMU2,0.0,0.0,0.0,0.65,-2.87,9.31,-17.81,-3.25,-27.56,-0.09,0.12,-0.89,0.43
38118,00:02:53,IMU3,0.0,0.0,0.0,-0.46,-0.92,9.54,-13.31,-32.75,-17.12,0.02,0.05,-0.99,0.15
38119,00:02:53,IMU1,0.0,0.0,0.0,1.49,-0.88,9.5,-1.44,-9.19,-29.5,0.06,-0.07,0.93,0.35
38119,00:02:53,IMU2,0.0,0.0,0.0,0.65,-2.91,9.38,-17.81,-3.25,-27.56,-0.09,0.12,-0.89,0.43
38119,00:02:53,IMU3,0.0,0.0,0.0,-0.46,-0.92,9.54,-13.31,-32.75,-17.12,0.02,0.05,-0.99,0.15
38120,00:02:53,IMU1,0.0,0.0,0.0,1.49,-0.88,9.5,-1.44,-8.88,-31.5,0.06,-0.07,0.93,0.35
38120,00:02:53,IMU2,0.0,0.0,0.0,0.65,-2.91,9.38,-17.44,-5.06,-23.31,-0.09,0.12,-0.89,0.43
38120,00:02:53,IMU3,0.0,0.0,0.0,-0.46,-0.92,9.54,-13.31,-32.75,-17.12,0.02,0.05,-0.99,0.15
38121,00:02:53,IMU1,0.0,0.0,0.0,1.49,-0.88,9.5,-1.44,-8.88,-31.5,0.06,-0.07,0.93,0.35
38121,00:02:53,IMU2,0.0,0.0,0.0,0.65,-2.91,9.38,-17.44,-5.06,-23.31,-0.09,0.12,-0.89,0.43
38121,00:02:53,IMU3,0.0,0.0,0.0,-0.46,-0.92,9.54,-13.31,-32.75,-17.12,0.02,0.05,-0.99,0.15
38122,00:02:53,IMU1,0.0,0.0,0.0,1.49,-0.88,9.5,-1.44,-8.88,-31.5,0.06,-0.07,0.93,0.35
38122,00:02:53,IMU2,0.0,0.0,0.0,0.65,-2.91,9.38,-17.44,-5.06,-23.31,-0.09,0.12,-0.89,0.43
38122,00:02:53,IMU3,0.0,0.0,0.0,-0.46,-0.92,9.54,-13.31,-32.75,-17.12,0.02,0.05,-0.99,0.15
38123,00:02:53,IMU1,0.0,0.0,0.0,1.46,-0.92,9.46,-1.44,-8.88,-31.5,0.06,-0.07,0.93,0.35
38123,00:02:53,IMU2,0.0,0.0,0.0,0.65,-2.91,9.38,-17.44,-5.06,-23.31,-0.09,0.12,-0.89,0.43
38123,00:02:53,IMU3,0.0,0.0,0.0,-0.46,-0.92,9.54,-13.31,-32.75,-17.12,0.02,0.05,-0.99,0.15
38124,00:02:53,IMU1,0.0,0.0,0.0,1.46,-0.92,9.46,-1.81,-4.44,-31.06,0.06,-0.07,0.93,0.35
38124,00:02:53,IMU2,0.0,0.0,0.0,0.65,-2.91,9.38,-17.44,-5.06,-23.31,-0.09,0.12,-0.89,0.43
38124,00:02:53,IMU3,0.0,0.0,0.0,-0.46,-0.92,9.54,-13.31,-34.19,-17.12,0.02,0.05,-0.99,0.15
38125,00:02:53,IMU1,0.0,0.0,0.0,1.46,-0.92,9.46,-1.81,-4.44,-31.06,0.06,-0.07,0.93,0.35
38125,00:02:53,IMU2,0.0,0.0,0.0,0.69,-2.91,9.35,-17.44,-5.06,-23.31,-0.09,0.12,-0.89,0.43
38125,00:02:53,IMU3,0.0,0.0,0.0,-0.46,-0.92,9.54,-13.31,-34.19,-17.12,0.02,0.05,-0.99,0.15
38126,00:02:53,IMU1,0.0,0.0,0.0,1.46,-0.92,9.46,-1.81,-4.44,-31.06,0.06,-0.07,0.93,0.35
38126,00:02:53,IMU2,0.0,0.0,0.0,0.69,-2.91,9.35,-17.44,-5.06,-23.31,-0.09,0.12,-0.89,0.43
38126,00:02:53,IMU3,0.0,0.0,0.0,-0.46,-0.92,9.54,-13.31,-34.19,-17.12,0.02,0.05,-0.99,0.15
38127,00:02:53,IMU1,0.0,0.0,0.0,1.46,-0.92,9.46,-1.81,-4.44,-31.06,0.06,-0.07,0.93,0.35
38127,00:02:53,IMU2,0.0,0.0,0.0,0.69,-2.91,9.35,-17.81,-5.06,-27.56,-0.09,0.12,-0.89,0.43
38127,00:02:53,IMU3,0.0,0.0,0.0,-0.46,-0.92,9.54,-13.31,-34.19,-17.12,0.02,0.05,-0.99,0.15
38128,00:02:53,IMU1,0.0,0.0,0.0,1.46,-0.92,9.46,-1.81,-4.44,-31.06,0.06,-0.07,0.93,0.35
38128,00:02:53,IMU2,0.0,0.0,0.0,0.69,-2.91,9.35,-17.81,-5.06,-27.56,-0.09,0.12,-0.89,0.43
38128,00:02:53,IMU3,0.0,0.0,0.0,-0.46,-0.92,9.54,-13.31,-34.19,-17.12,0.02,0.05,-0.99,0.15
38129,00:02:53,IMU1,0.0,0.0,0.0,1.46,-0.88,9.54,-1.81,-4.44,-31.06,0.06,-0.07,0.93,0.35
38129,00:02:53,IMU2,0.0,0.0,0.0,0.69,-2.91,9.35,-17.81,-5.06,-27.56,-0.09,0.12,-0.89,0.43
38129,00:02:53,IMU3,0.0,0.0,0.0,-0.46,-0.92,9.54,-13.31,-34.19,-17.12,0.02,0.05,-0.99,0.15
38130,00:02:53,IMU1,0.0,0.0,0.0,1.46,-0.88,9.54,-1.81,-8.12,-33.44,0.06,-0.07,0.93,0.35
38130,00:02:53,IMU2,0.0,0.0,0.0,0.69,-2.91,9.35,-17.81,-5.06,-27.56,-0.09,0.12,-0.89,0.43
38130,00:02:53,IMU3,0.0,0.0,0.0,-0.46,-0.92,9.54,-13.31,-34.19,-17.12,0.02,0.05,-0.99,0.15
38131,00:02:53,IMU1,0.0,0.0,0.0,1.46,-0.88,9.54,-1.81,-8.12,-33.44,0.06,-0.07,0.93,0.35
38131,00:02:53,IMU2,0.0,0.0,0.0,0.69,-2.91,9.35,-17.81,-5.06,-27.56,-0.09,0.12,-0.89,0.43
38131,00:02:53,IMU3,0.0,0.0,0.0,-0.42,-0.92,9.58,-13.31,-34.19,-17.12,0.02,0.05,-0.99,0.15
38132,00:02:53,IMU1,0.0,0.0,0.0,1.46,-0.88,9.54,-1.81,-8.12,-33.44,0.06,-0.07,0.93,0.35
38132,00:02:53,IMU2,0.0,0.0,0.0,0.69,-2.91,9.35,-17.81,-5.06,-27.56,-0.09,0.12,-0.89,0.43
38132,00:02:53,IMU3,0.0,0.0,0.0,-0.42,-0.92,9.58,-15.12,-34.94,-16.0,0.02,0.05,-0.99,0.15
38133,00:02:53,IMU1,0.0,0.0,0.0,1.46,-0.88,9.5,-1.81,-8.12,-33.44,0.06,-0.07,0.93,38137.0
38137,00:02:53,IMU2,0.0,0.0,0.0,0.65,-2.91,9.38,-18.88,-5.44,-22.88,-0.09,0.12,-0.89,0.43
38137,00:02:53,IMU3,0.0,0.0,0.0,-0.42,-0.92,9.58,-15.12,-34.94,-16.0,0.02,0.05,-0.99,0.15
38138,00:02:53,IMU1,0.0,0.0,0.0,1.46,-0.88,9.5,-1.81,-8.12,-33.44,0.06,-0.07,0.93,0.35
38138,00:02:53,IMU2,0.0,0.0,0.0,0.65,-2.91,9.38,-18.88,-5.44,-22.88,-0.09,0.12,-0.89,0.43
38138,00:02:53,IMU3,0.0,0.0,0.0,-0.42,-0.92,9.58,-15.12,-34.94,-16.0,0.02,0.05,-0.99,0.15
38139,00:02:53,IMU1,0.0,0.0,0.0,1.42,-0.88,9.5,-1.81,-8.12,-33.44,0.06,-0.07,0.93,0.35
38139,00:02:53,IMU2,0.0,0.0,0.0,0.65,-2.91,9.38,-18.88,-5.44,-22.88,-0.09,0.12,-0.89,0.43
38139,00:02:53,IMU3,0.0,0.0,0.0,-0.46,-0.96,9.65,-15.12,-34.94,-16.0,0.02,0.05,-0.99,0.15
38140,00:02:53,IMU1,0.0,0.0,0.0,1.42,-0.88,9.5,-2.19,-5.88,-29.88,0.06,-0.07,0.93,0.35
38140,00:02:53,IMU2,0.0,0.0,0.0,0.65,-2.91,9.38,-18.88,-5.44,-22.88,-0.09,0.12,-0.89,0.43
38140,00:02:53,IMU3,0.0,0.0,0.0,-0.46,-0.96,9.65,-13.31,-31.69,-15.94,0.02,0.05,-0.99,0.15
38141,00:02:53,IMU1,0.0,0.0,0.0,1.42,-0.88,9.5,-2.19,-5.88,-29.88,0.06,-0.07,0.93,0.35
38141,00:02:53,IMU2,0.0,0.0,0.0,0.65,-2.91,9.38,-18.88,-5.44,-22.88,-0.09,0.12,-0.89,0.43
38141,00:02:53,IMU3,0.0,0.0,0.0,-0.46,-0.96,9.65,-13.31,-31.69,-15.94,0.02,0.05,-0.99,0.15
38142,00:02:53,IMU1,0.0,0.0,0.0,1.42,-0.88,9.5,-2.19,-5.88,-29.88,0.06,-0.07,0.93,0.35
38142,00:02:53,IMU2,0.0,0.0,0.0,0.65,-2.91,9.38,-18.88,-5.44,-22.88,-0.09,0.12,-0.89,0.43
38142,00:02:53,IMU3,0.0,0.0,0.0,-0.46,-0.96,9.65,-13.31,-31.69,-15.94,0.02,0.05,-0.99,0.15
38143,00:02:53,IMU1,0.0,0.0,0.0,1.42,-0.88,9.5,-2.19,-5.88,-29.88,0.06,-0.07,0.93,0.35
38143,00:02:53,IMU2,0.0,0.0,0.0,0.65,-2.87,9.34,-18.88,-5.44,-22.88,-0.09,0.12,-0.89,0.43
38143,00:02:53,IMU3,0.0,0.0,0.0,-0.46,-0.96,9.65,-13.31,-31.69,-15.94,0.02,0.05,-0.99,0.15
38144,00:02:53,IMU1,0.0,0.0,0.0,1.42,-0.88,9.5,-2.19,-5.88,-29.88,0.06,-0.07,0.93,0.35
38144,00:02:53,IMU2,0.0,0.0,0.0,0.65,-2.87,9.34,-18.5,-8.31,-29.88,-0.09,0.12,-0.89,0.43
38144,00:02:53,IMU3,0.0,0.0,0.0,-0.46,-0.96,9.65,-13.31,-31.69,-15.94,0.02,0.05,-0.99,0.15
38145,00:02:53,IMU1,0.0,0.0,0.0,1.46,-0.92,9.42,-2.19,-5.88,-29.88,0.06,-0.07,0.93,0.35
38145,00:02:53,IMU2,0.0,0.0,0.0,0.65,-2.87,9.34,-18.5,-8.31,-29.88,-0.09,0.12,-0.89,0.43
38145,00:02:53,IMU3,0.0,0.0,0.0,-0.42,-0.92,9.58,-13.31,-31.69,-15.94,0.02,0.05,-0.99,0.15
38146,00:02:53,IMU1,0.0,0.0,0.0,1.46,-0.92,9.42,-2.56,-7.38,-31.88,0.06,-0.07,0.93,0.35
38146,00:02:53,IMU2,0.0,0.0,0.0,0.65,-2.87,9.34,-18.5,-8.31,-29.88,-0.09,0.12,-0.89,0.43
38146,00:02:53,IMU3,0.0,0.0,0.0,-0.42,-0.92,9.58,-13.31,-32.0,-13.25,0.02,0.05,-0.99,0.15
38147,00:02:53,IMU1,0.0,0.0,0.0,1.46,-0.92,9.42,-2.56,-7.38,-31.88,0.06,-0.07,0.93,0.35
38147,00:02:53,IMU2,0.0,0.0,0.0,0.69,-2.87,9.39,-18.5,-8.31,-29.88,-0.09,0.12,-0.89,0.43
38147,00:02:53,IMU3,0.0,0.0,0.0,-0.42,-0.92,9.58,-13.31,-32.0,-13.25,0.02,0.05,-0.99,0.15
38148,00:02:53,IMU1,0.0,0.0,0.0,1.46,-0.92,9.42,-2.56,-7.38,-31.88,0.06,-0.07,0.93,0.35
38148,00:02:53,IMU2,0.0,0.0,0.0,0.69,-2.87,9.39,-18.5,-8.31,-29.88,-0.09,0.12,-0.89,0.43
38148,00:02:53,IMU3,0.0,0.0,0.0,-0.42,-0.92,9.58,-13.31,-32.0,-13.25,0.02,0.05,-0.99,0.15
38149,00:02:53,IMU1,0.0,0.0,0.0,1.46,-0.92,9.42,-2.56,-7.38,-31.88,0.06,-0.07,0.93,0.35
38149,00:02:53,IMU2,0.0,0.0,0.0,0.69,-2.87,9.39,-18.5,-5.44,-27.94,-0.09,0.12,-0.89,0.43
38149,00:02:53,IMU3,0.0,0.0,0.0,-0.42,-0.92,9.58,-13.31,-32.0,-13.25,0.02,0.05,-0.99,0.15
38150,00:02:54,IMU1,0.0,0.0,0.0,1.46,-0.92,9.42,-2.56,-7.38,-31.88,0.06,-0.07,0.93,0.35
38150,00:02:54,IMU2,0.0,0.0,0.0,0.69,-2.87,9.39,-18.5,-5.44,-27.94,-0.09,0.12,-0.89,0.43
38150,00:02:54,IMU3,0.0,0.0,0.0,-0.42,-0.92,9.58,-13.31,-32.0,-13.25,0.02,0.05,-0.99,0.15
38151,00:02:56,IMU1,0.0,0.0,0.0,1.46,-0.92,9.42,-2.56,-7.38,-31.88,0.06,-0.07,0.93,0.35
38151,00:02:56,IMU2,0.0,0.0,0.0,0.69,-2.87,9.39,-18.5,-5.44,-27.94,-0.09,0.12,-0.89,0.43
38151,00:02:56,IMU3,0.0,0.0,0.0,-0.42,-0.92,9.58,-13.31,-32.0,-13.25,0.02,0.05,-0.99,0.15
38152,00:02:58,IMU1,0.0,0.0,0.0,1.46,-0.92,9.42,-2.56,-7.38,-31.88,0.06,-0.07,0.93,0.35
38152,00:02:58,IMU2,0.0,0.0,0.0,0.69,-2.87,9.39,-18.5,-5.44,-27.94,-0.09,0.12,-0.89,0.43
38152,00:02:58,IMU3,0.0,0.0,0.0,-0.42,-0.92,9.58,-13.31,-32.0,-13.25,0.02,0.05,-0.99,0.15
38153,00:03:00,IMU1,0.0,0.0,0.0,1.46,-0.92,9.42,-2.56,-7.38,-31.88,0.06,-0.07,0.93,0.35
38153,00:03:00,IMU2,0.0,0.0,0.0,0.69,-2.87,9.39,-18.5,-5.44,-27.94,-0.09,0.12,-0.89,0.43
38153,00:03:00,IMU3,0.0,0.0,0.0,-0.42,-0.92,9.58,-13.31,-32.0,-13.25,0.02,0.05,-0.99,0.15
38154,00:03:02,IMU1,0.0,0.0,0.0,1.42,-0.92,9.54,-2.56,-7.38,-31.88,0.06,-0.07,0.93,0.35
38154,00:03:02,IMU2,0.0,0.0,0.0,0.69,-2.87,9.39,-18.5,-5.44,-27.94,-0.09,0.12,-0.89,0.43
38154,00:03:02,IMU3,0.0,0.0,0.0,-0.42,-0.92,9.58,-13.31,-32.0,-13.25,0.02,0.05,-0.99,0.15
38155,00:03:02,IMU1,0.0,0.0,0.0,1.49,-0.88,9.5,-2.56,-7.38,-31.88,0.06,-0.07,0.93,0.35
38155,00:03:02,IMU2,0.0,0.0,0.0,0.65,-2.87,9.38,-18.5,-5.44,-27.94,-0.09,0.12,-0.89,0.43
38155,00:03:02,IMU3,0.0,0.0,0.0,-0.42,-0.92,9.58,-13.31,-32.0,-13.25,0.02,0.05,-0.99,0.15
38156,00:03:02,IMU1,0.0,0.0,0.0,1.49,-0.88,9.5,-2.56,-7.38,-31.88,0.05,-0.07,0.93,0.35
38156,00:03:02,IMU2,0.0,0.0,0.0,0.65,-2.87,9.38,-18.5,-5.44,-27.94,-0.09,0.12,-0.89,0.43
38156,00:03:02,IMU3,0.0,0.0,0.0,-0.46,-0.96,9.61,-13.31,-32.0,-13.25,0.02,0.05,-0.99,0.15
38157,00:03:02,IMU1,0.0,0.0,0.0,1.46,-0.88,9.54,-2.56,-7.38,-31.88,0.05,-0.07,0.93,0.35
38157,00:03:02,IMU2,0.0,0.0,0.0,0.65,-2.87,9.38,-18.5,-5.44,-27.94,-0.09,0.12,-0.89,0.43
38157,00:03:02,IMU3,0.0,0.0,0.0,-0.46,-0.96,9.61,-12.94,-30.56,-15.19,0.02,0.05,-0.99,0.15
38158,00:03:02,IMU1,0.0,0.0,0.0,1.46,-0.88,9.54,-2.56,-7.38,-31.88,0.05,-0.07,0.93,0.35
38158,00:03:02,IMU2,0.0,0.0,0.0,0.65,-2.87,9.38,-18.5,-5.44,-27.94,-0.09,0.12,-0.89,0.43
38158,00:03:02,IMU3,-0.01,0.0,0.0,-0.46,-0.96,9.61,-12.94,-30.56,-15.19,0.02,0.05,-0.99,0.15
38159,00:03:02,IMU1,0.0,0.0,0.0,1.46,-0.88,9.54,-0.69,-7.38,-33.44,0.05,-0.07,0.93,0.35
38159,00:03:02,IMU2,0.0,0.0,0.0,0.69,-2.87,9.39,-18.5,-5.44,-27.94,-0.09,0.12,-0.89,0.43
38159,00:03:02,IMU3,-0.01,0.0,0.0,-0.46,-0.96,9.61,-12.94,-30.56,-15.19,0.02,0.05,-0.99,0.15
38160,00:03:02,IMU1,0.0,0.0,0.0,1.46,-0.88,9.54,-0.69,-7.38,-33.44,0.05,-0.07,0.93,0.35
38160,00:03:02,IMU2,0.0,0.0,0.0,0.69,-2.87,9.39,-17.06,-4.31,-26.0,-0.09,0.12,-0.89,0.43
38160,00:03:02,IMU3,0.01,0.0,0.0,-0.46,-0.96,9.61,-12.94,-30.56,-15.19,0.02,0.05,-0.99,0.15
38161,00:03:02,IMU1,0.0,0.0,0.0,1.46,-0.88,9.54,-0.69,-7.38,-33.44,0.05,-0.07,0.93,0.35
38161,00:03:02,IMU2,0.0,0.0,0.0,0.69,-2.87,9.39,-17.06,-4.31,-26.0,-0.09,0.12,-0.89,0.43
38161,00:03:02,IMU3,0.01,0.0,0.0,-0.46,-0.96,9.61,-12.94,-30.56,-15.19,0.02,0.05,-0.99,0.15
38162,00:03:02,IMU1,0.0,0.0,0.0,1.46,-0.88,9.54,-0.69,-7.38,-33.44,0.05,-0.07,0.93,0.35
38162,00:03:02,IMU2,0.0,0.0,0.0,0.69,-2.87,9.39,-17.06,-4.31,-26.0,-0.09,0.12,-0.89,0.43
38162,00:03:02,IMU3,0.01,0.0,0.0,-0.42,-0.96,9.61,-12.94,-30.56,-15.19,0.02,0.05,-0.99,0.15
38163,00:03:02,IMU1,0.0,0.0,0.0,1.46,-0.88,9.54,-0.69,-7.38,-33.44,0.05,-0.07,0.93,0.35
38163,00:03:02,IMU2,0.0,0.0,0.0,0.69,-2.87,9.39,-17.06,-4.31,-26.0,-0.09,0.12,-0.89,0.43
38163,00:03:02,IMU3,0.01,0.0,0.0,-0.42,-0.96,9.61,-13.62,-35.25,-14.81,0.02,0.05,-0.99,0.15
38164,00:03:02,IMU1,0.0,0.0,0.0,1.46,-0.88,9.54,-0.69,-7.38,-33.44,0.05,-0.07,0.93,0.35
38164,00:03:02,IMU2,0.0,0.0,0.0,0.69,-2.87,9.39,-17.06,-4.31,-26.0,-0.09,0.12,-0.89,0.43
38164,00:03:02,IMU3,0.0,0.0,0.01,-0.42,-0.96,9.61,-13.62,-35.25,-14.81,0.02,0.05,-0.99,0.15
38165,00:03:02,IMU1,0.0,0.0,0.0,1.46,-0.88,9.54,-0.69,-7.38,-33.44,0.05,-0.07,0.93,0.35
38165,00:03:02,IMU2,0.0,0.0,0.0,0.69,-2.87,9.39,-17.06,-4.31,-26.0,-0.09,0.12,-0.89,0.43
38165,00:03:02,IMU3,0.0,0.0,0.01,-0.42,-0.96,9.61,-13.62,-35.25,-14.81,0.02,0.05,-0.99,0.15
38166,00:03:02,IMU1,0.0,0.0,0.0,1.46,-0.88,9.54,-0.69,-7.38,-33.44,0.05,-0.07,0.93,0.35
38166,00:03:02,IMU2,0.0,0.0,0.0,0.69,-2.87,9.39,-17.06,-4.31,-26.0,-0.09,0.12,-0.89,0.43
38166,00:03:02,IMU3,0.0,0.0,0.01,-0.42,-0.96,9.61,-13.62,-35.25,-14.81,0.02,0.05,-0.99,0.15
38167,00:03:02,IMU1,0.0,0.0,0.0,1.49,-0.88,9.5,-0.69,-7.38,-33.44,0.05,-0.07,0.93,0.35
38167,00:03:02,IMU2,0.0,0.0,0.0,0.69,-2.87,9.35,-17.06,-4.31,-26.0,-0.09,0.12,-0.89,0.43
38167,00:03:02,IMU3,0.0,0.0,0.01,-0.42,-0.96,9.61,-13.62,-35.25,-14.81,0.02,0.05,-0.99,0.15
38168,00:03:02,IMU1,0.0,0.0,0.0,1.49,-0.88,9.5,-1.06,-6.62,-28.69,0.05,-0.07,0.93,0.35
38168,00:03:02,IMU2,0.0,0.0,0.0,0.69,-2.87,9.35,-17.44,-6.12,-25.25,-0.09,0.12,-0.89,0.43
38168,00:03:02,IMU3,0.0,0.0,0.01,-0.42,-0.92,9.58,-13.62,-35.25,-14.81,0.02,0.05,-0.99,0.15
38169,00:03:02,IMU1,0.0,0.0,0.0,1.49,-0.88,9.5,-1.06,-6.62,-28.69,0.05,-0.07,0.93,0.35
38169,00:03:02,IMU2,0.0,0.0,0.0,0.69,-2.87,9.35,-17.44,-6.12,-25.25,-0.09,0.12,-0.89,0.43
38169,00:03:02,IMU3,0.0,0.0,0.01,-0.42,-0.92,9.58,-13.31,-33.81,-14.81,0.02,0.05,-0.99,0.15
38170,00:03:02,IMU1,0.0,0.0,0.0,1.49,-0.88,9.5,-1.06,-6.62,-28.69,0.05,-0.07,0.93,0.35
38170,00:03:02,IMU2,0.0,0.0,0.0,0.69,-2.87,9.35,-17.44,-6.12,-25.25,-0.09,0.12,-0.89,0.43
38170,00:03:02,IMU3,0.0,0.0,0.01,-0.42,-0.92,9.58,-13.31,-33.81,-14.81,0.02,0.05,-0.99,0.15
38171,00:03:02,IMU1,0.0,0.0,0.0,1.49,-0.88,9.5,-1.06,-6.62,-28.69,0.05,-0.07,0.93,0.35
38171,00:03:02,IMU2,0.0,0.0,0.0,0.69,-2.87,9.35,-17.44,-6.12,-25.25,-0.09,0.12,-0.89,0.43
38171,00:03:02,IMU3,0.0,0.0,0.01,-0.42,-0.92,9.58,-13.31,-33.81,-14.81,0.02,0.05,-0.99,0.15
38172,00:03:02,IMU1,0.0,0.0,0.0,1.49,-0.88,9.5,-1.06,-6.62,-28.69,0.05,-0.07,0.93,0.35
38172,00:03:02,IMU2,0.0,0.0,0.0,0.69,-2.87,9.35,-17.44,-6.12,-25.25,-0.09,0.12,-0.89,0.43
38172,00:03:02,IMU3,0.0,0.0,0.0,-0.42,-0.92,9.58,-13.31,-33.81,-14.81,0.02,0.05,-0.99,0.15
38173,00:03:02,IMU1,0.0,0.0,0.0,1.49,-0.88,9.5,-1.06,-6.62,-28.69,0.05,-0.07,0.93,0.35
38173,00:03:02,IMU2,0.0,0.0,0.0,0.69,-2.87,9.35,-17.44,-6.12,-25.25,-0.09,0.12,-0.89,0.43
38173,00:03:02,IMU3,0.0,0.0,0.0,-0.42,-0.92,9.58,-13.31,-33.81,-14.81,0.02,0.05,-0.99,0.15
38174,00:03:02,IMU1,0.0,0.0,0.0,1.49,-0.88,9.5,-1.06,-6.62,-28.69,0.05,-0.07,0.93,0.35
38174,00:03:02,IMU2,0.0,0.0,0.0,0.69,-2.87,9.35,-17.44,-6.12,-25.25,-0.09,0.12,-0.89,0.43
38174,00:03:02,IMU3,0.0,0.0,0.0,-0.42,-0.92,9.58,-13.31,-33.81,-14.81,0.02,0.05,-0.99,0.15
38175,00:03:02,IMU1,0.0,0.0,0.0,1.46,-0.92,9.54,-1.06,-6.62,-28.69,0.05,-0.07,0.93,0.35
38175,00:03:02,IMU2,0.0,0.0,0.0,0.65,-2.84,9.38,-17.44,-6.12,-25.25,-0.09,0.12,-0.89,0.43
38175,00:03:02,IMU3,0.0,0.0,0.0,-0.42,-0.92,9.58,-13.31,-33.81,-14.81,0.02,0.05,-0.99,0.15
38176,00:03:02,IMU1,0.0,0.0,0.0,1.46,-0.92,9.54,0.0,-7.0,-29.5,0.05,-0.07,0.93,0.35
38176,00:03:02,IMU2,0.0,0.0,0.0,0.65,-2.84,9.38,-18.19,-5.44,-27.19,-0.09,0.12,-0.89,0.43
38176,00:03:02,IMU3,0.0,0.0,0.0,-0.42,-0.96,9.54,-13.31,-33.81,-14.81,0.02,0.05,-0.99,0.15
38177,00:03:02,IMU1,0.0,0.0,0.0,1.46,-0.92,9.54,0.0,-7.0,-29.5,0.05,-0.07,0.93,0.35
38177,00:03:02,IMU2,0.0,0.0,0.0,0.65,-2.84,9.38,-18.19,-5.44,-27.19,-0.09,0.12,-0.89,0.43
38177,00:03:02,IMU3,0.0,0.0,0.0,-0.42,-0.96,9.54,-12.56,-33.12,-11.25,0.02,0.05,-0.99,0.15
38178,00:03:02,IMU1,0.0,0.0,0.0,1.46,-0.92,9.54,0.0,-7.0,-29.5,0.05,-0.07,0.93,0.35
38178,00:03:02,IMU2,0.0,0.0,0.0,0.65,-2.84,9.38,-18.19,-5.44,-27.19,-0.09,0.12,-0.89,0.43
38178,00:03:02,IMU3,0.0,0.0,0.0,-0.42,-0.96,9.54,-12.56,-33.12,-11.25,0.02,0.05,-0.99,0.15
38179,00:03:02,IMU1,0.0,0.0,0.0,1.46,-0.92,9.54,0.0,-7.0,-29.5,0.05,-0.07,0.93,0.35
38179,00:03:02,IMU2,0.0,0.0,0.0,0.65,-2.84,9.38,-18.19,-5.44,-27.19,-0.09,0.12,-0.89,0.43
38179,00:03:02,IMU3,0.0,0.0,0.0,-0.42,-0.96,9.54,-12.56,-33.12,-11.25,0.02,0.05,-0.99,0.15
38180,00:03:02,IMU1,0.0,0.0,0.0,1.46,-0.92,9.54,0.0,-7.0,-29.5,0.05,-0.07,0.93,0.35
38180,00:03:02,IMU2,0.0,0.0,0.0,0.65,-2.84,9.38,-18.19,-5.44,-27.19,-0.09,0.12,-0.89,0.43
38180,00:03:02,IMU3,0.0,0.0,0.0,-0.42,-0.96,9.54,-12.56,-33.12,-11.25,0.02,0.05,-0.99,0.15
38181,00:03:02,IMU1,0.0,0.0,0.0,1.46,-0.92,9.5,0.0,-7.0,-29.5,0.05,-0.07,0.93,0.35
38181,00:03:02,IMU2,0.0,0.0,0.0,0.61,-2.91,9.38,-18.19,-5.44,-27.19,-0.09,0.12,-0.89,0.43
38181,00:03:02,IMU3,0.0,0.0,0.0,-0.42,-0.96,9.54,-12.56,-33.12,-11.25,0.02,0.05,-0.99,0.15
38182,00:03:02,IMU1,0.0,0.0,0.0,1.46,-0.92,9.5,-0.69,-8.5,-31.44,0.05,-0.07,0.93,0.35
38182,00:03:02,IMU2,0.0,0.0,0.0,0.61,-2.91,9.38,-18.5,-5.06,-27.94,-0.09,0.12,-0.89,0.43
38182,00:03:02,IMU3,0.0,0.0,0.0,-0.42,-0.96,9.58,-12.56,-33.12,-11.25,0.02,0.05,-0.99,0.15
38183,00:03:02,IMU1,0.0,0.0,0.0,1.46,-0.92,9.5,-0.69,-8.5,-31.44,0.05,-0.07,0.93,0.35
38183,00:03:02,IMU2,0.0,0.0,0.0,0.61,-2.91,9.38,-18.5,-5.06,-27.94,-0.09,0.12,-0.89,0.43
38183,00:03:02,IMU3,0.0,0.0,0.0,-0.42,-0.96,9.58,-12.56,-33.44,-12.06,0.02,0.05,-0.99,0.15
38184,00:03:02,IMU1,0.0,0.0,0.0,1.46,-0.92,9.5,-0.69,-8.5,-31.44,0.05,-0.07,0.93,0.35
38184,00:03:02,IMU2,0.0,0.0,0.0,0.61,-2.91,9.38,-18.5,-5.06,-27.94,-0.09,0.12,-0.89,0.43
38184,00:03:02,IMU3,0.0,0.0,0.0,-0.42,-0.96,9.58,-12.56,-33.44,-12.06,0.02,0.05,-0.99,0.15
38185,00:03:02,IMU1,0.0,0.0,0.0,1.46,-0.92,9.5,-0.69,-8.5,-31.44,0.05,-0.07,0.93,0.35
38185,00:03:02,IMU2,0.0,0.0,0.0,0.61,-2.91,9.38,-18.5,-5.06,-27.94,-0.09,0.12,-0.89,0.43
38185,00:03:02,IMU3,0.0,0.0,0.0,-0.42,-0.96,9.58,-12.56,-33.44,-12.06,0.02,0.05,-0.99,0.15
38186,00:03:02,IMU1,0.0,0.0,0.0,1.46,-0.92,9.5,-0.69,-8.5,-31.44,0.05,-0.07,0.93,0.35
38186,00:03:02,IMU2,0.0,0.0,0.0,0.61,-2.91,9.38,-18.5,-5.06,-27.94,-0.09,0.12,-0.89,0.43
38186,00:03:02,IMU3,0.0,0.0,0.0,-0.42,-0.92,9.58,-12.56,-33.44,-12.06,0.02,0.05,-0.99,0.15
38187,00:03:02,IMU1,0.0,0.0,0.0,1.46,-0.92,9.5,-0.69,-8.5,-31.44,0.05,-0.07,0.93,0.35
38187,00:03:02,IMU2,0.0,0.0,0.0,0.65,-2.87,9.34,-18.5,-5.06,-27.94,-0.09,0.12,-0.89,0.43
38187,00:03:02,IMU3,0.0,0.0,0.0,-0.42,-0.92,9.58,-13.31,-33.44,-17.5,0.02,0.05,-0.99,0.15
38188,00:03:02,IMU1,0.0,0.0,0.0,1.46,-0.92,9.5,-0.69,-8.5,-31.44,0.05,-0.07,0.93,0.35
38188,00:03:02,IMU2,0.0,0.0,0.0,0.65,-2.87,9.34,-18.5,-5.06,-27.94,-0.09,0.12,-0.89,0.43
38188,00:03:02,IMU3,0.0,0.0,0.0,-0.42,-0.92,9.58,-13.31,-33.44,-17.5,0.02,0.05,-0.99,0.15
38189,00:03:02,IMU1,0.0,0.0,0.0,1.42,-0.88,9.5,-0.69,-8.5,-31.44,0.05,-0.07,0.93,0.35
38189,00:03:02,IMU2,0.0,0.0,0.0,0.65,-2.87,9.34,-17.44,-3.25,-28.75,-0.09,0.12,-0.89,0.43
38189,00:03:02,IMU3,0.0,0.0,0.0,-0.42,-0.92,9.58,-13.31,-33.44,-17.5,0.02,0.05,-0.99,0.15
38190,00:03:02,IMU1,0.0,0.0,0.0,1.42,-0.88,9.5,-1.06,-8.12,-33.88,0.05,-0.07,0.93,0.35
38190,00:03:02,IMU2,0.0,0.0,0.0,0.65,-2.87,9.34,-17.44,-3.25,-28.75,-0.09,0.12,-0.89,0.43
38190,00:03:02,IMU3,0.0,0.0,0.0,-0.42,-0.92,9.58,-13.31,-33.44,-17.5,0.02,0.05,-0.99,0.15
38191,00:03:02,IMU1,0.0,0.0,0.0,1.42,-0.88,9.5,-1.06,-8.12,-33.88,0.05,-0.07,0.93,0.35
38191,00:03:02,IMU2,0.0,0.0,0.0,0.65,-2.87,9.34,-17.44,-3.25,-28.75,-0.09,0.12,-0.89,0.43
38191,00:03:02,IMU3,0.0,0.0,0.0,-0.42,-0.92,9.58,-13.31,-33.44,-17.5,0.02,0.05,-0.99,0.15
38192,00:03:02,IMU1,0.0,0.0,0.0,1.42,-0.88,9.5,-1.06,-8.12,-33.88,0.05,-0.07,0.93,0.35
38192,00:03:02,IMU2,0.0,0.0,0.0,0.65,-2.87,9.34,-17.44,-3.25,-28.75,-0.09,0.12,-0.89,0.43
38192,00:03:02,IMU3,0.0,0.0,0.0,-0.42,-0.92,9.58,-13.31,-33.44,-17.5,0.02,0.05,-0.99,0.15
38193,00:03:02,IMU1,0.0,0.0,0.0,1.42,-0.88,9.5,-1.06,-8.12,-33.88,0.05,-0.07,0.93,0.35
38193,00:03:02,IMU2,0.0,0.0,0.0,0.61,-2.87,9.38,-17.44,-3.25,-28.75,-0.09,0.12,-0.89,0.43
38193,00:03:02,IMU3,0.0,0.0,0.0,-0.42,-0.92,9.58,-13.31,-33.44,-17.5,0.02,0.05,-0.99,0.15
38194,00:03:02,IMU1,0.0,0.0,0.0,1.42,-0.88,9.5,-1.06,-8.12,-33.88,0.05,-0.07,0.93,0.35
38194,00:03:02,IMU2,0.0,0.0,0.0,0.61,-2.87,9.38,-17.44,-6.5,-24.06,-0.09,0.12,-0.89,0.43
38194,00:03:02,IMU3,0.0,0.0,0.0,-0.46,-0.96,9.61,-13.31,-33.44,-17.5,0.02,0.05,-0.99,0.15
38195,00:03:02,IMU1,0.0,0.0,0.0,1.46,-0.88,9.54,-1.06,-8.12,-33.88,0.05,-0.07,0.93,0.35
38195,00:03:02,IMU2,0.0,0.0,0.0,0.61,-2.87,9.38,-17.44,-6.5,-24.06,-0.09,0.12,-0.89,0.43
38195,00:03:02,IMU3,0.0,0.0,0.0,-0.46,-0.96,9.61,-13.31,-35.25,-15.19,0.02,0.05,-0.99,0.15
38196,00:03:02,IMU1,0.0,0.0,0.0,1.46,-0.88,9.54,-1.06,-8.12,-33.88,0.05,-0.07,0.93,0.35
38196,00:03:02,IMU2,0.0,0.0,0.0,0.61,-2.87,9.38,-17.44,-6.5,-24.06,-0.09,0.12,-0.89,0.43
38196,00:03:02,IMU3,0.0,0.0,0.0,-0.46,-0.96,9.61,-13.31,-35.25,-15.19,0.02,0.05,-0.99,0.15
38197,00:03:02,IMU1,0.0,0.0,0.0,1.46,-0.88,9.54,-0.31,-7.0,-29.88,0.05,-0.07,0.93,0.35
38197,00:03:02,IMU2,0.0,0.0,0.0,0.61,-2.87,9.38,-17.44,-6.5,-24.06,-0.09,0.12,-0.89,0.43
38197,00:03:02,IMU3,0.0,0.0,0.0,-0.46,-0.96,9.61,-13.31,-35.25,-15.19,0.02,0.05,-0.99,0.15
38198,00:03:02,IMU1,0.0,0.0,0.0,1.46,-0.88,9.54,-0.31,-7.0,-29.88,0.05,-0.07,0.93,0.35
38198,00:03:02,IMU2,0.0,0.0,0.0,0.61,-2.87,9.38,-17.44,-6.5,-24.06,-0.09,0.12,-0.89,0.43
38198,00:03:02,IMU3,0.0,0.0,0.0,-0.46,-0.96,9.58,-13.31,-35.25,-15.19,0.02,0.05,-0.99,0.15
38199,00:03:02,IMU1,0.0,0.0,0.0,1.46,-0.88,9.54,-0.31,-7.0,-29.88,0.05,-0.07,0.93,0.35
38199,00:03:02,IMU2,0.0,0.0,0.0,0.61,-2.87,9.38,-17.44,-6.5,-24.06,-0.09,0.12,-0.89,0.43
38199,00:03:02,IMU3,0.0,0.0,0.0,-0.46,-0.96,9.58,-13.62,-33.81,-16.38,0.02,0.05,-0.99,0.15
38200,00:03:02,IMU1,0.0,0.0,0.0,1.46,-0.88,9.54,-0.31,-7.0,-29.88,0.05,-0.07,0.93,0.35
38200,00:03:02,IMU2,0.0,0.0,0.0,0.61,-2.87,9.38,-17.44,-6.5,-24.06,-0.09,0.12,-0.89,0.43
38200,00:03:02,IMU3,0.0,0.0,0.0,-0.46,-0.96,9.58,-13.62,-33.81,-16.38,0.02,0.05,-0.99,0.15
38201,00:03:02,IMU1,0.0,0.0,0.0,1.46,-0.88,9.54,-0.31,-7.0,-29.88,0.05,-0.07,0.93,0.35
38201,00:03:02,IMU2,0.0,0.0,0.0,0.61,-2.87,9.34,-17.44,-6.5,-24.06,-0.09,0.12,-0.89,0.43
38201,00:03:02,IMU3,0.0,0.0,0.0,-0.46,-0.96,9.58,-13.62,-33.81,-16.38,0.02,0.05,-0.99,0.15
38202,00:03:02,IMU1,0.0,0.0,0.0,1.46,-0.88,9.54,-0.31,-7.0,-29.88,0.05,-0.07,0.93,0.35
38202,00:03:02,IMU2,0.0,0.0,0.0,0.61,-2.87,9.34,-17.44,-6.88,-26.38,-0.09,0.12,-0.89,0.43
38202,00:03:02,IMU3,0.0,0.0,0.0,-0.46,-0.96,9.58,-13.62,-33.81,-16.38,0.02,0.05,-0.99,0.15
38203,00:03:02,IMU1,0.0,0.0,0.0,1.38,-0.84,9.54,-0.31,-7.0,-29.88,0.05,-0.07,0.93,0.35
38203,00:03:02,IMU2,0.0,0.0,0.0,0.61,-2.87,9.34,-17.44,-6.88,-26.38,-0.09,0.12,-0.89,0.43
38203,00:03:02,IMU3,0.0,0.0,0.0,-0.46,-0.96,9.58,-13.62,-33.81,-16.38,0.02,0.05,-0.99,0.15
38204,00:03:02,IMU1,0.0,0.0,0.0,1.38,-0.84,9.54,-1.06,-7.0,-28.69,0.05,-0.07,0.93,0.35
38204,00:03:02,IMU2,0.0,0.0,0.0,0.61,-2.87,9.34,-17.44,-6.88,-26.38,-0.09,0.12,-0.89,0.43
38204,00:03:02,IMU3,0.0,0.0,0.0,-0.42,-0.92,9.61,-13.62,-33.81,-16.38,0.02,0.05,-0.99,0.15
38205,00:03:02,IMU1,0.0,0.0,0.0,1.38,-0.84,9.54,-1.06,-7.0,-28.69,0.05,-0.07,0.93,0.35
38205,00:03:02,IMU2,0.0,0.0,0.0,0.61,-2.87,9.34,-17.44,-6.88,-26.38,-0.09,0.12,-0.89,0.43
38205,00:03:02,IMU3,0.0,0.0,0.0,-0.42,-0.92,9.61,-13.31,-32.75,-16.38,0.02,0.05,-0.99,0.15
38206,00:03:02,IMU1,0.0,0.0,0.0,1.38,-0.84,9.54,-1.06,-7.0,-28.69,0.05,-0.07,0.93,0.35
38206,00:03:02,IMU2,0.0,0.0,0.0,0.61,-2.87,9.34,-17.44,-6.88,-26.38,-0.09,0.12,-0.89,0.43
38206,00:03:02,IMU3,0.0,0.0,0.0,-0.42,-0.92,9.61,-13.31,-32.75,-16.38,0.02,0.05,-0.99,0.15
38207,00:03:02,IMU1,0.0,0.0,0.0,1.38,-0.84,9.54,-1.06,-7.0,-28.69,0.05,-0.07,0.93,0.35
38207,00:03:02,IMU2,0.0,0.0,0.0,0.65,-2.91,9.43,-17.44,-6.88,-26.38,-0.09,0.12,-0.89,0.43
38207,00:03:02,IMU3,0.0,0.0,0.0,-0.42,-0.92,9.61,-13.31,-32.75,-16.38,0.02,0.05,-0.99,0.15
38208,00:03:02,IMU1,0.0,0.0,0.0,1.38,-0.84,9.54,-1.06,-7.0,-28.69,0.05,-0.07,0.93,0.35
38208,00:03:02,IMU2,0.0,0.0,0.0,0.65,-2.91,9.43,-17.44,-6.88,-26.38,-0.09,0.12,-0.89,0.43
38208,00:03:02,IMU3,0.0,0.0,0.0,-0.42,-0.92,9.61,-13.31,-32.75,-16.38,0.02,0.05,-0.99,0.15
38209,00:03:02,IMU1,0.0,0.0,0.0,1.38,-0.84,9.54,-1.06,-7.0,-28.69,0.05,-0.07,0.93,0.35
38209,00:03:02,IMU2,0.0,0.0,0.0,0.65,-2.91,9.43,-19.25,-5.06,-23.69,-0.09,0.12,-0.89,0.43
38209,00:03:02,IMU3,0.0,0.0,0.0,-0.42,-0.92,9.61,-13.31,-32.75,-16.38,0.02,0.05,-0.99,0.15
38210,00:03:02,IMU1,0.0,0.0,0.0,1.38,-0.84,9.54,-1.06,-7.0,-28.69,0.05,-0.07,0.93,0.35
38210,00:03:02,IMU2,0.0,0.0,0.0,0.65,-2.91,9.43,-19.25,-5.06,-23.69,-0.09,0.12,-0.89,0.43
38210,00:03:02,IMU3,0.0,0.0,0.0,-0.42,-0.92,9.61,-13.31,-32.75,-16.38,0.02,0.05,-0.99,0.15
38211,00:03:02,IMU1,0.0,0.0,0.0,1.46,-0.88,9.5,-1.06,-7.0,-28.69,0.05,-0.07,0.93,0.35
38211,00:03:02,IMU2,0.0,0.0,0.0,0.65,-2.91,9.43,-19.25,-5.06,-23.69,-0.09,0.12,-0.89,0.43
38211,00:03:02,IMU3,0.0,0.0,0.0,-0.42,-0.92,9.61,-13.31,-32.75,-16.38,0.02,0.05,-0.99,0.15
38212,00:03:02,IMU1,0.0,0.0,0.0,1.46,-0.88,9.5,-1.44,-5.12,-30.69,0.05,-0.07,0.93,0.35
38212,00:03:02,IMU2,0.0,0.0,0.0,0.65,-2.91,9.43,-19.25,-5.06,-23.69,-0.09,0.12,-0.89,0.43
38212,00:03:02,IMU3,0.0,0.0,0.0,-0.42,-0.96,9.58,-13.31,-32.75,-16.38,0.02,0.05,-0.99,0.15
38213,00:03:02,IMU1,0.0,0.0,0.0,1.46,-0.88,9.5,-1.44,-5.12,-30.69,0.05,-0.07,0.93,0.35
38213,00:03:02,IMU2,0.0,0.0,0.0,0.65,-2.91,9.43,-19.25,-5.06,-23.69,-0.09,0.12,-0.89,0.43
38213,00:03:02,IMU3,0.0,0.0,0.0,-0.42,-0.96,9.58,-12.56,-32.75,-12.44,0.02,0.05,-0.99,0.15
38214,00:03:02,IMU1,0.0,0.0,0.0,1.46,-0.88,9.5,-1.44,-5.12,-30.69,0.05,-0.07,0.93,0.35
38214,00:03:02,IMU2,0.0,0.0,0.0,0.65,-2.91,9.43,-19.25,-5.06,-23.69,-0.09,0.12,-0.89,0.43
38214,00:03:02,IMU3,0.0,0.0,0.0,-0.42,-0.96,9.58,-12.56,-32.75,-12.44,0.02,0.05,-0.99,0.15
38215,00:03:02,IMU1,0.0,0.0,0.0,1.46,-0.88,9.5,-1.44,-5.12,-30.69,0.05,-0.07,0.93,0.35
38215,00:03:02,IMU2,0.0,0.0,0.0,0.69,-2.87,9.35,-19.25,-5.06,-23.69,-0.09,0.12,-0.89,0.43
38215,00:03:02,IMU3,0.0,0.0,0.0,-0.42,-0.96,9.58,-12.56,-32.75,-12.44,0.02,0.05,-0.99,0.15
38216,00:03:02,IMU1,0.0,0.0,0.0,1.46,-0.88,9.5,-1.44,-5.12,-30.69,0.05,-0.07,0.93,0.35
38216,00:03:02,IMU2,0.0,0.0,0.0,0.69,-2.87,9.35,-17.44,-5.06,-27.94,-0.09,0.12,-0.89,0.43
38216,00:03:02,IMU3,0.0,0.0,0.0,-0.42,-0.96,9.58,-12.56,-32.75,-12.44,0.02,0.05,-0.99,0.15
38217,00:03:02,IMU1,0.0,0.0,0.0,1.46,-0.88,9.5,-1.44,-5.12,-30.69,0.05,-0.07,0.93,0.35
38217,00:03:02,IMU2,0.0,0.0,0.0,0.69,-2.87,9.35,-17.44,-5.06,-27.94,-0.09,0.12,-0.89,0.43
38217,00:03:02,IMU3,0.0,0.0,0.0,-0.42,-0.96,9.58,-12.56,-32.75,-12.44,0.02,0.05,-0.99,0.15
38218,00:03:02,IMU1,0.0,0.0,0.0,1.46,-0.88,9.5,-1.44,-5.12,-30.69,0.05,-0.07,0.93,0.35
38218,00:03:02,IMU2,0.0,0.0,0.0,0.69,-2.87,9.35,-17.44,-5.06,-27.94,-0.09,0.12,-0.89,0.43
38218,00:03:02,IMU3,0.0,0.0,0.0,-0.46,-0.96,9.61,-12.56,-32.75,-12.44,0.02,0.05,-0.99,0.15
38219,00:03:02,IMU1,0.0,0.0,0.0,1.49,-0.88,9.46,-1.44,-5.12,-30.69,0.05,-0.07,0.93,0.35
38219,00:03:02,IMU2,0.0,0.0,0.0,0.69,-2.87,9.35,-17.44,-5.06,-27.94,-0.09,0.12,-0.89,0.43
38219,00:03:02,IMU3,0.0,0.0,0.0,-0.46,-0.96,9.61,-13.62,-33.44,-15.94,0.02,0.05,-0.99,0.15
38220,00:03:02,IMU1,0.0,0.0,0.0,1.49,-0.88,9.46,-0.69,-8.88,-30.69,0.05,-0.07,0.93,0.35
38220,00:03:02,IMU2,0.0,0.0,0.0,0.69,-2.87,9.35,-17.44,-5.06,-27.94,-0.09,0.12,-0.89,0.43
38220,00:03:02,IMU3,0.0,0.0,0.0,-0.46,-0.96,9.61,-13.62,-33.44,-15.94,0.02,0.05,-0.99,0.15
38221,00:03:02,IMU1,0.0,0.0,0.0,1.49,-0.88,9.46,-0.69,-8.88,-30.69,0.05,-0.07,0.93,0.35
38221,00:03:02,IMU2,0.0,0.0,0.0,0.69,-2.87,9.3,-17.44,-5.06,-27.94,-0.09,0.12,-0.89,0.43
38221,00:03:02,IMU3,0.0,0.0,0.0,-0.46,-0.96,9.61,-13.62,-33.44,-15.94,0.02,0.05,-0.99,0.15
38222,00:03:02,IMU1,0.0,0.0,0.0,1.49,-0.88,9.46,-0.69,-8.88,-30.69,0.05,-0.07,0.93,0.35
38222,00:03:02,IMU2,0.0,0.0,0.0,0.69,-2.87,9.3,-17.44,-6.88,-25.62,-0.09,0.12,-0.89,0.43
38222,00:03:02,IMU3,0.0,0.0,0.0,-0.46,-0.96,9.61,-13.62,-33.44,-15.94,0.02,0.05,-0.99,0.15
38223,00:03:02,IMU1,0.0,0.0,0.0,1.49,-0.88,9.46,-0.69,-8.88,-30.69,0.05,-0.07,0.93,0.35
38223,00:03:02,IMU2,0.0,0.0,0.0,0.69,-2.87,9.3,-17.44,-6.88,-25.62,-0.09,0.12,-0.89,0.43
38223,00:03:02,IMU3,0.0,0.0,0.0,-0.46,-0.96,9.61,-13.62,-33.44,-15.94,0.02,0.05,-0.99,0.15
38224,00:03:02,IMU1,0.0,0.0,0.0,1.49,-0.88,9.46,-0.69,-8.88,-30.69,0.05,-0.07,0.93,0.35
38224,00:03:02,IMU2,0.0,0.0,0.0,0.69,-2.87,9.3,-17.44,-6.88,-25.62,-0.09,0.12,-0.89,0.43
38224,00:03:02,IMU3,0.0,0.0,0.0,-0.42,-0.96,9.61,-13.62,-33.44,-15.94,0.02,0.05,-0.99,0.15
38225,00:03:02,IMU1,0.0,0.0,0.0,1.49,-0.88,9.46,-0.69,-8.88,-30.69,0.05,-0.07,0.93,0.35
38225,00:03:02,IMU2,0.0,0.0,0.0,0.69,-2.87,9.35,-17.44,-6.88,-25.62,-0.09,0.12,-0.89,0.43
38225,00:03:02,IMU3,0.0,0.0,0.0,-0.42,-0.96,9.61,-13.31,-32.38,-15.94,0.02,0.05,-0.99,0.15
38226,00:03:02,IMU1,0.0,0.0,0.0,1.49,-0.88,9.46,-0.69,-8.88,-30.69,0.05,-0.07,0.93,0.35
38226,00:03:02,IMU2,0.0,0.0,0.0,0.69,-2.87,9.35,-17.81,-6.5,-27.19,-0.09,0.12,-0.89,0.43
38226,00:03:02,IMU3,0.0,0.0,0.0,-0.42,-0.96,9.61,-13.31,-32.38,-15.94,0.02,0.05,-0.99,0.15
38227,00:03:02,IMU1,0.0,0.0,0.0,1.42,-0.88,9.54,-0.69,-8.88,-30.69,0.05,-0.07,0.93,0.35
38227,00:03:02,IMU2,0.0,0.0,0.0,0.69,-2.87,9.35,-17.81,-6.5,-27.19,-0.09,0.12,-0.89,0.43
38227,00:03:02,IMU3,0.0,0.0,0.0,-0.42,-0.96,9.61,-13.31,-32.38,-15.94,0.02,0.05,-0.99,0.15
38228,00:03:02,IMU1,0.0,0.0,0.0,1.42,-0.88,9.54,-2.19,-7.38,-31.88,0.05,-0.07,0.93,0.35
38228,00:03:02,IMU2,0.0,0.0,0.0,0.69,-2.87,9.35,-17.81,-6.5,-27.19,-0.09,0.12,-0.89,0.43
38228,00:03:02,IMU3,0.0,0.0,0.0,-0.42,-0.96,9.61,-13.31,-32.38,-15.94,0.02,0.05,-0.99,0.15
38229,00:03:02,IMU1,0.0,0.0,0.0,1.42,-0.88,9.54,-2.19,-7.38,-31.88,0.05,-0.07,0.93,0.35
38229,00:03:02,IMU2,0.0,0.0,0.0,0.69,-2.87,9.35,-17.81,-6.5,-27.19,-0.09,0.12,-0.89,0.43
38229,00:03:02,IMU3,0.0,0.0,0.0,-0.42,-0.96,9.61,-13.31,-32.38,-15.94,0.02,0.05,-0.99,0.15
38230,00:03:02,IMU1,0.0,0.0,0.0,1.42,-0.88,9.54,-2.19,-7.38,-31.88,0.05,-0.07,0.93,0.35
38230,00:03:02,IMU2,0.0,0.0,0.0,0.69,-2.87,9.35,-17.81,-6.5,-27.19,-0.09,0.12,-0.89,0.43
38230,00:03:02,IMU3,0.0,0.0,0.0,-0.46,-0.92,9.58,-13.31,-32.38,-15.94,0.02,0.05,-0.99,0.15
38231,00:03:02,IMU1,0.0,0.0,0.0,1.42,-0.88,9.54,-2.19,-7.38,-31.88,0.05,-0.07,0.93,0.35
38231,00:03:02,IMU2,0.0,0.0,0.0,0.69,-2.87,9.35,-17.81,-6.5,-27.19,-0.09,0.12,-0.89,0.43
38231,00:03:02,IMU3,0.0,0.0,0.0,-0.46,-0.92,9.58,-12.56,-33.44,-16.75,0.02,0.05,-0.99,0.15
38232,00:03:02,IMU1,0.0,0.0,0.0,1.42,-0.88,9.54,-2.19,-7.38,-31.88,0.05,-0.07,0.93,0.35
38232,00:03:02,IMU2,0.0,0.0,0.0,0.69,-2.87,9.35,-17.81,-6.5,-27.19,-0.09,0.12,-0.89,0.43
38232,00:03:02,IMU3,0.0,0.0,0.0,-0.46,-0.92,9.58,-12.56,-33.44,-16.75,0.02,0.05,-0.99,0.15
38233,00:03:02,IMU1,0.0,0.0,0.0,1.46,-0.88,9.5,-2.19,-7.38,-31.88,0.05,-0.07,0.93,0.35
38233,00:03:02,IMU2,0.0,0.0,0.0,0.65,-2.95,9.39,-17.81,-6.5,-27.19,-0.09,0.12,-0.89,0.43
38233,00:03:02,IMU3,0.0,0.0,0.0,-0.46,-0.92,9.58,-12.56,-33.44,-16.75,0.02,0.05,-0.99,0.15
38234,00:03:02,IMU1,0.0,0.0,0.0,1.46,-0.88,9.5,-0.69,-5.88,-27.88,0.05,-0.07,0.93,0.35
38234,00:03:02,IMU2,0.0,0.0,0.0,0.65,-2.95,9.39,-17.81,-5.44,-22.12,-0.09,0.12,-0.89,0.43
38234,00:03:02,IMU3,0.0,0.0,0.0,-0.46,-0.96,9.58,-12.56,-33.44,-16.75,0.02,0.05,-0.99,0.15
38235,00:03:02,IMU1,0.0,0.0,0.0,1.46,-0.88,9.5,-0.69,-5.88,-27.88,0.05,-0.07,0.93,0.35
38235,00:03:02,IMU2,0.0,0.0,0.0,0.65,-2.95,9.39,-17.81,-5.44,-22.12,-0.09,0.12,-0.89,0.43
38235,00:03:02,IMU3,0.0,0.0,0.0,-0.46,-0.96,9.58,-12.56,-33.44,-16.75,0.02,0.05,-0.99,0.15
38236,00:03:02,IMU1,0.0,0.0,0.0,1.46,-0.88,9.5,-0.69,-5.88,-27.88,0.05,-0.07,0.93,0.35
38236,00:03:02,IMU2,0.0,0.0,0.0,0.65,-2.95,9.39,-17.81,-5.44,-22.12,-0.09,0.12,-0.89,0.43
38236,00:03:02,IMU3,0.0,0.0,0.0,-0.46,-0.96,9.58,-11.5,-30.56,-15.19,0.02,0.05,-0.99,0.15
38237,00:03:02,IMU1,0.0,0.0,0.0,1.46,-0.88,9.5,-0.69,-5.88,-27.88,0.05,-0.07,0.93,0.35
38237,00:03:02,IMU2,0.0,0.0,0.0,0.65,-2.95,9.39,-17.81,-5.44,-22.12,-0.09,0.12,-0.89,0.43
38237,00:03:02,IMU3,0.0,0.0,0.0,-0.46,-0.96,9.58,-11.5,-30.56,-15.19,0.02,0.05,-0.99,0.15
38238,00:03:02,IMU1,0.0,0.0,0.0,1.46,-0.88,9.5,-0.69,-5.88,-27.88,0.05,-0.07,0.93,0.35
38238,00:03:02,IMU2,0.0,0.0,0.0,0.65,-2.95,9.39,-17.81,-5.44,-22.12,-0.09,0.12,-0.89,0.43
38238,00:03:02,IMU3,0.0,0.0,0.0,-0.46,-0.96,9.58,-11.5,-30.56,-15.19,0.02,0.05,-0.99,0.15
38239,00:03:02,IMU1,0.0,0.0,0.0,1.46,-0.88,9.5,-0.69,-5.88,-27.88,0.05,-0.07,0.93,0.35
38239,00:03:02,IMU2,0.0,0.0,0.0,0.65,-2.95,9.39,-17.81,-5.44,-22.12,-0.09,0.12,-0.89,0.43
38239,00:03:02,IMU3,0.0,0.0,0.0,-0.46,-0.96,9.58,-11.5,-30.56,-15.19,0.02,0.05,-0.99,0.15
38240,00:03:02,IMU1,0.0,0.0,0.0,1.46,-0.88,9.5,-0.69,-5.88,-27.88,0.05,-0.07,0.93,0.35
38240,00:03:02,IMU2,0.0,0.0,0.0,0.65,-2.95,9.39,-17.81,-5.44,-22.12,-0.09,0.12,-0.89,0.43
38240,00:03:02,IMU3,0.0,0.0,0.0,-0.46,-0.96,9.58,-11.5,-30.56,-15.19,0.02,0.05,-0.99,0.15
38241,00:03:02,IMU1,0.0,0.0,0.0,1.46,-0.88,9.5,-1.06,-5.12,-29.5,0.05,-0.07,0.93,0.35
38241,00:03:02,IMU2,0.0,0.0,0.0,0.65,-2.91,9.34,-17.81,-5.44,-22.12,-0.09,0.12,-0.89,0.43
38241,00:03:02,IMU3,0.0,0.0,0.0,-0.46,-0.96,9.58,-11.5,-30.56,-15.19,0.02,0.05,-0.99,0.15
38242,00:03:02,IMU1,0.0,0.0,0.0,1.46,-0.88,9.5,-1.06,-5.12,-29.5,0.05,-0.07,0.93,0.35
38242,00:03:02,IMU2,0.0,0.0,0.0,0.65,-2.91,9.34,-17.44,-5.81,-22.88,-0.09,0.12,-0.89,0.43
38242,00:03:02,IMU3,0.0,0.0,0.0,-0.46,-0.96,9.58,-11.5,-30.56,-15.19,0.02,0.05,-0.99,0.15
38243,00:03:02,IMU1,0.0,0.0,0.0,1.46,-0.88,9.5,-1.06,-5.12,-29.5,0.05,-0.07,0.93,0.35
38243,00:03:02,IMU2,0.0,0.0,0.0,0.65,-2.91,9.34,-17.44,-5.81,-22.88,-0.09,0.12,-0.89,0.43
38243,00:03:02,IMU3,0.0,0.0,0.0,-0.46,-0.96,9.58,-11.5,-30.56,-15.19,0.02,0.05,-0.99,0.15
38244,00:03:02,IMU1,0.0,0.0,0.0,1.46,-0.88,9.5,-1.06,-5.12,-29.5,0.05,-0.07,0.93,0.35
38244,00:03:02,IMU2,0.0,0.0,0.0,0.65,-2.91,9.34,-17.44,-5.81,-22.88,-0.09,0.12,-0.89,0.43
38244,00:03:02,IMU3,0.0,0.0,0.0,-0.42,-0.96,9.58,-11.5,-30.56,-15.19,0.02,0.05,-0.99,0.15
38245,00:03:02,IMU1,0.0,0.0,0.0,1.46,-0.88,9.5,-1.06,-5.12,-29.5,0.05,-0.07,0.93,0.35
38245,00:03:02,IMU2,0.0,0.0,0.0,0.65,-2.91,9.34,-17.44,-5.81,-22.88,-0.09,0.12,-0.89,0.43
38245,00:03:02,IMU3,0.0,0.0,0.0,-0.42,-0.96,9.58,-11.88,-34.56,-16.38,0.02,0.05,-0.99,0.15
38246,00:03:02,IMU1,0.0,0.0,0.0,1.46,-0.88,9.5,-1.06,-5.12,-29.5,0.05,-0.07,0.93,0.35
38246,00:03:02,IMU2,0.0,0.0,0.0,0.65,-2.91,9.34,-17.44,-5.81,-22.88,-0.09,0.12,-0.89,0.43
38246,00:03:02,IMU3,0.0,0.0,0.0,-0.42,-0.96,9.58,-11.88,-34.56,-16.38,0.02,0.05,-0.99,0.15
38247,00:03:02,IMU1,0.0,0.0,0.0,1.46,-0.88,9.5,-1.06,-5.12,-29.5,0.05,-0.07,0.93,0.35
38247,00:03:02,IMU2,0.0,0.0,0.0,0.65,-2.91,9.34,-17.44,-5.81,-22.88,-0.09,0.12,-0.89,0.43
38247,00:03:02,IMU3,0.0,0.0,0.0,-0.42,-0.96,9.58,-11.88,-34.56,-16.38,0.02,0.05,-0.99,0.15
38248,00:03:02,IMU1,0.0,0.0,0.0,1.49,-0.92,9.5,-1.06,-5.12,-29.5,0.05,-0.07,0.93,0.35
38248,00:03:02,IMU2,0.0,0.0,0.0,0.69,-2.87,9.39,-17.44,-5.81,-22.88,-0.09,0.12,-0.89,0.43
38248,00:03:02,IMU3,0.0,0.0,0.0,-0.42,-0.96,9.58,-11.88,-34.56,-16.38,0.02,0.05,-0.99,0.15
38249,00:03:02,IMU1,0.0,0.0,0.0,1.49,-0.92,9.5,0.0,-6.62,-26.69,0.05,-0.07,0.93,0.35
38249,00:03:02,IMU2,0.0,0.0,0.0,0.69,-2.87,9.39,-17.81,-6.88,-27.94,-0.09,0.12,-0.89,0.43
38249,00:03:02,IMU3,0.0,0.0,0.0,-0.42,-0.96,9.58,-11.88,-34.56,-16.38,0.02,0.05,-0.99,0.15
38250,00:03:02,IMU1,0.0,0.0,0.0,1.49,-0.92,9.5,0.0,-6.62,-26.69,0.05,-0.07,0.93,0.35
38250,00:03:02,IMU2,0.0,0.0,0.0,0.69,-2.87,9.39,-17.81,-6.88,-27.94,-0.09,0.12,-0.89,0.43
38250,00:03:02,IMU3,0.0,0.0,0.0,-0.42,-0.96,9.58,-11.88,-34.56,-16.38,0.02,0.05,-0.99,0.15
38251,00:03:02,IMU1,0.0,0.0,0.0,1.49,-0.92,9.5,0.0,-6.62,-26.69,0.05,-0.07,0.93,0.35
38251,00:03:02,IMU2,0.0,0.0,0.0,0.69,-2.87,9.39,-17.81,-6.88,-27.94,-0.09,0.12,-0.89,0.43
38251,00:03:02,IMU3,0.0,0.0,0.0,-0.42,-0.96,9.58,-11.88,-34.56,-16.38,0.02,0.05,-0.99,0.15
38252,00:03:02,IMU1,0.0,0.0,0.0,1.46,-0.88,9.54,0.0,-6.62,-26.69,0.05,-0.07,0.93,0.35
38252,00:03:02,IMU2,0.0,0.0,0.0,0.69,-2.87,9.39,-17.81,-6.88,-27.94,-0.09,0.12,-0.89,0.43
38252,00:03:02,IMU3,0.0,0.0,0.0,-0.42,-0.96,9.58,-11.88,-34.56,-16.38,0.02,0.05,-0.99,0.15
38253,00:03:02,IMU1,0.0,0.0,0.0,1.46,-0.88,9.54,0.0,-6.62,-26.69,0.05,-0.07,0.93,0.35
38253,00:03:02,IMU2,0.0,0.0,0.0,0.69,-2.87,9.39,-17.81,-6.88,-27.94,-0.09,0.12,-0.89,0.43
38253,00:03:02,IMU3,0.0,0.0,0.0,-0.42,-0.96,9.58,-11.88,-34.56,-16.38,0.02,0.05,-0.99,0.15
38254,00:03:02,IMU1,0.0,0.0,0.0,1.46,-0.88,9.54,-1.06,-9.56,-29.88,0.05,-0.07,0.93,0.35
38254,00:03:02,IMU2,0.0,0.0,0.0,0.65,-2.91,9.34,-17.81,-6.88,-27.94,-0.09,0.12,-0.89,0.43
38254,00:03:02,IMU3,0.0,0.0,0.0,-0.42,-0.96,9.58,-11.88,-34.56,-16.38,0.02,0.05,-0.99,0.15
38255,00:03:02,IMU1,0.0,0.0,0.0,1.46,-0.88,9.54,-1.06,-9.56,-29.88,0.05,-0.07,0.93,0.35
38255,00:03:02,IMU2,0.0,0.0,0.0,0.65,-2.91,9.34,-18.88,-7.62,-24.81,-0.09,0.12,-0.89,0.43
38255,00:03:02,IMU3,0.0,0.0,0.0,-0.42,-0.96,9.58,-11.88,-34.56,-16.38,0.02,0.05,-0.99,0.15
38256,00:03:02,IMU1,0.0,0.0,0.0,1.46,-0.88,9.54,-1.06,-9.56,-29.88,0.05,-0.07,0.93,0.35
38256,00:03:02,IMU2,0.0,0.0,0.0,0.65,-2.91,9.34,-18.88,-7.62,-24.81,-0.09,0.12,-0.89,0.43
38256,00:03:02,IMU3,0.0,0.0,0.0,-0.42,-0.92,9.54,-11.88,-34.56,-16.38,0.02,0.05,-0.99,0.15
38257,00:03:02,IMU1,0.0,0.0,0.0,1.46,-0.88,9.54,-1.06,-9.56,-29.88,0.05,-0.07,0.93,0.35
38257,00:03:02,IMU2,0.0,0.0,0.0,0.65,-2.91,9.34,-18.88,-7.62,-24.81,-0.09,0.12,-0.89,0.43
38257,00:03:02,IMU3,0.0,0.0,0.0,-0.42,-0.92,9.54,-13.62,-33.81,-12.81,0.02,0.05,-0.99,0.15
38258,00:03:02,IMU1,0.0,0.0,0.0,1.49,-0.84,9.5,-1.06,-9.56,-29.88,0.05,-0.07,0.93,0.35
38258,00:03:02,IMU2,0.0,0.0,0.0,0.65,-2.91,9.34,-18.88,-7.62,-24.81,-0.09,0.12,-0.89,0.43
38258,00:03:02,IMU3,0.0,0.0,0.0,-0.42,-0.92,9.54,-13.62,-33.81,-12.81,0.02,0.05,-0.99,0.15
38259,00:03:02,IMU1,0.0,0.0,0.0,1.49,-0.84,9.5,-1.81,-6.62,-29.06,0.05,-0.07,0.93,0.35
38259,00:03:02,IMU2,0.0,0.0,0.0,0.65,-2.91,9.34,-18.88,-7.62,-24.81,-0.09,0.12,-0.89,0.43
38259,00:03:02,IMU3,0.0,0.0,0.0,-0.42,-0.92,9.54,-13.62,-33.81,-12.81,0.02,0.05,-0.99,0.15
38260,00:03:02,IMU1,0.0,0.0,0.0,1.49,-0.84,9.5,-1.81,-6.62,-29.06,0.05,-0.07,0.93,0.35
38260,00:03:02,IMU2,0.0,0.0,0.0,0.65,-2.91,9.34,-18.88,-7.62,-24.81,-0.09,0.12,-0.89,0.43
38260,00:03:02,IMU3,0.0,0.0,0.0,-0.42,-0.92,9.54,-13.62,-33.81,-12.81,0.02,0.05,-0.99,0.15
38261,00:03:02,IMU1,0.0,0.0,0.0,1.49,-0.84,9.5,-1.81,-6.62,-29.06,0.05,-0.07,0.93,0.35
38261,00:03:02,IMU2,0.0,0.0,0.0,0.65,-2.91,9.34,-18.88,-7.62,-24.81,-0.09,0.12,-0.89,0.43
38261,00:03:02,IMU3,0.0,0.0,0.0,-0.42,-0.92,9.54,-13.62,-33.81,-12.81,0.02,0.05,-0.99,0.15
38262,00:03:02,IMU1,0.0,0.0,0.0,1.49,-0.84,9.5,-1.81,-6.62,-29.06,0.05,-0.07,0.93,0.35
38262,00:03:02,IMU2,0.0,0.0,0.0,0.65,-2.87,9.38,-18.88,-7.62,-24.81,-0.09,0.12,-0.89,0.43
38262,00:03:02,IMU3,0.0,0.0,0.0,-0.42,-0.92,9.54,-13.62,-33.81,-12.81,0.02,0.05,-0.99,0.15
38263,00:03:02,IMU1,0.0,0.0,0.0,1.49,-0.84,9.5,-1.81,-6.62,-29.06,0.05,-0.07,0.93,0.35
38263,00:03:02,IMU2,0.0,0.0,0.0,0.65,-2.87,9.38,-18.88,-8.31,-28.38,-0.09,0.12,-0.89,0.43
38263,00:03:02,IMU3,0.0,0.0,0.0,-0.42,-0.92,9.54,-13.62,-33.81,-12.81,0.02,0.05,-0.99,0.15
38264,00:03:02,IMU1,0.0,0.0,0.0,1.46,-0.88,9.46,-1.81,-6.62,-29.06,0.05,-0.07,0.93,0.35
38264,00:03:02,IMU2,0.0,0.0,0.0,0.65,-2.87,9.38,-18.88,-8.31,-28.38,-0.09,0.12,-0.89,0.43
38264,00:03:02,IMU3,0.0,0.0,0.0,-0.42,-0.88,9.58,-13.62,-33.81,-12.81,0.02,0.05,-0.99,0.15
38265,00:03:02,IMU1,0.0,0.0,0.0,1.46,-0.88,9.46,-1.06,-7.38,-29.06,0.05,-0.07,0.93,0.35
38265,00:03:02,IMU2,0.0,0.0,0.0,0.65,-2.87,9.38,-18.88,-8.31,-28.38,-0.09,0.12,-0.89,0.43
38265,00:03:02,IMU3,0.0,0.0,0.0,-0.42,-0.88,9.58,-13.62,-33.81,-12.81,0.02,0.05,-0.99,0.15
38266,00:03:02,IMU1,0.0,0.0,0.0,1.46,-0.88,9.46,-1.06,-7.38,-29.06,0.05,-0.07,0.93,0.35
38266,00:03:02,IMU2,0.0,0.0,0.0,0.65,-2.87,9.38,-18.88,-8.31,-28.38,-0.09,0.12,-0.89,0.43
38266,00:03:02,IMU3,0.0,0.0,0.0,-0.42,-0.88,9.58,-12.19,-30.94,-13.25,0.02,0.05,-0.99,0.15
38267,00:03:02,IMU1,0.0,0.0,0.0,1.46,-0.88,9.46,-1.06,-7.38,-29.06,0.05,-0.07,0.93,0.35
38267,00:03:02,IMU2,0.0,0.0,0.0,0.65,-2.87,9.38,-18.88,-8.31,-28.38,-0.09,0.12,-0.89,0.43
38267,00:03:02,IMU3,0.0,0.0,0.0,-0.42,-0.88,9.58,-12.19,-30.94,-13.25,0.02,0.05,-0.99,0.15
38268,00:03:02,IMU1,0.0,0.0,0.0,1.46,-0.88,9.46,-1.06,-7.38,-29.06,0.05,-0.07,0.93,0.35
38268,00:03:02,IMU2,0.0,0.0,0.0,0.65,-2.87,9.38,-18.88,-8.31,-28.38,-0.09,0.12,-0.89,0.43
38268,00:03:02,IMU3,0.0,0.0,0.0,-0.42,-0.88,9.58,-12.19,-30.94,-13.25,0.02,0.05,-0.99,0.15
38269,00:03:02,IMU1,0.0,0.0,0.0,1.46,-0.88,9.46,-1.06,-7.38,-29.06,0.05,-0.07,0.93,0.35
38269,00:03:02,IMU2,0.0,0.0,0.0,0.65,-2.87,9.38,-18.88,-8.31,-28.38,-0.09,0.12,-0.89,0.43
38269,00:03:02,IMU3,0.0,0.0,0.0,-0.42,-0.88,9.58,-12.19,-30.94,-13.25,0.02,0.05,-0.99,0.15
38270,00:03:02,IMU1,0.0,0.0,0.0,1.46,-0.96,9.54,-1.06,-7.38,-29.06,0.05,-0.07,0.93,0.35
38270,00:03:02,IMU2,0.0,0.0,0.0,0.69,-2.87,9.39,-18.88,-8.31,-28.38,-0.09,0.12,-0.89,0.43
38270,00:03:02,IMU3,0.0,0.0,0.0,-0.42,-0.88,9.58,-12.19,-30.94,-13.25,0.02,0.05,-0.99,0.15
38271,00:03:02,IMU1,0.0,0.0,0.0,1.46,-0.96,9.54,-1.81,-5.12,-31.5,0.05,-0.07,0.93,0.35
38271,00:03:02,IMU2,0.0,0.0,0.0,0.69,-2.87,9.39,-18.19,-6.88,-22.88,-0.09,0.12,-0.89,0.43
38271,00:03:02,IMU3,0.0,0.0,0.0,-0.42,-0.88,9.58,-12.19,-30.94,-13.25,0.02,0.05,-0.99,0.15
38272,00:03:02,IMU1,0.0,0.0,0.0,1.46,-0.96,9.54,-1.81,-5.12,-31.5,0.05,-0.07,0.93,0.35
38272,00:03:02,IMU2,0.0,0.0,0.0,0.69,-2.87,9.39,-18.19,-6.88,-22.88,-0.09,0.12,-0.89,0.43
38272,00:03:02,IMU3,0.0,0.0,0.0,-0.42,-0.92,9.58,-12.19,-30.94,-13.25,0.02,0.05,-0.99,0.15
38273,00:03:02,IMU1,0.0,0.0,0.0,1.46,-0.96,9.54,-1.81,-5.12,-31.5,0.05,-0.07,0.93,0.35
38273,00:03:02,IMU2,0.0,0.0,0.0,0.69,-2.87,9.39,-18.19,-6.88,-22.88,-0.09,0.12,-0.89,0.43
38273,00:03:02,IMU3,0.0,0.0,0.0,-0.42,-0.92,9.58,-14.75,-35.62,-14.38,0.02,0.05,-0.99,0.15
38274,00:03:02,IMU1,0.0,0.0,0.0,1.46,-0.96,9.54,-1.81,-5.12,-31.5,0.05,-0.07,0.93,0.35
38274,00:03:02,IMU2,0.0,0.0,0.0,0.69,-2.87,9.39,-18.19,-6.88,-22.88,-0.09,0.12,-0.89,0.43
38274,00:03:02,IMU3,0.0,0.0,0.0,-0.42,-0.92,9.58,-14.75,-35.62,-14.38,0.02,0.05,-0.99,0.15
38275,00:03:02,IMU1,0.0,0.0,0.0,1.46,-0.96,9.54,-1.81,-5.12,-31.5,0.05,-0.07,0.93,0.35
38275,00:03:02,IMU2,0.0,0.0,0.0,0.69,-2.87,9.39,-18.19,-6.88,-22.88,-0.09,0.12,-0.89,0.43
38275,00:03:02,IMU3,0.0,0.0,0.0,-0.42,-0.92,9.58,-14.75,-35.62,-14.38,0.02,0.05,-0.99,0.15
38276,00:03:02,IMU1,0.0,0.0,0.0,1.46,-0.96,9.54,-1.81,-5.12,-31.5,0.05,-0.07,0.93,0.35
38276,00:03:02,IMU2,0.0,0.0,0.0,0.65,-2.87,9.38,-18.19,-6.88,-22.88,-0.09,0.12,-0.89,0.43
38276,00:03:02,IMU3,0.0,0.0,0.0,-0.42,-0.92,9.58,-14.75,-35.62,-14.38,0.02,0.05,-0.99,0.15
38277,00:03:02,IMU1,0.0,0.0,0.0,1.46,-0.96,9.54,-1.81,-5.12,-31.5,0.05,-0.07,0.93,0.35
38277,00:03:02,IMU2,0.0,0.0,0.0,0.65,-2.87,9.38,-16.69,-3.25,-24.44,-0.09,0.12,-0.89,0.43
38277,00:03:02,IMU3,0.0,0.0,0.0,-0.42,-0.92,9.58,-14.75,-35.62,-14.38,0.02,0.05,-0.99,0.15
38278,00:03:02,IMU1,0.0,0.0,0.0,1.46,-0.92,9.54,-1.81,-5.12,-31.5,0.05,-0.07,0.93,0.35
38278,00:03:02,IMU2,0.0,0.0,0.0,0.65,-2.87,9.38,-16.69,-3.25,-24.44,-0.09,0.12,-0.89,0.43
38278,00:03:02,IMU3,0.0,0.0,0.0,-0.42,-0.92,9.58,-14.75,-35.62,-14.38,0.02,0.05,-0.99,0.15
38279,00:03:02,IMU1,0.0,0.0,0.0,1.46,-0.92,9.54,-1.44,-9.94,-32.25,0.05,-0.07,0.93,0.35
38279,00:03:02,IMU2,0.0,0.0,0.0,0.65,-2.87,9.38,-16.69,-3.25,-24.44,-0.09,0.12,-0.89,0.43
38279,00:03:02,IMU3,0.0,0.0,0.0,-0.42,-0.92,9.58,-14.75,-35.62,-14.38,0.02,0.05,-0.99,0.15
38280,00:03:02,IMU1,0.0,0.0,0.0,1.46,-0.92,9.54,-1.44,-9.94,-32.25,0.05,-0.07,0.93,0.35
38280,00:03:02,IMU2,0.0,0.0,0.0,0.65,-2.87,9.38,-16.69,-3.25,-24.44,-0.09,0.12,-0.89,0.43
38280,00:03:02,IMU3,0.0,0.0,0.0,-0.46,-0.92,9.5,-14.75,-35.62,-14.38,0.02,0.05,-0.99,0.15
38281,00:03:02,IMU1,0.0,0.0,0.0,1.46,-0.92,9.54,-1.44,-9.94,-32.25,0.05,-0.07,0.93,0.35
38281,00:03:02,IMU2,0.0,0.0,0.0,0.65,-2.87,9.38,-16.69,-3.25,-24.44,-0.09,0.12,-0.89,0.43
38281,00:03:02,IMU3,0.0,0.0,0.0,-0.46,-0.92,9.5,-12.94,-34.56,-14.0,0.02,0.05,-0.99,0.15
38282,00:03:02,IMU1,0.0,0.0,0.0,1.46,-0.92,9.54,-1.44,-9.94,-32.25,0.05,-0.07,0.93,0.35
38282,00:03:02,IMU2,0.0,0.0,0.0,0.65,-2.91,9.38,-16.69,-3.25,-24.44,-0.09,0.12,-0.89,0.43
38282,00:03:02,IMU3,0.0,0.0,0.0,-0.46,-0.92,9.5,-12.94,-34.56,-14.0,0.02,0.05,-0.99,0.15
38283,00:03:02,IMU1,0.0,0.0,0.0,1.46,-0.92,9.54,-1.44,-9.94,-32.25,0.05,-0.07,0.93,0.35
38283,00:03:02,IMU2,0.0,0.0,0.0,0.65,-2.91,9.38,-18.19,-8.0,-27.56,-0.09,0.12,-0.89,0.43
38283,00:03:02,IMU3,0.0,0.0,0.0,-0.46,-0.92,9.5,-12.94,-34.56,-14.0,0.02,0.05,-0.99,0.15
38284,00:03:02,IMU1,0.0,0.0,0.0,1.42,-0.88,9.5,-1.44,-9.94,-32.25,0.05,-0.07,0.93,0.35
38284,00:03:02,IMU2,0.0,0.0,0.0,0.65,-2.91,9.38,-18.19,-8.0,-27.56,-0.09,0.12,-0.89,0.43
38284,00:03:02,IMU3,0.0,0.0,0.0,-0.46,-0.92,9.5,-12.94,-34.56,-14.0,0.02,0.05,-0.99,0.15
38285,00:03:02,IMU1,0.0,0.0,0.0,1.42,-0.88,9.5,-0.31,-7.75,-32.25,0.05,-0.07,0.93,0.35
38285,00:03:02,IMU2,0.0,0.0,0.0,0.65,-2.91,9.38,-18.19,-8.0,-27.56,-0.09,0.12,-0.89,0.43
38285,00:03:02,IMU3,0.0,0.0,0.0,-0.46,-0.92,9.5,-12.94,-34.56,-14.0,0.02,0.05,-0.99,0.15
38286,00:03:02,IMU1,0.0,0.0,0.0,1.42,-0.88,9.5,-0.31,-7.75,-32.25,0.05,-0.07,0.93,0.35
38286,00:03:02,IMU2,0.0,0.0,0.0,0.65,-2.91,9.38,-18.19,-8.0,-27.56,-0.09,0.12,-0.89,0.43
38286,00:03:02,IMU3,0.0,0.0,0.0,-0.46,-0.92,9.5,-12.94,-34.56,-14.0,0.02,0.05,-0.99,0.15
38287,00:03:02,IMU1,0.0,0.0,0.0,1.42,-0.88,9.5,-0.31,-7.75,-32.25,0.05,-0.07,0.93,0.35
38287,00:03:02,IMU2,0.0,0.0,0.0,0.65,-2.91,9.38,-18.19,-8.0,-27.56,-0.09,0.12,-0.89,0.43
38287,00:03:02,IMU3,0.0,0.0,0.0,-0.46,-0.92,9.5,-12.94,-34.56,-14.0,0.02,0.05,-0.99,0.15
38288,00:03:02,IMU1,0.0,0.0,0.0,1.42,-0.88,9.5,-0.31,-7.75,-32.25,0.05,-0.07,0.93,0.35
38288,00:03:02,IMU2,0.0,0.0,0.0,0.65,-2.87,9.43,-18.19,-8.0,-27.56,-0.09,0.12,-0.89,0.43
38288,00:03:02,IMU3,0.0,0.0,0.0,-0.42,-0.96,9.58,-12.94,-34.56,-14.0,0.02,0.05,-0.99,0.15
38289,00:03:02,IMU1,0.0,0.0,0.0,1.42,-0.88,9.5,-0.31,-7.75,-32.25,0.05,-0.07,0.93,0.35
38289,00:03:02,IMU2,0.0,0.0,0.0,0.65,-2.87,9.43,-19.62,-7.62,-23.25,-0.09,0.12,-0.89,0.43
38289,00:03:02,IMU3,0.0,0.0,0.0,-0.42,-0.96,9.58,-13.62,-33.44,-15.19,0.02,0.05,-0.99,0.15
38290,00:03:02,IMU1,0.0,0.0,0.0,1.42,-0.88,9.5,-0.31,-7.75,-32.25,0.05,-0.07,0.93,0.35
38290,00:03:02,IMU2,0.0,0.0,0.0,0.65,-2.87,9.43,-19.62,-7.62,-23.25,-0.09,0.12,-0.89,0.43
38290,00:03:02,IMU3,0.0,0.0,0.0,-0.42,-0.96,9.58,-13.62,-33.44,-15.19,0.02,0.05,-0.99,0.15
38291,00:03:02,IMU1,0.0,0.0,0.0,1.42,-0.88,9.5,-1.81,-8.12,-28.69,0.05,-0.07,0.93,0.35
38291,00:03:02,IMU2,0.0,0.0,0.0,0.65,-2.87,9.43,-19.62,-7.62,-23.25,-0.09,0.12,-0.89,0.43
38291,00:03:02,IMU3,0.0,0.0,0.0,-0.42,-0.96,9.58,-13.62,-33.44,-15.19,0.02,0.05,-0.99,0.15
38292,00:03:02,IMU1,0.0,0.0,0.0,1.42,-0.88,9.5,-1.81,-8.12,-28.69,0.05,-0.07,0.93,0.35
38292,00:03:02,IMU2,0.0,0.0,0.0,0.65,-2.87,9.43,-19.62,-7.62,-23.25,-0.09,0.12,-0.89,0.43
38292,00:03:02,IMU3,0.0,0.0,0.0,-0.42,-0.96,9.58,-13.62,-33.44,-15.19,0.02,0.05,-0.99,0.15
38293,00:03:02,IMU1,0.0,0.0,0.0,1.42,-0.88,9.5,-1.81,-8.12,-28.69,0.05,-0.07,0.93,0.35
38293,00:03:02,IMU2,0.0,0.0,0.0,0.65,-2.87,9.43,-19.62,-7.62,-23.25,-0.09,0.12,-0.89,0.43
38293,00:03:02,IMU3,0.0,0.0,0.0,-0.42,-0.96,9.58,-13.62,-3338297.0,0.0,0.0,0.0,0.0,0.0
38297,00:03:02,IMU2,0.0,0.0,0.0,0.61,-2.84,9.38,-17.81,-4.69,-27.56,-0.09,0.12,-0.89,0.43
38297,00:03:02,IMU3,0.0,0.0,0.0,-0.46,-0.92,9.54,-13.31,-33.81,-16.75,0.02,0.05,-0.99,0.15
38298,00:03:02,IMU1,0.0,0.0,0.0,1.42,-0.88,9.54,-1.81,-5.12,-31.88,0.05,-0.07,0.93,0.35
38298,00:03:02,IMU2,0.0,0.0,0.0,0.61,-2.84,9.38,-17.81,-4.69,-27.56,-0.09,0.12,-0.89,0.43
38298,00:03:02,IMU3,0.0,0.0,0.0,-0.46,-0.96,9.58,-13.31,-33.81,-16.75,0.02,0.05,-0.99,0.15
38299,00:03:02,IMU1,0.0,0.0,0.0,1.42,-0.88,9.54,-1.81,-5.12,-31.88,0.05,-0.07,0.93,0.35
38299,00:03:02,IMU2,0.0,0.0,0.0,0.61,-2.84,9.38,-17.81,-4.69,-27.56,-0.09,0.12,-0.89,0.43
38299,00:03:02,IMU3,0.0,0.0,0.0,-0.46,-0.96,9.58,-13.31,-33.81,-16.75,0.02,0.05,-0.99,0.15
38300,00:03:02,IMU1,0.0,0.0,0.0,1.46,-0.92,9.46,-1.81,-5.12,-31.88,0.05,-0.07,0.93,0.35
38300,00:03:02,IMU2,0.0,0.0,0.0,0.61,-2.84,9.38,-17.81,-4.69,-27.56,-0.09,0.12,-0.89,0.43
38300,00:03:02,IMU3,0.0,0.0,0.0,-0.46,-0.96,9.58,-13.62,-34.56,-15.19,0.02,0.05,-0.99,0.15
38301,00:03:02,IMU1,0.0,0.0,0.0,1.46,-0.92,9.46,-1.81,-5.12,-31.88,0.05,-0.07,0.93,0.35
38301,00:03:02,IMU2,0.0,0.0,0.0,0.61,-2.84,9.38,-17.81,-4.69,-27.56,-0.09,0.12,-0.89,0.43
38301,00:03:02,IMU3,0.0,0.0,0.0,-0.46,-0.96,9.58,-13.62,-34.56,-15.19,0.02,0.05,-0.99,0.15
38302,00:03:02,IMU1,0.0,0.0,0.0,1.46,-0.92,9.46,-0.69,-7.75,-32.62,0.05,-0.07,0.93,0.35
38302,00:03:02,IMU2,0.0,0.0,0.0,0.61,-2.84,9.38,-17.81,-4.69,-27.56,-0.09,0.12,-0.89,0.43
38302,00:03:02,IMU3,0.0,0.0,0.0,-0.46,-0.96,9.58,-13.62,-34.56,-15.19,0.02,0.05,-0.99,0.15
38303,00:03:02,IMU1,0.0,0.0,0.0,1.46,-0.92,9.46,-0.69,-7.75,-32.62,0.05,-0.07,0.93,0.35
38303,00:03:02,IMU2,0.0,0.0,0.0,0.61,-2.84,9.38,-17.81,-4.69,-27.56,-0.09,0.12,-0.89,0.43
38303,00:03:02,IMU3,0.0,0.0,0.0,-0.46,-0.96,9.58,-13.62,-34.56,-15.19,0.02,0.05,-0.99,0.15
38304,00:03:02,IMU1,0.0,0.0,0.0,1.46,-0.92,9.46,-0.69,-7.75,-32.62,0.05,-0.07,0.93,0.35
38304,00:03:02,IMU2,0.0,0.0,0.0,0.61,-2.84,9.38,-17.81,-4.69,-27.56,-0.09,0.12,-0.89,0.43
38304,00:03:02,IMU3,0.0,0.0,0.0,-0.42,-0.92,9.54,-13.62,-34.56,-15.19,0.02,0.05,-0.99,0.15
38305,00:03:02,IMU1,0.0,0.0,0.0,1.46,-0.92,9.46,-0.69,-7.75,-32.62,0.05,-0.07,0.93,0.35
38305,00:03:02,IMU2,0.0,0.0,0.0,0.61,-2.84,9.38,-17.81,-4.69,-27.56,-0.09,0.12,-0.89,0.43
38305,00:03:02,IMU3,0.0,0.0,0.0,-0.42,-0.92,9.54,-13.62,-34.56,-15.19,0.02,0.05,-0.99,0.15
38306,00:03:02,IMU1,0.0,0.0,0.0,1.46,-0.92,9.46,-0.69,-7.75,-32.62,0.05,-0.07,0.93,0.35
38306,00:03:02,IMU2,0.0,0.0,0.0,0.65,-2.87,9.38,-17.81,-4.69,-27.56,-0.09,0.12,-0.89,0.43
38306,00:03:02,IMU3,0.0,0.0,0.0,-0.42,-0.92,9.54,-12.19,-32.75,-12.44,0.02,0.05,-0.99,0.15
38307,00:03:02,IMU1,0.0,0.0,0.0,1.46,-0.92,9.46,-0.69,-7.75,-32.62,0.05,-0.07,0.93,0.35
38307,00:03:02,IMU2,0.0,0.0,0.0,0.65,-2.87,9.38,-16.69,-7.62,-27.56,-0.09,0.12,-0.89,0.43
38307,00:03:02,IMU3,0.0,0.0,0.0,-0.42,-0.92,9.54,-12.19,-32.75,-12.44,0.02,0.05,-0.99,0.15
38308,00:03:02,IMU1,0.0,0.0,0.0,1.46,-0.84,9.46,-0.69,-7.75,-32.62,0.05,-0.07,0.93,0.35
38308,00:03:02,IMU2,0.0,0.0,0.0,0.65,-2.87,9.38,-16.69,-7.62,-27.56,-0.09,0.12,-0.89,0.43
38309,00:03:02,IMU1,0.0,0.0,0.0,1.46,-0.84,9.46,-1.06,-7.38,-29.06,0.05,-0.07,0.93,0.35
38309,00:03:02,IMU2,0.0,0.0,0.0,0.65,-2.87,9.38,-16.69,-7.62,-27.56,-0.09,0.12,-0.89,0.43
38309,00:03:02,IMU3,0.0,0.0,0.0,-0.42,-0.92,9.54,-12.19,-32.75,-12.44,0.02,0.05,-0.99,0.15
38310,00:03:03,IMU1,0.0,0.0,0.0,1.46,-0.84,9.46,-1.06,-7.38,-29.06,0.05,-0.07,0.93,0.35
38310,00:03:03,IMU2,0.0,0.0,0.0,0.65,-2.87,9.38,-16.69,-7.62,-27.56,-0.09,0.12,-0.89,0.43
38310,00:03:03,IMU3,0.0,0.0,0.0,-0.46,-0.92,9.58,-12.19,-32.75,-12.44,0.02,0.05,-0.99,0.15
38311,00:03:05,IMU1,0.0,0.0,0.0,1.46,-0.84,9.46,-1.06,-7.38,-29.06,0.05,-0.07,0.93,0.35
38311,00:03:05,IMU2,0.0,0.0,0.0,0.65,-2.87,9.38,-16.69,-7.62,-27.56,-0.09,0.12,-0.89,0.43
38311,00:03:05,IMU3,0.0,0.0,0.0,-0.46,-0.92,9.58,-11.88,-33.81,-17.12,0.02,0.05,-0.99,0.15
38312,00:03:07,IMU1,0.0,0.0,0.01,1.46,-0.84,9.46,-1.06,-7.38,-29.06,0.05,-0.07,0.93,0.35
38312,00:03:07,IMU2,0.0,0.0,0.0,0.65,-2.87,9.38,-16.69,-7.62,-27.56,-0.09,0.12,-0.89,0.43
38312,00:03:07,IMU3,0.0,0.01,-0.01,-0.46,-0.92,9.58,-11.88,-33.81,-17.12,0.02,0.05,-0.99,0.15
38313,00:03:09,IMU1,0.0,0.0,0.0,1.46,-0.84,9.46,-1.06,-7.38,-29.06,0.05,-0.07,0.93,0.35
