Count,Timestamp,IMU,AccelX,AccelY,AccelZ,GyroX,GyroY,GyroZ,MagX,MagY,MagZ,QuatX,QuatY,QuatZ,QuatW
13104,00:00:57,IMU1,0.0,0.0,0.0,0.42,-5.17,8.24,11.81,24.75,-16.0,-0.24,-0.14,0.4,0.87
13104,00:00:57,IMU2,0.0,0.0,0.0,1.15,-3.87,8.96,1.44,24.75,-21.88,-0.2,-0.07,0.07,0.98
13104,00:00:57,IMU3,0.0,0.0,-0.01,0.54,-0.73,9.61,19.06,-6.81,-23.88,0.0,-0.05,0.84,0.54
13105,00:00:57,IMU1,0.0,0.0,0.0,0.42,-5.17,8.24,11.81,24.75,-16.0,-0.24,-0.14,0.4,0.87
13105,00:00:57,IMU2,0.0,0.0,0.0,1.15,-3.87,8.96,1.44,24.75,-21.88,-0.2,-0.07,0.07,0.98
13105,00:00:57,IMU3,0.0,0.0,-0.01,0.54,-0.73,9.61,18.0,-7.19,-25.44,0.0,-0.05,0.84,0.54
13102,00:00:57,IMU1,0.0,0.0,0.0,0.42,-5.17,8.24,12.19,22.19,-16.81,-0.24,-0.14,0.4,0.87
13102,00:00:57,IMU2,0.0,0.0,0.0,1.15,-3.87,8.96,1.44,24.75,-21.88,-0.2,-0.07,0.07,0.98
13102,00:00:57,IMU3,0.0,0.0,-0.01,0.57,-0.77,9.61,19.06,-6.81,-23.88,0.0,-0.05,0.84,0.54
13103,00:00:57,IMU1,0.0,0.0,0.0,0.42,-5.17,8.24,11.81,24.75,-16.0,-0.24,-0.14,0.4,0.87
13103,00:00:57,IMU2,0.0,0.0,0.0,1.15,-3.87,8.96,1.44,24.75,-21.88,-0.2,-0.07,0.07,0.98
13103,00:00:57,IMU3,0.0,0.0,-0.01,0.57,-0.77,9.61,19.06,-6.81,-23.88,0.0,-0.05,0.84,0.54
13106,00:00:57,IMU1,0.0,0.0,0.0,0.42,-5.17,8.24,11.81,24.75,-16.0,-0.24,-0.14,0.4,0.87
13106,00:00:57,IMU2,0.0,0.0,0.0,1.15,-3.87,8.96,1.44,24.75,-21.88,-0.2,-0.07,0.07,0.98
13106,00:00:57,IMU3,0.0,0.0,0.0,0.54,-0.73,9.61,18.0,-7.19,-25.44,0.0,-0.05,0.84,0.54
13107,00:00:57,IMU1,0.0,0.0,0.0,0.42,-5.17,8.24,11.81,24.75,-16.0,-0.24,-0.14,0.4,0.87
13107,00:00:57,IMU2,0.0,0.0,0.0,1.15,-3.87,8.96,1.44,24.75,-21.88,-0.2,-0.07,0.07,0.98
13107,00:00:57,IMU3,0.0,0.0,0.0,0.54,-0.73,9.61,18.0,-7.19,-25.44,0.0,-0.05,0.84,0.54
13108,00:00:57,IMU1,0.01,0.0,0.0,0.42,-5.17,8.24,11.81,24.75,-16.0,-0.24,-0.14,0.4,0.87
13108,00:00:57,IMU2,0.0,0.0,0.0,1.07,-3.87,9.0,1.44,24.75,-21.88,-0.2,-0.07,0.07,0.98
13108,00:00:57,IMU3,0.01,0.0,0.0,0.54,-0.73,9.61,18.0,-7.19,-25.44,0.0,-0.05,0.84,0.54
13109,00:00:57,IMU1,0.01,0.0,0.0,0.42,-5.17,8.24,11.81,24.75,-16.0,-0.24,-0.14,0.4,0.87
13109,00:00:57,IMU2,0.0,0.0,0.0,1.07,-3.87,9.0,-0.69,23.25,-19.12,-0.2,-0.07,0.07,0.98
13109,00:00:57,IMU3,0.01,0.0,0.0,0.54,-0.73,9.61,18.0,-7.19,-25.44,0.0,-0.05,0.84,0.54
13110,00:00:57,IMU1,0.01,0.0,0.0,0.46,-5.21,8.28,11.81,24.75,-16.0,-0.24,-0.14,0.4,0.87
13110,00:00:57,IMU2,0.0,0.0,0.0,1.07,-3.87,9.0,-0.69,23.25,-19.12,-0.2,-0.07,0.07,0.98
13110,00:00:57,IMU3,0.0,0.0,0.0,0.54,-0.73,9.61,18.0,-7.19,-25.44,0.0,-0.05,0.84,0.54
13111,00:00:57,IMU1,0.01,0.0,0.0,0.46,-5.21,8.28,12.19,25.5,-17.19,-0.24,-0.14,0.4,0.87
13111,00:00:57,IMU2,0.0,0.0,0.0,1.07,-3.87,9.0,-0.69,23.25,-19.12,-0.2,-0.07,0.07,0.98
13111,00:00:57,IMU3,0.0,0.0,0.0,0.54,-0.73,9.61,18.0,-7.19,-25.44,0.0,-0.05,0.84,0.54
13112,00:00:57,IMU1,0.0,0.0,0.0,0.46,-5.21,8.28,12.19,25.5,-17.19,-0.24,-0.14,0.4,0.87
13112,00:00:57,IMU2,0.0,0.0,0.0,1.07,-3.87,9.0,-0.69,23.25,-19.12,-0.2,-0.07,0.07,0.98
13112,00:00:57,IMU3,0.0,0.0,0.0,0.54,-0.73,9.61,18.0,-7.19,-25.44,0.0,-0.05,0.84,0.54
13113,00:00:57,IMU1,0.0,0.0,0.0,0.46,-5.21,8.28,12.19,25.5,-17.19,-0.24,-0.14,0.4,0.87
13113,00:00:57,IMU2,0.0,0.0,0.0,1.07,-3.87,9.0,-0.69,23.25,-19.12,-0.2,-0.07,0.07,0.98
13113,00:00:57,IMU3,0.0,0.0,0.0,0.54,-0.73,9.61,19.06,-6.81,-24.69,0.0,-0.05,0.84,0.54
13114,00:00:57,IMU1,0.0,0.0,0.0,0.46,-5.21,8.28,12.19,25.5,-17.19,-0.24,-0.14,0.4,0.87
13114,00:00:57,IMU2,0.0,0.0,0.0,1.15,-3.91,9.04,-0.69,23.25,-19.12,-0.2,-0.07,0.07,0.98
13114,00:00:57,IMU3,-0.01,0.0,0.0,0.54,-0.73,9.61,19.06,-6.81,-24.69,0.0,-0.05,0.84,0.54
13115,00:00:57,IMU1,0.0,0.0,0.0,0.46,-5.21,8.28,12.19,25.5,-17.19,-0.24,-0.14,0.4,0.87
13115,00:00:57,IMU2,0.0,0.0,0.0,1.15,-3.91,9.04,-0.69,23.25,-19.12,-0.2,-0.07,0.07,0.98
13115,00:00:57,IMU3,-0.01,0.0,0.0,0.54,-0.73,9.61,19.06,-6.81,-24.69,0.0,-0.05,0.84,0.54
13116,00:00:57,IMU1,0.0,0.0,0.0,0.46,-5.21,8.28,12.19,25.5,-17.19,-0.24,-0.14,0.4,0.87
13116,00:00:57,IMU2,0.0,0.0,0.0,1.15,-3.91,9.04,-0.31,23.25,-20.31,-0.2,-0.07,0.07,0.98
13116,00:00:57,IMU3,0.0,0.0,0.01,0.54,-0.73,9.61,19.06,-6.81,-24.69,0.0,-0.05,0.84,0.54
13117,00:00:57,IMU1,0.0,0.0,0.0,0.46,-5.21,8.28,12.19,25.5,-17.19,-0.24,-0.14,0.4,0.87
13117,00:00:57,IMU2,0.0,0.0,0.0,1.15,-3.91,9.04,-0.31,23.25,-20.31,-0.2,-0.07,0.07,0.98
13117,00:00:57,IMU3,0.0,0.0,0.01,0.54,-0.73,9.61,19.06,-6.81,-24.69,0.0,-0.05,0.84,0.54
13118,00:00:57,IMU1,0.0,0.0,0.0,0.42,-5.17,8.31,12.19,25.5,-17.19,-0.24,-0.14,0.4,0.87
13118,00:00:57,IMU2,0.0,0.0,0.0,1.15,-3.91,9.04,-0.31,23.25,-20.31,-0.2,-0.07,0.07,0.98
13118,00:00:57,IMU3,0.0,0.0,0.0,0.54,-0.73,9.61,19.06,-6.81,-24.69,0.0,-0.05,0.84,0.54
13119,00:00:57,IMU1,0.0,0.0,0.0,0.42,-5.17,8.31,13.31,25.12,-16.81,-0.24,-0.14,0.4,0.87
13119,00:00:57,IMU2,0.0,0.0,0.0,1.15,-3.91,9.04,-0.31,23.25,-20.31,-0.2,-0.07,0.07,0.98
13119,00:00:57,IMU3,0.0,0.0,0.0,0.54,-0.73,9.61,19.06,-6.81,-24.69,0.0,-0.05,0.84,0.54
13120,00:00:57,IMU1,0.0,0.01,0.0,0.42,-5.17,8.31,13.31,25.12,-16.81,-0.24,-0.14,0.4,0.87
13120,00:00:57,IMU2,0.0,0.0,0.0,1.15,-3.91,9.04,-0.31,23.25,-20.31,-0.2,-0.07,0.07,0.98
13120,00:00:57,IMU3,0.0,0.0,0.0,0.54,-0.77,9.54,19.06,-6.81,-24.69,0.0,-0.05,0.84,0.54
13121,00:00:57,IMU1,0.0,0.01,0.0,0.42,-5.17,8.31,13.31,25.12,-16.81,-0.24,-0.14,0.4,0.87
13121,00:00:57,IMU2,0.0,0.0,0.0,1.15,-3.91,9.04,-0.31,23.25,-20.31,-0.2,-0.07,0.07,0.98
13121,00:00:57,IMU3,0.0,0.0,0.0,0.54,-0.77,9.54,18.69,-7.56,-24.25,0.0,-0.05,0.84,0.54
13122,00:00:57,IMU1,0.0,0.01,0.0,0.42,-5.21,8.27,13.31,25.12,-16.81,-0.24,-0.14,0.4,0.87
13122,00:00:57,IMU2,0.0,0.0,0.0,1.07,-3.87,9.04,-0.31,23.25,-20.31,-0.2,-0.07,0.07,0.98
13122,00:00:57,IMU3,-0.01,-0.01,0.01,0.54,-0.77,9.54,18.69,-7.56,-24.25,0.0,-0.05,0.84,0.54
13123,00:00:57,IMU1,0.0,0.0,0.0,0.42,-5.21,8.27,13.31,25.12,-16.81,-0.24,-0.14,0.4,0.87
13123,00:00:57,IMU2,0.0,0.0,0.0,1.07,-3.87,9.04,-0.31,23.25,-20.31,-0.2,-0.07,0.07,0.98
13123,00:00:57,IMU3,-0.01,-0.01,0.01,0.54,-0.77,9.54,18.69,-7.56,-24.25,0.0,-0.05,0.84,0.54
13124,00:00:57,IMU1,0.0,0.0,0.0,0.42,-5.21,8.27,11.81,22.56,-16.0,-0.24,-0.14,0.4,0.87
13124,00:00:57,IMU2,0.0,0.0,0.0,1.07,-3.87,9.04,-1.06,21.81,-20.31,-0.2,-0.07,0.07,0.98
13124,00:00:57,IMU3,0.0,-0.01,0.0,0.54,-0.77,9.54,18.69,-7.56,-24.25,0.0,-0.05,0.84,0.54
13125,00:00:57,IMU1,0.0,0.0,0.0,0.42,-5.21,8.27,11.81,22.56,-16.0,-0.24,-0.14,0.4,0.87
13125,00:00:57,IMU2,0.0,0.0,0.0,1.07,-3.87,9.04,-1.06,21.81,-20.31,-0.2,-0.07,0.07,0.98
13125,00:00:57,IMU3,0.0,-0.01,0.0,0.54,-0.77,9.54,18.69,-7.56,-24.25,0.0,-0.05,0.84,0.54
13126,00:00:57,IMU1,0.0,0.0,0.0,0.42,-5.21,8.27,11.81,22.56,-16.0,-0.24,-0.14,0.4,0.87
13126,00:00:57,IMU2,0.0,0.0,0.0,1.07,-3.87,9.04,-1.06,21.81,-20.31,-0.2,-0.07,0.07,0.98
13126,00:00:57,IMU3,0.01,0.0,0.0,0.54,-0.77,9.54,18.69,-7.56,-24.25,0.0,-0.05,0.84,0.54
13127,00:00:57,IMU1,0.0,0.0,0.0,0.42,-5.21,8.27,11.81,22.56,-16.0,-0.24,-0.14,0.4,0.87
13127,00:00:57,IMU2,0.0,0.0,0.0,1.07,-3.87,9.04,-1.06,21.81,-20.31,-0.2,-0.07,0.07,0.98
13127,00:00:57,IMU3,0.01,0.0,0.0,0.54,-0.77,9.54,18.69,-7.56,-24.25,0.0,-0.05,0.84,0.54
13128,00:00:57,IMU1,0.01,0.0,0.0,0.42,-5.21,8.27,11.81,22.56,-16.0,-0.24,-0.14,0.4,0.87
13128,00:00:57,IMU2,0.0,0.0,0.0,1.07,-3.87,9.04,-1.06,21.81,-20.31,-0.2,-0.07,0.07,0.98
13128,00:00:57,IMU3,0.01,0.0,0.0,0.57,-0.73,9.58,18.69,-7.56,-24.25,0.0,-0.05,0.84,0.54
13129,00:00:57,IMU1,0.01,0.0,0.0,0.42,-5.21,8.27,11.81,22.56,-16.0,-0.24,-0.14,0.4,0.87
13129,00:00:57,IMU2,0.0,0.0,0.0,1.07,-3.87,9.04,-1.06,21.81,-20.31,-0.2,-0.07,0.07,0.98
13129,00:00:57,IMU3,0.01,0.0,0.0,0.57,-0.73,9.58,19.06,-7.19,-25.06,0.0,-0.05,0.84,0.54
13130,00:00:57,IMU1,0.01,0.0,0.0,0.42,-5.17,8.28,11.81,22.56,-16.0,-0.24,-0.14,0.4,0.87
13130,00:00:57,IMU2,0.0,0.0,0.0,1.07,-3.87,9.04,-1.06,21.81,-20.31,-0.2,-0.07,0.07,0.98
13130,00:00:57,IMU3,0.0,0.0,0.01,0.57,-0.73,9.58,19.06,-7.19,-25.06,0.0,-0.05,0.84,0.54
13131,00:00:57,IMU1,0.01,0.0,0.0,0.42,-5.17,8.28,13.69,27.0,-17.19,-0.24,-0.14,0.4,0.87
13131,00:00:57,IMU2,0.0,0.0,0.0,1.07,-3.87,9.04,-1.06,21.81,-20.31,-0.2,-0.07,0.07,0.98
13131,00:00:57,IMU3,0.0,0.0,0.01,0.57,-0.73,9.58,19.06,-7.19,-25.06,0.0,-0.05,0.84,0.54
13132,00:00:57,IMU1,0.01,0.0,0.0,0.42,-5.17,8.28,13.69,27.0,-17.19,-0.24,-0.14,0.4,0.87
13132,00:00:57,IMU2,0.0,0.0,0.0,1.15,-3.87,9.04,-1.06,21.81,-20.31,-0.2,-0.07,0.07,0.98
13132,00:00:57,IMU3,0.0,0.0,0.0,0.57,-0.73,9.58,19.06,-7.19,-25.06,0.0,-0.05,0.84,0.54
13133,00:00:57,IMU1,0.01,0.0,0.0,0.42,-5.17,8.28,13.69,27.0,-17.19,-0.24,-0.14,0.4,0.87
13133,00:00:57,IMU2,0.0,0.0,0.0,1.15,-3.87,9.04,-0.31,22.56,-21.06,-0.2,-0.07,0.07,0.98
13133,00:00:57,IMU3,0.0,0.0,0.0,0.57,-0.73,9.58,19.06,-7.19,-25.06,0.0,-0.05,0.84,0.54
13134,00:00:57,IMU1,0.0,0.0,-0.01,0.42,-5.17,8.28,13.69,27.0,-17.19,-0.24,-0.14,0.4,0.87
13134,00:00:57,IMU2,0.0,0.0,0.0,1.15,-3.87,9.04,-0.31,22.56,-21.06,-0.2,-0.07,0.07,0.98
13134,00:00:57,IMU3,0.0,0.0,0.0,0.57,-0.73,9.58,19.06,-7.19,-25.06,0.0,-0.05,0.84,0.54
13135,00:00:57,IMU1,0.0,0.0,-0.01,0.42,-5.17,8.28,13.69,27.0,-17.19,-0.24,-0.14,0.4,0.87
13135,00:00:57,IMU2,0.0,0.0,0.0,1.15,-3.87,9.04,-0.31,22.56,-21.06,-0.2,-0.07,0.07,0.98
13135,00:00:57,IMU3,0.0,0.0,0.0,0.57,-0.73,9.58,19.06,-7.19,-25.06,0.0,-0.05,0.84,0.54
13136,00:00:57,IMU1,0.0,0.0,-0.01,0.46,-5.17,8.32,13.69,27.0,-17.19,-0.24,-0.14,0.4,0.87
13136,00:00:57,IMU2,0.0,0.0,0.0,1.15,-3.87,9.04,-0.31,22.56,-21.06,-0.2,-0.07,0.07,0.98
13136,00:00:57,IMU3,0.0,0.0,0.0,0.57,-0.77,9.61,19.06,-7.19,-25.06,0.0,-0.05,0.84,0.54
13137,00:00:57,IMU1,0.0,0.0,0.0,0.46,-5.17,8.32,13.69,27.0,-17.19,-0.24,-0.14,0.4,0.87
13137,00:00:57,IMU2,0.0,0.0,0.0,1.15,-3.87,9.04,-0.31,22.56,-21.06,-0.2,-0.07,0.07,0.98
13137,00:00:57,IMU3,0.0,0.0,0.0,0.57,-0.77,9.61,19.06,-7.19,-25.06,0.0,-0.05,0.84,0.54
13138,00:00:57,IMU1,0.0,0.0,0.0,0.46,-5.17,8.32,12.19,25.5,-17.19,-0.24,-0.14,0.4,0.87
13138,00:00:57,IMU2,0.0,0.0,0.0,1.15,-3.87,9.04,-0.31,22.56,-21.06,-0.2,-0.07,0.07,0.98
13138,00:00:57,IMU3,0.0,0.0,0.0,0.57,-0.77,9.61,18.38,-7.19,-24.62,0.0,-0.05,0.84,0.54
13139,00:00:57,IMU1,0.0,0.0,0.0,0.46,-5.17,8.32,12.19,25.5,-17.19,-0.24,-0.14,0.4,0.87
13139,00:00:57,IMU2,0.0,0.0,0.0,1.15,-3.87,9.04,-0.31,22.56,-21.06,-0.2,-0.07,0.07,0.98
13139,00:00:57,IMU3,0.0,0.0,0.0,0.57,-0.77,9.61,18.38,-7.19,-24.62,0.0,-0.05,0.84,0.54
13140,00:00:57,IMU1,0.0,0.0,0.0,0.46,-5.17,8.32,12.19,25.5,-17.19,-0.24,-0.14,0.4,0.87
13140,00:00:57,IMU2,0.0,0.0,0.0,1.07,-3.91,9.0,-0.31,22.56,-21.06,-0.2,-0.07,0.07,0.98
13140,00:00:57,IMU3,0.01,0.0,0.0,0.57,-0.77,9.61,18.38,-7.19,-24.62,0.0,-0.05,0.84,0.54
13141,00:00:57,IMU1,0.0,0.0,0.0,0.46,-5.17,8.32,12.19,25.5,-17.19,-0.24,-0.14,0.4,0.87
13141,00:00:57,IMU2,0.0,0.0,0.0,1.07,-3.91,9.0,-0.31,21.44,-19.12,-0.2,-0.07,0.07,0.98
13141,00:00:57,IMU3,0.01,0.0,0.0,0.57,-0.77,9.61,18.38,-7.19,-24.62,0.0,-0.05,0.84,0.54
13142,00:00:57,IMU1,0.0,0.0,0.0,0.42,-5.17,8.28,12.19,25.5,-17.19,-0.24,-0.14,0.4,0.87
13142,00:00:57,IMU2,0.0,0.0,0.0,1.07,-3.91,9.0,-0.31,21.44,-19.12,-0.2,-0.07,0.07,0.98
13142,00:00:57,IMU3,0.0,0.0,0.0,0.57,-0.77,9.61,18.38,-7.19,-24.62,0.0,-0.05,0.84,0.54
13143,00:00:57,IMU1,0.0,0.0,0.0,0.42,-5.17,8.28,14.38,25.5,-17.56,-0.24,-0.14,0.4,0.87
13143,00:00:57,IMU2,0.0,0.0,0.0,1.07,-3.91,9.0,-0.31,21.44,-19.12,-0.2,-0.07,0.07,0.98
13143,00:00:57,IMU3,0.0,0.0,0.0,0.57,-0.77,9.61,18.38,-7.19,-24.62,0.0,-0.05,0.84,0.54
13144,00:00:57,IMU1,0.0,0.0,0.0,0.42,-5.17,8.28,14.38,25.5,-17.56,-0.24,-0.14,0.4,0.87
13144,00:00:57,IMU2,0.0,0.0,0.0,1.07,-3.91,9.0,-0.31,21.44,-19.12,-0.2,-0.07,0.07,0.98
13144,00:00:57,IMU3,0.0,0.0,0.0,0.54,-0.77,9.58,18.38,-7.19,-24.62,0.0,-0.05,0.84,0.54
13145,00:00:57,IMU1,0.0,0.0,0.0,0.42,-5.17,8.28,14.38,25.5,-17.56,-0.24,-0.14,0.4,0.87
13145,00:00:57,IMU2,0.0,0.0,0.0,1.07,-3.91,9.0,-0.31,21.44,-19.12,-0.2,-0.07,0.07,0.98
13145,00:00:57,IMU3,0.0,0.0,0.0,0.54,-0.77,9.58,18.38,-7.56,-23.88,0.0,-0.05,0.84,0.54
13146,00:00:57,IMU1,0.0,0.0,0.0,0.42,-5.17,8.28,14.38,25.5,-17.56,-0.24,-0.14,0.4,0.87
13146,00:00:57,IMU2,0.0,0.0,0.0,1.07,-3.91,9.0,-0.31,21.44,-19.12,-0.2,-0.07,0.07,0.98
13146,00:00:57,IMU3,0.0,0.0,0.01,0.54,-0.77,9.58,18.38,-7.56,-23.88,0.0,-0.05,0.84,0.54
13147,00:00:57,IMU1,0.0,0.0,0.0,0.42,-5.17,8.28,14.38,25.5,-17.56,-0.24,-0.14,0.4,0.87
13147,00:00:57,IMU2,0.0,0.0,0.0,1.07,-3.91,9.0,-0.31,21.44,-19.12,-0.2,-0.07,0.07,0.98
13147,00:00:57,IMU3,0.0,0.0,0.01,0.54,-0.77,9.58,18.38,-7.56,-23.88,0.0,-0.05,0.84,0.54
13148,00:00:57,IMU1,0.0,0.0,0.0,0.42,-5.21,8.32,14.38,25.5,-17.56,-0.24,-0.14,0.4,0.87
13148,00:00:57,IMU2,0.0,0.0,0.0,1.11,-3.91,9.04,-0.31,21.44,-19.12,-0.2,-0.07,0.07,0.98
13148,00:00:57,IMU3,0.0,0.0,0.01,0.54,-0.8,9.58,18.38,-7.56,-23.88,0.0,-0.05,0.84,0.54
13149,00:00:57,IMU1,0.0,0.0,0.0,0.42,-5.21,8.32,13.69,25.88,-16.81,-0.24,-0.14,0.4,0.87
13149,00:00:57,IMU2,0.0,0.0,0.0,1.11,-3.91,9.04,-0.69,24.0,-20.31,-0.2,-0.07,0.07,0.98
13149,00:00:57,IMU3,-0.01,0.0,0.0,0.54,-0.8,9.58,18.38,-7.56,-23.88,0.0,-0.05,0.84,0.54
13150,00:00:57,IMU1,0.0,0.0,0.0,0.42,-5.21,8.32,13.69,25.88,-16.81,-0.24,-0.14,0.4,0.87
13150,00:00:57,IMU2,0.0,0.0,0.0,1.11,-3.91,9.04,-0.69,24.0,-20.31,-0.2,-0.07,0.07,0.98
13150,00:00:57,IMU3,-0.01,0.0,0.0,0.54,-0.8,9.58,19.44,-7.56,-23.5,0.0,-0.05,0.84,0.54
13151,00:00:57,IMU1,0.0,0.0,0.0,0.42,-5.21,8.32,13.69,25.88,-16.81,-0.24,-0.14,0.4,0.87
13151,00:00:57,IMU2,0.0,0.0,0.0,1.11,-3.91,9.04,-0.69,24.0,-20.31,-0.2,-0.07,0.07,0.98
13151,00:00:57,IMU3,-0.01,0.0,0.0,0.54,-0.8,9.58,19.44,-7.56,-23.5,0.0,-0.05,0.84,0.54
13152,00:00:57,IMU1,0.0,0.0,0.0,0.46,-5.13,8.31,13.69,25.88,-16.81,-0.24,-0.14,0.4,0.87
13152,00:00:57,IMU2,0.0,0.0,0.0,1.11,-3.91,9.04,-0.69,24.0,-20.31,-0.2,-0.07,0.07,0.98
13152,00:00:57,IMU3,0.0,0.0,0.0,0.54,-0.8,9.58,19.44,-7.56,-23.5,0.0,-0.05,0.84,0.54
13153,00:00:57,IMU1,0.0,0.0,0.0,0.46,-5.13,8.31,13.69,25.88,-16.81,-0.24,-0.14,0.4,0.87
13153,00:00:57,IMU2,0.0,0.0,0.0,1.11,-3.91,9.04,-0.69,24.0,-20.31,-0.2,-0.07,0.07,0.98
13153,00:00:57,IMU3,0.0,0.0,0.0,0.54,-0.8,9.58,19.44,-7.56,-23.5,0.0,-0.05,0.84,0.54
13154,00:00:57,IMU1,0.0,0.0,0.0,0.46,-5.13,8.31,14.38,25.12,-16.0,-0.24,-0.14,0.4,0.87
13154,00:00:57,IMU2,0.0,0.0,0.0,1.11,-3.91,9.04,-0.69,24.0,-20.31,-0.2,-0.07,0.07,0.98
13154,00:00:57,IMU3,0.0,-0.01,0.0,0.54,-0.8,9.58,19.44,-7.56,-23.5,0.0,-0.05,0.84,0.54
13155,00:00:57,IMU1,0.0,0.0,0.0,0.46,-5.13,8.31,14.38,25.12,-16.0,-0.24,-0.14,0.4,0.87
13155,00:00:57,IMU2,0.0,0.0,0.0,1.11,-3.91,9.04,-0.69,24.0,-20.31,-0.2,-0.07,0.07,0.98
13155,00:00:57,IMU3,0.0,-0.01,0.0,0.54,-0.8,9.58,19.44,-7.56,-23.5,0.0,-0.05,0.84,0.54
13156,00:00:57,IMU1,0.0,0.0,0.0,0.46,-5.13,8.31,14.38,25.12,-16.0,-0.24,-0.14,0.4,0.87
13156,00:00:57,IMU2,0.0,0.0,0.0,1.15,-3.91,9.04,-0.69,24.0,-20.31,-0.2,-0.07,0.07,0.98
13156,00:00:57,IMU3,0.0,-0.01,0.0,0.54,-0.73,9.58,19.44,-7.56,-23.5,0.0,-0.05,0.84,0.54
13157,00:00:57,IMU1,0.0,0.0,0.0,0.46,-5.13,8.31,14.38,25.12,-16.0,-0.24,-0.14,0.4,0.87
13157,00:00:57,IMU2,0.0,0.0,0.0,1.15,-3.91,9.04,-0.69,24.0,-20.31,-0.2,-0.07,0.07,0.98
13157,00:00:57,IMU3,0.0,-0.01,0.0,0.54,-0.73,9.58,19.44,-6.44,-25.44,0.0,-0.05,0.84,0.54
13158,00:00:57,IMU1,0.0,0.0,0.0,0.46,-5.13,8.31,14.38,25.12,-16.0,-0.24,-0.14,0.4,0.87
13158,00:00:57,IMU2,0.0,0.0,0.0,1.15,-3.91,9.04,0.0,23.62,-21.06,-0.2,-0.07,0.07,0.98
13158,00:00:57,IMU3,0.0,0.0,0.0,0.54,-0.73,9.58,19.44,-6.44,-25.44,0.0,-0.05,0.84,0.54
13159,00:00:57,IMU1,0.0,0.0,0.0,0.46,-5.13,8.31,14.38,25.12,-16.0,-0.24,-0.14,0.4,0.87
13159,00:00:57,IMU2,0.0,0.0,0.0,1.15,-3.91,9.04,0.0,23.62,-21.06,-0.2,-0.07,0.07,0.98
13159,00:00:57,IMU3,0.0,0.0,0.0,0.54,-0.73,9.58,19.44,-6.44,-25.44,0.0,-0.05,0.84,0.54
13160,00:00:57,IMU1,0.0,0.0,0.0,0.42,-5.17,8.28,14.38,25.12,-16.0,-0.24,-0.14,0.4,0.87
13160,00:00:57,IMU2,0.0,0.0,0.0,1.15,-3.91,9.04,0.0,23.62,-21.06,-0.2,-0.07,0.07,0.98
13160,00:00:57,IMU3,0.0,0.0,0.0,0.54,-0.73,9.58,19.44,-6.44,-25.44,0.0,-0.05,0.84,0.54
13161,00:00:57,IMU1,0.0,0.0,0.0,0.42,-5.17,8.28,12.19,23.31,-16.38,-0.24,-0.14,0.4,0.87
13161,00:00:57,IMU2,0.0,0.0,0.0,1.15,-3.91,9.04,0.0,23.62,-21.06,-0.2,-0.07,0.07,0.98
13161,00:00:57,IMU3,0.0,0.0,0.0,0.54,-0.73,9.58,19.44,-6.44,-25.44,0.0,-0.05,0.84,0.54
13162,00:00:57,IMU1,0.0,0.0,0.0,0.42,-5.17,8.28,12.19,23.31,-16.38,-0.24,-0.14,0.4,0.87
13162,00:00:57,IMU2,0.0,0.0,0.0,1.15,-3.91,9.04,0.0,23.62,-21.06,-0.2,-0.07,0.07,0.98
13162,00:00:57,IMU3,0.0,0.0,0.0,0.57,-0.8,9.61,19.44,-6.44,-25.44,0.0,-0.05,0.84,0.54
13163,00:00:57,IMU1,0.0,0.0,0.0,0.42,-5.17,8.28,12.19,23.31,-16.38,-0.24,-0.14,0.4,0.87
13163,00:00:57,IMU2,0.0,0.0,0.0,1.15,-3.91,9.04,0.0,23.62,-21.06,-0.2,-0.07,0.07,0.98
13163,00:00:57,IMU3,0.0,0.0,0.0,0.57,-0.8,9.61,18.38,-6.44,-25.44,0.0,-0.05,0.84,0.54
13164,00:00:57,IMU1,0.0,0.0,0.0,0.42,-5.17,8.28,12.19,23.31,-16.38,-0.24,-0.14,0.4,0.87
13164,00:00:57,IMU2,0.0,0.0,0.0,1.11,-3.91,9.04,0.0,23.62,-21.06,-0.2,-0.07,0.07,0.98
13164,00:00:57,IMU3,0.01,0.0,0.0,0.57,-0.8,9.61,18.38,-6.44,-25.44,0.0,-0.05,0.84,0.54
13165,00:00:57,IMU1,0.0,0.0,0.0,0.42,-5.17,8.28,12.19,23.31,-16.38,-0.24,-0.14,0.4,0.87
13165,00:00:57,IMU2,0.0,0.0,0.0,1.11,-3.91,9.04,0.0,23.62,-21.06,-0.2,-0.07,0.07,0.98
13165,00:00:57,IMU3,0.01,0.0,0.0,0.57,-0.8,9.61,18.38,-6.44,-25.44,0.0,-0.05,0.84,0.54
13166,00:00:57,IMU1,0.0,0.0,0.0,0.42,-5.21,8.27,12.19,23.31,-16.38,-0.24,-0.14,0.4,0.87
13166,00:00:57,IMU2,0.0,0.0,0.0,1.11,-3.91,9.04,0.31,23.25,-19.88,-0.2,-0.07,0.07,0.98
13166,00:00:57,IMU3,0.0,0.0,0.0,0.57,-0.8,9.61,18.38,-6.44,-25.44,0.0,-0.05,0.84,0.54
13167,00:00:57,IMU1,0.0,0.0,0.0,0.42,-5.21,8.27,12.56,24.0,-15.19,-0.24,-0.14,0.4,0.87
13167,00:00:57,IMU2,0.0,0.0,0.0,1.11,-3.91,9.04,0.31,23.25,-19.88,-0.2,-0.07,0.07,0.98
13167,00:00:57,IMU3,0.0,0.0,0.0,0.57,-0.8,9.61,18.38,-6.44,-25.44,0.0,-0.05,0.84,0.54
13168,00:00:57,IMU1,0.0,0.0,0.0,0.42,-5.21,8.27,12.56,24.0,-15.19,-0.24,-0.14,0.4,0.87
13168,00:00:57,IMU2,0.0,0.0,0.0,1.11,-3.91,9.04,0.31,23.25,-19.88,-0.2,-0.07,0.07,0.98
13168,00:00:57,IMU3,0.0,0.0,0.0,0.61,-0.77,9.61,18.38,-6.44,-25.44,0.0,-0.05,0.84,0.54
13169,00:00:57,IMU1,0.0,0.0,0.0,0.42,-5.21,8.27,12.56,24.0,-15.19,-0.24,-0.14,0.4,0.87
13169,00:00:57,IMU2,0.0,0.0,0.0,1.11,-3.91,9.04,0.31,23.25,-19.88,-0.2,-0.07,0.07,0.98
13169,00:00:57,IMU3,0.0,0.0,0.0,0.61,-0.77,9.61,19.44,-6.44,-25.44,0.0,-0.05,0.84,0.54
13170,00:00:57,IMU1,0.0,0.0,0.0,0.42,-5.21,8.27,12.56,24.0,-15.19,-0.24,-0.14,0.4,0.87
13170,00:00:57,IMU2,0.0,0.0,0.0,1.11,-3.91,9.04,0.31,23.25,-19.88,-0.2,-0.07,0.07,0.98
13170,00:00:57,IMU3,0.0,0.0,0.01,0.61,-0.77,9.61,19.44,-6.44,-25.44,0.0,-0.05,0.84,0.54
13171,00:00:57,IMU1,0.0,0.0,0.0,0.42,-5.21,8.27,12.56,24.0,-15.19,-0.24,-0.14,0.4,0.87
13171,00:00:57,IMU2,0.0,0.0,0.0,1.11,-3.91,9.04,0.31,23.25,-19.88,-0.2,-0.07,0.07,0.98
13171,00:00:57,IMU3,0.0,0.0,0.01,0.61,-0.77,9.61,19.44,-6.44,-25.44,0.0,-0.05,0.84,0.54
13172,00:00:57,IMU1,0.0,0.0,0.0,0.46,-5.17,8.27,12.56,24.0,-15.19,-0.24,-0.14,0.4,0.87
13172,00:00:57,IMU2,0.0,0.0,0.0,1.11,-3.91,9.04,0.31,23.25,-19.88,-0.2,-0.07,0.07,0.98
13172,00:00:57,IMU3,0.0,0.0,0.0,0.61,-0.77,9.61,19.44,-6.44,-25.44,0.0,-0.05,0.84,0.54
13173,00:00:57,IMU1,0.0,0.0,0.0,0.46,-5.17,8.27,14.06,26.25,-16.38,-0.24,-0.14,0.4,0.87
13173,00:00:57,IMU2,0.0,0.0,0.0,1.11,-3.91,9.04,0.31,23.25,-19.88,-0.2,-0.07,0.07,0.98
13173,00:00:57,IMU3,0.0,0.0,0.0,0.61,-0.77,9.61,19.44,-6.44,-25.44,0.0,-0.05,0.84,0.54
13174,00:00:57,IMU1,0.0,0.0,0.0,0.46,-5.17,8.27,14.06,26.25,-16.38,-0.24,-0.14,0.4,0.87
13174,00:00:57,IMU2,0.0,0.0,0.0,1.15,-3.87,9.0,0.31,23.25,-19.88,-0.2,-0.07,0.07,0.98
13174,00:00:57,IMU3,0.0,0.0,0.01,0.61,-0.77,9.61,19.44,-6.44,-25.44,0.0,-0.05,0.84,0.54
13175,00:00:57,IMU1,0.0,0.0,0.0,0.46,-5.17,8.27,14.06,26.25,-16.38,-0.24,-0.14,0.4,0.87
13175,00:00:57,IMU2,0.0,0.0,0.0,1.15,-3.87,9.0,0.31,25.81,-21.44,-0.2,-0.07,0.07,0.98
13175,00:00:57,IMU3,0.0,0.0,0.01,0.61,-0.77,9.61,19.44,-6.44,-25.44,0.0,-0.05,0.84,0.54
13176,00:00:57,IMU1,0.0,0.0,0.0,0.46,-5.17,8.27,14.06,26.25,-16.38,-0.24,-0.14,0.4,0.87
13176,00:00:57,IMU2,0.0,0.0,0.0,1.15,-3.87,9.0,0.31,25.81,-21.44,-0.2,-0.07,0.07,0.98
13176,00:00:57,IMU3,0.0,0.0,0.01,0.54,-0.8,9.61,19.44,-6.44,-25.44,0.0,-0.05,0.84,0.54
13177,00:00:57,IMU1,0.0,0.0,0.0,0.46,-5.17,8.27,14.06,26.25,-16.38,-0.24,-0.14,0.4,0.87
13177,00:00:57,IMU2,0.0,0.0,0.0,1.15,-3.87,9.0,0.31,25.81,-21.44,-0.2,-0.07,0.07,0.98
13177,00:00:57,IMU3,0.0,0.0,0.01,0.54,-0.8,9.61,18.69,-6.81,-24.25,0.0,-0.05,0.84,0.54
13178,00:00:57,IMU1,0.0,0.0,0.0,0.42,-5.21,8.32,14.06,26.25,-16.38,-0.24,-0.14,0.4,0.87
13178,00:00:57,IMU2,0.0,0.0,0.0,1.15,-3.87,9.0,0.31,25.81,-21.44,-0.2,-0.07,0.07,0.98
13178,00:00:57,IMU3,0.0,0.0,0.01,0.54,-0.8,9.61,18.69,-6.81,-24.25,0.0,-0.05,0.84,0.54
13179,00:00:57,IMU1,0.0,0.0,0.0,0.42,-5.21,8.32,13.31,23.31,-17.19,-0.24,-0.14,0.4,0.87
13179,00:00:57,IMU2,0.0,0.0,0.0,1.15,-3.87,9.0,0.31,25.81,-21.44,-0.2,-0.07,0.07,0.98
13179,00:00:57,IMU3,0.0,0.0,0.01,0.54,-0.8,9.61,18.69,-6.81,-24.25,0.0,-0.05,0.84,0.54
13180,00:00:57,IMU1,0.0,0.0,0.0,0.42,-5.21,8.32,13.31,23.31,-17.19,-0.24,-0.14,0.4,0.87
13180,00:00:57,IMU2,0.0,0.0,0.0,1.11,-3.91,8.96,0.31,25.81,-21.44,-0.2,-0.07,0.07,0.98
13180,00:00:57,IMU3,0.0,-0.01,0.0,0.54,-0.8,9.61,18.69,-6.81,-24.25,0.0,-0.05,0.84,0.54
13181,00:00:57,IMU1,0.0,0.0,0.0,0.42,-5.21,8.32,13.31,23.31,-17.19,-0.24,-0.14,0.4,0.87
13181,00:00:57,IMU2,0.0,0.0,0.0,1.11,-3.91,8.96,-0.69,21.81,-19.88,-0.2,-0.07,0.07,0.98
13181,00:00:57,IMU3,0.0,-0.01,0.0,0.54,-0.8,9.61,18.69,-6.81,-24.25,0.0,-0.05,0.84,0.54
13182,00:00:57,IMU1,0.0,0.0,0.0,0.42,-5.17,8.28,13.31,23.31,-17.19,-0.24,-0.14,0.4,0.87
13182,00:00:57,IMU2,0.0,0.0,0.0,1.11,-3.91,8.96,-0.69,21.81,-19.88,-0.2,-0.07,0.07,0.98
13182,00:00:57,IMU3,0.0,-0.01,0.0,0.54,-0.77,9.61,18.69,-6.81,-24.25,0.0,-0.05,0.84,0.54
13183,00:00:57,IMU1,0.0,0.0,0.0,0.42,-5.17,8.28,13.31,23.31,-17.19,-0.24,-0.14,0.4,0.87
13183,00:00:57,IMU2,0.0,0.0,0.0,1.11,-3.91,8.96,-0.69,21.81,-19.88,-0.2,-0.07,0.07,0.98
13183,00:00:57,IMU3,0.0,-0.01,0.0,0.54,-0.77,9.61,18.38,-6.81,-24.25,0.0,-0.05,0.84,0.54
13184,00:00:57,IMU1,0.0,0.0,0.0,0.42,-5.17,8.28,12.56,25.5,-17.56,-0.24,-0.14,0.4,0.87
13184,00:00:57,IMU2,0.0,0.0,0.0,1.11,-3.91,8.96,-0.69,21.81,-19.88,-0.2,-0.07,0.07,0.98
13184,00:00:57,IMU3,0.0,0.0,0.0,0.54,-0.77,9.61,18.38,-6.81,-24.25,0.0,-0.05,0.84,0.54
13185,00:00:57,IMU1,0.0,0.0,0.0,0.42,-5.17,8.28,12.56,25.5,-17.56,-0.24,-0.14,0.4,0.87
13185,00:00:57,IMU2,0.0,0.0,0.0,1.11,-3.91,8.96,-0.69,21.81,-19.88,-0.2,-0.07,0.07,0.98
13185,00:00:57,IMU3,0.0,0.0,0.0,0.54,-0.77,9.61,18.38,-6.81,-24.25,0.0,-0.05,0.84,0.54
13186,00:00:57,IMU1,0.0,0.0,0.0,0.42,-5.17,8.28,12.56,25.5,-17.56,-0.24,-0.14,0.4,0.87
13186,00:00:57,IMU2,0.0,0.0,0.0,1.11,-3.91,9.04,-0.69,21.81,-19.88,-0.2,-0.07,0.07,0.98
13186,00:00:57,IMU3,0.0,0.0,0.01,0.54,-0.77,9.61,18.38,-6.81,-24.25,0.0,-0.05,0.84,0.54
13187,00:00:57,IMU1,0.0,0.0,0.0,0.42,-5.17,8.28,12.56,25.5,-17.56,-0.24,-0.14,0.4,0.87
13187,00:00:57,IMU2,0.0,0.0,0.0,1.11,-3.91,9.04,-0.31,24.38,-21.88,-0.2,-0.07,0.07,0.98
13187,00:00:57,IMU3,0.0,0.0,0.01,0.54,-0.77,9.61,18.38,-6.81,-24.25,0.0,-0.05,0.84,0.54
13188,00:00:57,IMU1,0.0,0.0,0.0,0.42,-5.17,8.28,12.56,25.5,-17.56,-0.24,-0.14,0.4,0.87
13188,00:00:57,IMU2,0.0,0.0,0.0,1.11,-3.91,9.04,-0.31,24.38,-21.88,-0.2,-0.07,0.07,0.98
13188,00:00:57,IMU3,0.01,0.0,0.01,0.54,-0.77,9.61,18.38,-6.81,-24.25,0.0,-0.05,0.84,0.54
13189,00:00:57,IMU1,0.0,0.0,0.0,0.42,-5.17,8.28,12.56,25.5,-17.56,-0.24,-0.14,0.4,0.87
13189,00:00:57,IMU2,0.0,0.0,0.0,1.11,-3.91,9.04,-0.31,24.38,-21.88,-0.2,-0.07,0.07,0.98
13189,00:00:57,IMU3,0.01,0.0,0.01,0.54,-0.77,9.61,18.38,-6.81,-24.25,0.0,-0.05,0.84,0.54
13190,00:00:57,IMU1,0.0,0.0,0.0,0.46,-5.21,8.28,12.56,25.5,-17.56,-0.24,-0.14,0.4,0.87
13190,00:00:57,IMU2,0.0,0.0,0.0,1.11,-3.91,9.04,-0.31,24.38,-21.88,-0.2,-0.07,0.07,0.98
13190,00:00:57,IMU3,0.01,0.0,0.01,0.57,-0.73,9.65,18.38,-6.81,-24.25,0.0,-0.05,0.84,0.54
13191,00:00:57,IMU1,0.0,0.0,0.0,0.46,-5.21,8.28,11.44,26.25,-17.19,-0.24,-0.14,0.4,0.87
13191,00:00:57,IMU2,0.0,0.0,0.0,1.11,-3.91,9.04,-0.31,24.38,-21.88,-0.2,-0.07,0.07,0.98
13191,00:00:57,IMU3,0.01,0.0,0.01,0.57,-0.73,9.65,18.38,-7.56,-24.69,0.0,-0.05,0.84,0.54
13192,00:00:57,IMU1,0.0,0.0,0.0,0.46,-5.21,8.28,11.44,26.25,-17.19,-0.24,-0.14,0.4,0.87
13192,00:00:57,IMU2,0.0,0.0,0.0,1.19,-3.91,9.04,-0.31,24.38,-21.88,-0.2,-0.07,0.07,0.98
13192,00:00:57,IMU3,0.0,0.0,0.0,0.57,-0.73,9.65,18.38,-7.56,-24.69,0.0,-0.05,0.84,0.54
13193,00:00:57,IMU1,0.0,0.0,0.0,0.46,-5.21,8.28,11.44,26.25,-17.19,-0.24,-0.14,0.4,0.87
13193,00:00:57,IMU2,0.0,0.0,0.0,1.19,-3.91,9.04,-0.31,24.38,-21.88,-0.2,-0.07,0.07,0.98
13193,00:00:57,IMU3,0.0,0.0,0.0,0.57,-0.73,9.65,18.38,-7.56,-24.69,0.0,-0.05,0.84,0.54
13194,00:00:57,IMU1,0.0,0.0,0.0,0.46,-5.21,8.28,11.44,26.25,-17.19,-0.24,-0.14,0.4,0.87
13194,00:00:57,IMU2,0.0,0.0,0.0,1.19,-3.91,9.04,0.69,24.75,-20.69,-0.2,-0.07,0.07,0.98
13194,00:00:57,IMU3,0.0,0.0,0.0,0.57,-0.73,9.65,18.38,-7.56,-24.69,0.0,-0.05,0.84,0.54
13195,00:00:57,IMU1,0.0,0.0,0.0,0.46,-5.21,8.28,11.44,26.25,-17.19,-0.24,-0.14,0.4,0.87
13195,00:00:57,IMU2,0.0,0.0,0.0,1.19,-3.91,9.04,0.69,24.75,-20.69,-0.2,-0.07,0.07,0.98
13195,00:00:57,IMU3,0.0,0.0,0.0,0.57,-0.73,9.65,18.38,-7.56,-24.69,0.0,-0.05,0.84,0.54
13196,00:00:57,IMU1,0.0,0.0,0.0,0.42,-5.17,8.28,11.44,26.25,-17.19,-0.24,-0.14,0.4,0.87
13196,00:00:57,IMU2,0.0,0.0,0.0,1.19,-3.91,9.04,0.69,24.75,-20.69,-0.2,-0.07,0.07,0.98
13196,00:00:57,IMU3,0.0,0.0,-0.01,0.57,-0.73,9.65,18.38,-7.56,-24.69,0.0,-0.05,0.84,0.54
13197,00:00:57,IMU1,0.0,0.0,0.0,0.42,-5.17,8.28,12.94,25.88,-17.19,-0.24,-0.14,0.4,0.87
13197,00:00:57,IMU2,0.0,0.0,0.0,1.19,-3.91,9.04,0.69,24.75,-20.69,-0.2,-0.07,0.07,0.98
13197,00:00:57,IMU3,0.0,0.0,-0.01,0.57,-0.73,9.65,18.38,-7.56,-24.69,0.0,-0.05,0.84,0.54
13198,00:00:57,IMU1,0.0,0.0,0.0,0.42,-5.17,8.28,12.94,25.88,-17.19,-0.24,-0.14,0.4,0.87
13198,00:00:57,IMU2,0.0,0.0,0.0,1.19,-3.91,9.04,0.69,24.75,-20.69,-0.2,-0.07,0.07,0.98
13198,00:00:57,IMU3,0.0,0.0,-0.01,0.61,-0.73,9.61,18.38,-7.56,-24.69,0.0,-0.05,0.84,0.54
13199,00:00:57,IMU1,0.0,0.0,0.0,0.42,-5.17,8.28,12.94,25.88,-17.19,-0.24,-0.14,0.4,0.87
13199,00:00:57,IMU2,0.0,0.0,0.0,1.19,-3.91,9.04,0.69,24.75,-20.69,-0.2,-0.07,0.07,0.98
13199,00:00:57,IMU3,0.0,0.0,-0.01,0.61,-0.73,9.61,19.06,-7.56,-25.44,0.0,-0.05,0.84,0.54
13200,00:00:57,IMU1,0.0,0.0,0.0,0.42,-5.17,8.28,12.94,25.88,-17.19,-0.24,-0.14,0.4,0.87
13200,00:00:57,IMU2,0.0,0.0,0.0,1.11,-3.87,9.04,0.69,24.75,-20.69,-0.2,-0.07,0.07,0.98
13200,00:00:57,IMU3,0.0,0.0,0.0,0.61,-0.73,9.61,19.06,-7.56,-25.44,0.0,-0.05,0.84,0.54
13201,00:00:57,IMU1,0.0,0.0,0.0,0.42,-5.17,8.28,12.94,25.88,-17.19,-0.24,-0.14,0.4,0.87
13201,00:00:57,IMU2,0.0,0.0,0.0,1.11,-3.87,9.04,-0.31,22.19,-21.06,-0.2,-0.07,0.07,0.98
13201,00:00:57,IMU3,0.0,0.0,0.0,0.61,-0.73,9.61,19.06,-7.56,-25.44,0.0,-0.05,0.84,0.54
13202,00:00:57,IMU1,0.0,0.0,0.0,0.42,-5.17,8.28,12.94,25.88,-17.19,-0.24,-0.14,0.4,0.87
13202,00:00:57,IMU2,0.0,0.0,0.0,1.11,-3.87,9.04,-0.31,22.19,-21.06,-0.2,-0.07,0.07,0.98
13202,00:00:57,IMU3,0.0,0.0,0.0,0.61,-0.73,9.61,19.06,-7.56,-25.44,0.0,-0.05,0.84,0.54
13203,00:00:57,IMU1,0.0,0.0,0.0,0.42,-5.17,8.28,12.94,25.88,-17.19,-0.24,-0.14,0.4,0.87
13203,00:00:57,IMU2,0.0,0.0,0.0,1.11,-3.87,9.04,-0.31,22.19,-21.06,-0.2,-0.07,0.07,0.98
13203,00:00:57,IMU3,0.0,0.0,0.0,0.61,-0.73,9.61,19.06,-7.56,-25.44,0.0,-0.05,0.84,0.54
13204,00:00:57,IMU1,0.0,0.0,0.0,0.46,-5.17,8.27,12.94,25.88,-17.19,-0.24,-0.14,0.4,0.87
13204,00:00:57,IMU2,0.0,0.0,0.0,1.11,-3.87,9.04,-0.31,22.19,-21.06,-0.2,-0.07,0.07,0.98
13204,00:00:57,IMU3,0.0,0.0,0.0,0.61,-0.77,9.61,19.06,-7.56,-25.44,0.0,-0.05,0.84,0.54
13205,00:00:57,IMU1,0.0,0.0,0.0,0.46,-5.17,8.27,12.56,24.38,-14.75,-0.24,-0.14,0.4,0.87
13205,00:00:57,IMU2,0.0,0.0,0.0,1.11,-3.87,9.04,-0.31,22.19,-21.06,-0.2,-0.07,0.07,0.98
13205,00:00:57,IMU3,0.0,0.0,0.0,0.61,-0.77,9.61,18.69,-6.81,-25.06,0.0,-0.05,0.84,0.54
13206,00:00:57,IMU1,0.0,0.0,0.0,0.46,-5.17,8.27,12.56,24.38,-14.75,-0.24,-0.14,0.4,0.87
13206,00:00:57,IMU2,0.0,0.0,0.0,1.11,-3.91,9.04,-0.31,22.19,-21.06,-0.2,-0.07,0.07,0.98
13206,00:00:57,IMU3,0.0,0.0,0.0,0.61,-0.77,9.61,18.69,-6.81,-25.06,0.0,-0.05,0.84,0.54
13207,00:00:57,IMU1,0.0,0.0,0.0,0.46,-5.17,8.27,12.56,24.38,-14.75,-0.24,-0.14,0.4,0.87
13207,00:00:57,IMU2,0.0,0.0,0.0,1.11,-3.91,9.04,-0.69,24.0,-19.12,-0.2,-0.07,0.07,0.98
13207,00:00:57,IMU3,0.0,0.0,0.0,0.61,-0.77,9.61,18.69,-6.81,-25.06,0.0,-0.05,0.84,0.54
13208,00:00:57,IMU1,0.0,0.0,0.0,0.46,-5.17,8.27,12.56,24.38,-14.75,-0.24,-0.14,0.4,0.87
13208,00:00:57,IMU2,0.0,0.0,0.0,1.11,-3.91,9.04,-0.69,24.0,-19.12,-0.2,-0.07,0.07,0.98
13208,00:00:57,IMU3,-0.01,0.01,0.0,0.61,-0.77,9.61,18.69,-6.81,-25.06,0.0,-0.05,0.84,0.54
13209,00:00:57,IMU1,0.0,0.0,0.0,0.46,-5.17,8.27,12.56,24.38,-14.75,-0.24,-0.14,0.4,0.87
13209,00:00:57,IMU2,0.0,0.0,0.0,1.11,-3.91,9.04,-0.69,24.0,-19.12,-0.2,-0.07,0.07,0.98
13209,00:00:57,IMU3,-0.01,0.01,0.0,0.61,-0.77,9.61,18.69,-6.81,-25.06,0.0,-0.05,0.84,0.54
13210,00:00:57,IMU1,0.0,0.0,0.0,0.42,-5.17,8.24,12.56,24.38,-14.75,-0.24,-0.14,0.4,0.87
13210,00:00:57,IMU2,0.0,0.0,0.0,1.11,-3.91,9.04,-0.69,24.0,-19.12,-0.2,-0.07,0.07,0.98
13210,00:00:57,IMU3,-0.01,0.01,0.0,0.54,-0.73,9.61,18.69,-6.81,-25.06,0.0,-0.05,0.84,0.54
13211,00:00:57,IMU1,0.0,0.0,0.0,0.42,-5.17,8.24,12.56,24.38,-14.75,-0.24,-0.14,0.4,0.87
13211,00:00:57,IMU2,0.0,0.0,0.0,1.11,-3.91,9.04,-0.69,24.0,-19.12,-0.2,-0.07,0.07,0.98
13211,00:00:57,IMU3,0.0,0.0,0.0,0.54,-0.73,9.61,18.69,-6.81,-25.06,0.0,-0.05,0.84,0.54
13212,00:00:57,IMU1,0.0,0.0,0.0,0.42,-5.17,8.24,13.31,24.75,-16.38,-0.24,-0.14,0.4,0.87
13212,00:00:57,IMU2,0.0,0.0,0.0,1.11,-3.91,9.04,-0.69,24.0,-19.12,-0.2,-0.07,0.07,0.98
13212,00:00:57,IMU3,0.0,0.0,0.0,0.54,-0.73,9.61,18.69,-7.19,-25.06,0.0,-0.05,0.84,0.54
13213,00:00:57,IMU1,0.0,0.0,0.0,0.42,-5.17,8.24,13.31,24.75,-16.38,-0.24,-0.14,0.4,0.87
13213,00:00:57,IMU2,0.0,0.0,0.0,1.11,-3.91,9.04,-0.69,24.0,-19.12,-0.2,-0.07,0.07,0.98
13213,00:00:57,IMU3,0.0,0.0,0.0,0.54,-0.73,9.61,18.69,-7.19,-25.06,0.0,-0.05,0.84,0.54
13214,00:00:57,IMU1,0.0,0.0,0.0,0.42,-5.17,8.24,13.31,24.75,-16.38,-0.24,-0.14,0.4,0.87
13214,00:00:57,IMU2,0.0,0.0,0.0,1.11,-3.91,8.96,-0.69,24.0,-19.12,-0.2,-0.07,0.07,0.98
13214,00:00:57,IMU3,0.0,0.0,0.0,0.54,-0.73,9.61,18.69,-7.19,-25.06,0.0,-0.05,0.84,0.54
13215,00:00:57,IMU1,0.0,0.0,0.0,0.42,-5.17,8.24,13.31,24.75,-16.38,-0.24,-0.14,0.4,0.87
13215,00:00:57,IMU2,0.0,0.0,0.0,1.11,-3.91,8.96,0.0,24.38,-21.81,-0.2,-0.07,0.07,0.98
13215,00:00:57,IMU3,0.0,0.0,0.0,0.54,-0.73,9.61,18.69,-7.19,-25.06,0.0,-0.05,0.84,0.54
13216,00:00:57,IMU1,0.0,0.0,0.0,0.42,-5.17,8.24,13.31,24.75,-16.38,-0.24,-0.14,0.4,0.87
13216,00:00:57,IMU2,0.0,0.0,0.0,1.11,-3.91,8.96,0.0,24.38,-21.81,-0.2,-0.07,0.07,0.98
13216,00:00:57,IMU3,0.0,0.0,0.0,0.54,-0.77,9.65,18.69,-7.19,-25.06,0.0,-0.05,0.84,0.54
13217,00:00:57,IMU1,0.0,0.0,0.0,0.42,-5.17,8.24,13.31,24.75,-16.38,-0.24,-0.14,0.4,0.87
13217,00:00:57,IMU2,0.0,0.0,0.0,1.11,-3.91,8.96,0.0,24.38,-21.81,-0.2,-0.07,0.07,0.98
13217,00:00:57,IMU3,0.0,0.0,0.0,0.54,-0.77,9.65,18.69,-6.44,-25.44,0.0,-0.05,0.84,0.54
13218,00:00:57,IMU1,0.0,0.0,0.0,0.46,-5.17,8.27,13.31,24.75,-16.38,-0.24,-0.14,0.4,0.87
13218,00:00:57,IMU2,0.0,0.0,0.0,1.11,-3.91,8.96,0.0,24.38,-21.81,-0.2,-0.07,0.07,0.98
13218,00:00:57,IMU3,0.01,0.0,0.0,0.54,-0.77,9.65,18.69,-6.44,-25.44,0.0,-0.05,0.84,0.54
13219,00:00:57,IMU1,0.0,0.0,0.0,0.46,-5.17,8.27,13.31,24.75,-16.38,-0.24,-0.14,0.4,0.87
13219,00:00:57,IMU2,0.0,0.0,0.0,1.11,-3.91,8.96,0.0,24.38,-21.81,-0.2,-0.07,0.07,0.98
13219,00:00:57,IMU3,0.01,0.0,0.0,0.54,-0.77,9.65,18.69,-6.44,-25.44,0.0,-0.05,0.84,0.54
13220,00:00:57,IMU1,0.0,0.0,0.0,0.46,-5.17,8.27,13.31,24.38,-16.0,-0.24,-0.14,0.4,0.87
13220,00:00:57,IMU2,0.0,0.0,0.0,1.11,-3.91,8.96,0.0,24.38,-21.81,-0.2,-0.07,0.07,0.98
13220,00:00:57,IMU3,0.0,0.0,0.0,0.54,-0.77,9.65,18.69,-6.44,-25.44,0.0,-0.05,0.84,0.54
13221,00:00:57,IMU1,0.0,0.0,0.0,0.46,-5.17,8.27,13.31,24.38,-16.0,-0.24,-0.14,0.4,0.87
13221,00:00:57,IMU2,0.0,0.0,0.0,1.11,-3.91,8.96,0.0,24.38,-21.81,-0.2,-0.07,0.07,0.98
13221,00:00:57,IMU3,0.0,0.0,0.0,0.54,-0.77,9.65,18.69,-6.44,-25.44,0.0,-0.05,0.84,0.54
13222,00:00:57,IMU1,0.0,0.0,0.0,0.46,-5.17,8.27,13.31,24.38,-16.0,-0.24,-0.14,0.4,0.87
13222,00:00:57,IMU2,0.0,0.0,0.0,1.11,-3.91,9.08,0.0,24.38,-21.81,-0.2,-0.07,0.07,0.98
13222,00:00:57,IMU3,0.0,0.0,0.0,0.61,-0.77,9.58,18.69,-6.44,-25.44,0.0,-0.05,0.84,0.54
13223,00:00:57,IMU1,0.0,0.0,0.0,0.46,-5.17,8.27,13.31,24.38,-16.0,-0.24,-0.14,0.4,0.87
13223,00:00:57,IMU2,0.0,0.0,0.0,1.11,-3.91,9.08,0.0,24.38,-21.81,-0.2,-0.07,0.07,0.98
13223,00:00:57,IMU3,0.0,0.0,0.0,0.61,-0.77,9.58,18.38,-8.25,-24.25,0.0,-0.05,0.84,0.54
13224,00:00:57,IMU1,0.0,0.0,0.0,0.42,-5.21,8.2,13.31,24.38,-16.0,-0.24,-0.14,0.4,0.87
13224,00:00:57,IMU2,0.0,0.0,0.0,1.11,-3.91,9.08,-0.31,22.94,-21.06,-0.2,-0.07,0.07,0.98
13224,00:00:57,IMU3,0.0,-0.01,0.0,0.61,-0.77,9.58,18.38,-8.25,-24.25,0.0,-0.05,0.84,0.54
13225,00:00:57,IMU1,0.0,0.0,0.0,0.42,-5.21,8.2,13.31,24.38,-16.0,-0.24,-0.14,0.4,0.87
13225,00:00:57,IMU2,0.0,0.0,0.0,1.11,-3.91,9.08,-0.31,22.94,-21.06,-0.2,-0.07,0.07,0.98
13225,00:00:57,IMU3,0.0,-0.01,0.0,0.61,-0.77,9.58,18.38,-8.25,-24.25,0.0,-0.05,0.84,0.54
13226,00:00:57,IMU1,0.0,0.0,0.0,0.42,-5.21,8.2,12.19,22.94,-17.19,-0.24,-0.14,0.4,0.87
13226,00:00:57,IMU2,0.0,0.0,0.0,1.11,-3.91,9.08,-0.31,22.94,-21.06,-0.2,-0.07,0.07,0.98
13226,00:00:57,IMU3,0.0,-0.01,0.0,0.61,-0.77,9.58,18.38,-8.25,-24.25,0.0,-0.05,0.84,0.54
13227,00:00:57,IMU1,0.0,0.0,0.0,0.42,-5.21,8.2,12.19,22.94,-17.19,-0.24,-0.14,0.4,0.87
13227,00:00:57,IMU2,0.0,0.0,0.0,1.11,-3.91,9.08,-0.31,22.94,-21.06,-0.2,-0.07,0.07,0.98
13227,00:00:57,IMU3,0.0,-0.01,0.0,0.61,-0.77,9.58,18.38,-8.25,-24.25,0.0,-0.05,0.84,0.54
13228,00:00:57,IMU1,0.0,0.0,0.0,0.42,-5.21,8.2,12.19,22.94,-17.19,-0.24,-0.14,0.4,0.87
13228,00:00:57,IMU2,0.0,0.0,0.0,1.11,-3.87,9.04,-0.31,22.94,-21.06,-0.2,-0.07,0.07,0.98
13228,00:00:57,IMU3,0.0,-0.01,0.0,0.54,-0.77,9.58,18.38,-8.25,-24.25,0.0,-0.05,0.84,0.54
13229,00:00:57,IMU1,0.0,0.0,0.0,0.42,-5.21,8.2,12.19,22.94,-17.19,-0.24,-0.14,0.4,0.87
13229,00:00:57,IMU2,0.0,0.0,0.0,1.11,-3.87,9.04,-1.06,22.94,-20.31,-0.2,-0.07,0.07,0.98
13229,00:00:57,IMU3,0.0,-0.01,0.0,0.54,-0.77,9.58,17.25,-7.19,-23.88,0.0,-0.05,0.84,0.54
13230,00:00:57,IMU1,0.0,0.0,0.0,0.42,-5.21,8.2,12.19,22.94,-17.19,-0.24,-0.14,0.4,0.87
13230,00:00:57,IMU2,0.0,0.0,0.0,1.11,-3.87,9.04,-1.06,22.94,-20.31,-0.2,-0.07,0.07,0.98
13230,00:00:57,IMU3,0.0,0.0,0.0,0.54,-0.77,9.58,17.25,-7.19,-23.88,0.0,-0.05,0.84,0.54
13231,00:00:57,IMU1,0.0,0.0,0.0,0.42,-5.21,8.2,12.19,22.94,-17.19,-0.24,-0.14,0.4,0.87
13231,00:00:57,IMU2,0.0,0.0,0.0,1.11,-3.87,9.04,-1.06,22.94,-20.31,-0.2,-0.07,0.07,0.98
13231,00:00:57,IMU3,0.0,0.0,0.0,0.54,-0.77,9.58,17.25,-7.19,-23.88,0.0,-0.05,0.84,0.54
13232,00:00:57,IMU1,0.0,0.0,0.0,0.46,-5.13,8.24,12.19,22.94,-17.19,-0.24,-0.14,0.4,0.87
13232,00:00:57,IMU2,0.0,0.0,0.0,1.11,-3.87,9.04,-1.06,22.94,-20.31,-0.2,-0.07,0.07,0.98
13232,00:00:57,IMU3,0.0,0.0,0.0,0.54,-0.77,9.58,17.25,-7.19,-23.88,0.0,-0.05,0.84,0.54
13233,00:00:57,IMU1,0.0,0.0,0.0,0.46,-5.13,8.24,13.31,25.5,-16.38,-0.24,-0.14,0.4,0.87
13233,00:00:57,IMU2,0.0,0.0,0.0,1.11,-3.87,9.04,-1.06,22.94,-20.31,-0.2,-0.07,0.07,0.98
13233,00:00:57,IMU3,0.0,0.0,0.0,0.54,-0.77,9.58,17.25,-7.19,-23.88,0.0,-0.05,0.84,0.54
13234,00:00:57,IMU1,0.0,0.0,0.0,0.46,-5.13,8.24,13.31,25.5,-16.38,-0.24,-0.14,0.4,0.87
13234,00:00:57,IMU2,0.0,0.0,0.0,1.11,-3.87,9.08,-1.06,22.94,-20.31,-0.2,-0.07,0.07,0.98
13234,00:00:57,IMU3,0.0,0.0,0.0,0.54,-0.77,9.58,17.25,-7.19,-23.88,0.0,-0.05,0.84,0.54
13235,00:00:57,IMU1,0.0,0.0,0.0,0.46,-5.13,8.24,13.31,25.5,-16.38,-0.24,-0.14,0.4,0.87
13235,00:00:57,IMU2,0.0,0.0,0.0,1.11,-3.87,9.08,-1.44,24.0,-19.12,-0.2,-0.07,0.07,0.98
13235,00:00:57,IMU3,0.0,0.0,0.0,0.54,-0.77,9.58,17.25,-7.19,-23.88,0.0,-0.05,0.84,0.54
13236,00:00:57,IMU1,0.0,0.0,0.0,0.46,-5.13,8.24,13.31,25.5,-16.38,-0.24,-0.14,0.4,0.87
13236,00:00:57,IMU2,0.0,0.0,0.0,1.11,-3.87,9.08,-1.44,24.0,-19.12,-0.2,-0.07,0.07,0.98
13236,00:00:57,IMU3,0.0,0.0,0.0,0.54,-0.77,9.58,17.25,-7.19,-23.88,0.0,-0.05,0.84,0.54
13237,00:00:57,IMU1,0.0,0.0,0.0,0.46,-5.13,8.24,13.31,25.5,-16.38,-0.24,-0.14,0.4,0.87
13237,00:00:57,IMU2,0.0,0.0,0.0,1.11,-3.87,9.08,-1.44,24.0,-19.12,-0.2,-0.07,0.07,0.98
13237,00:00:57,IMU3,0.0,0.0,0.0,0.54,-0.77,9.58,17.25,-7.19,-23.88,0.0,-0.05,0.84,0.54
13238,00:00:57,IMU1,0.0,0.0,0.0,0.46,-5.13,8.24,13.31,25.5,-16.38,-0.24,-0.14,0.4,0.87
13238,00:00:57,IMU2,0.0,0.0,0.0,1.11,-3.87,9.08,-1.44,24.0,-19.12,-0.2,-0.07,0.07,0.98
13238,00:00:57,IMU3,0.0,0.0,0.0,0.57,-0.8,9.61,17.25,-7.19,-23.88,0.0,-0.05,0.84,0.54
13239,00:00:57,IMU1,0.0,0.0,0.0,0.46,-5.13,8.24,13.31,25.5,-16.38,-0.24,-0.14,0.4,0.87
13239,00:00:57,IMU2,0.0,0.0,0.0,1.11,-3.87,9.08,-1.44,24.0,-19.12,-0.2,-0.07,0.07,0.98
13239,00:00:57,IMU3,0.0,0.0,0.0,0.57,-0.8,9.61,19.06,-7.19,-25.44,0.0,-0.05,0.84,0.54
13240,00:00:57,IMU1,0.0,0.0,0.0,0.46,-5.17,8.27,13.31,25.5,-16.38,-0.24,-0.14,0.4,0.87
13240,00:00:57,IMU2,0.0,0.0,0.0,1.11,-3.87,9.08,-1.44,24.0,-19.12,-0.2,-0.07,0.07,0.98
13240,00:00:57,IMU3,0.0,0.0,0.0,0.57,-0.8,9.61,19.06,-7.19,-25.44,0.0,-0.05,0.84,0.54
13241,00:00:57,IMU1,0.0,0.0,0.0,0.46,-5.17,8.27,12.94,25.12,-16.38,-0.24,-0.14,0.4,0.87
13241,00:00:57,IMU2,0.0,0.0,0.0,1.11,-3.87,9.08,-1.44,24.0,-19.12,-0.2,-0.07,0.07,0.98
13241,00:00:57,IMU3,0.0,0.0,0.0,0.57,-0.8,9.61,19.06,-7.19,-25.44,0.0,-0.05,0.84,0.54
13242,00:00:57,IMU1,0.0,0.0,0.0,0.46,-5.17,8.27,12.94,25.12,-16.38,-0.24,-0.14,0.4,0.87
13242,00:00:57,IMU2,0.0,0.0,0.0,1.11,-3.87,8.96,-1.44,24.0,-19.12,-0.2,-0.07,0.07,0.98
13242,00:00:57,IMU3,0.0,0.0,0.0,0.57,-0.8,9.61,19.06,-7.19,-25.44,0.0,-0.05,0.84,0.54
13243,00:00:57,IMU1,0.0,0.0,0.0,0.46,-5.17,8.27,12.94,25.12,-16.38,-0.24,-0.14,0.4,0.87
13243,00:00:57,IMU2,0.0,0.0,0.0,1.11,-3.87,8.96,1.81,23.25,-20.69,-0.2,-0.07,0.07,0.98
13243,00:00:57,IMU3,0.0,0.0,0.0,0.57,-0.8,9.61,19.06,-7.19,-25.44,0.0,-0.05,0.84,0.54
13244,00:00:57,IMU1,0.0,0.0,0.0,0.38,-5.17,8.32,12.94,25.12,-16.38,-0.24,-0.14,0.4,0.87
13244,00:00:57,IMU2,0.0,0.0,0.0,1.11,-3.87,8.96,1.81,23.25,-20.69,-0.2,-0.07,0.07,0.98
13244,00:00:57,IMU3,0.0,0.0,0.0,0.61,-0.77,9.58,19.06,-7.19,-25.44,0.0,-0.05,0.84,0.54
13245,00:00:57,IMU1,0.0,0.0,0.0,0.38,-5.17,8.32,12.94,25.12,-16.38,-0.24,-0.14,0.4,0.87
13245,00:00:57,IMU2,0.0,0.0,0.0,1.11,-3.87,8.96,1.81,23.25,-20.69,-0.2,-0.07,0.07,0.98
13245,00:00:57,IMU3,0.01,0.0,0.0,0.61,-0.77,9.58,19.06,-7.19,-25.44,0.0,-0.05,0.84,0.54
13246,00:00:57,IMU1,0.0,0.0,0.0,0.38,-5.17,8.32,12.56,25.12,-14.81,-0.24,-0.14,0.4,0.87
13246,00:00:57,IMU2,0.0,0.0,0.0,1.15,-3.91,8.96,1.81,23.25,-20.69,-0.2,-0.07,0.07,0.98
13246,00:00:57,IMU3,0.01,0.0,0.0,0.61,-0.77,9.58,18.38,-7.19,-23.5,0.0,-0.05,0.84,0.54
13247,00:00:57,IMU1,0.0,0.0,0.0,0.38,-5.17,8.32,12.56,25.12,-14.81,-0.24,-0.14,0.4,0.87
13247,00:00:57,IMU2,0.0,0.0,0.0,1.15,-3.91,8.96,1.81,23.25,-20.69,-0.2,-0.07,0.07,0.98
13247,00:00:57,IMU3,0.01,0.0,0.0,0.61,-0.77,9.58,18.38,-7.19,-23.5,0.0,-0.05,0.84,0.54
13248,00:00:57,IMU1,0.0,0.0,0.0,0.38,-5.17,8.32,12.56,25.12,-14.81,-0.24,-0.14,0.4,0.87
13248,00:00:57,IMU2,0.0,0.0,0.0,1.15,-3.91,8.96,-0.31,24.38,-21.06,-0.2,-0.07,0.07,0.98
13248,00:00:57,IMU3,0.0,0.01,-0.01,0.61,-0.77,9.58,18.38,-7.19,-23.5,0.0,-0.05,0.84,0.54
13249,00:00:57,IMU1,0.0,0.0,0.0,0.38,-5.17,8.32,12.56,25.12,-14.81,-0.24,-0.14,0.4,0.87
13249,00:00:57,IMU2,0.0,0.0,0.0,1.15,-3.91,8.96,-0.31,24.38,-21.06,-0.2,-0.07,0.07,0.98
13249,00:00:57,IMU3,0.0,0.01,-0.01,0.61,-0.77,9.58,18.38,-7.19,-23.5,0.0,-0.05,0.84,0.54
13250,00:00:57,IMU1,0.0,0.0,0.0,0.38,-5.17,8.32,12.56,25.12,-14.81,-0.24,-0.14,0.4,0.87
13250,00:00:57,IMU2,0.0,0.0,0.0,1.15,-3.91,8.96,-0.31,24.38,-21.06,-0.2,-0.07,0.07,0.98
13250,00:00:57,IMU3,0.0,0.0,0.0,0.61,-0.77,9.58,18.38,-7.19,-23.5,0.0,-0.05,0.84,0.54
13251,00:00:57,IMU1,0.0,0.0,0.0,0.38,-5.17,8.32,12.56,25.12,-14.81,-0.24,-0.14,0.4,0.87
13251,00:00:57,IMU2,0.0,0.0,0.0,1.15,-3.91,8.96,-0.31,24.38,-21.06,-0.2,-0.07,0.07,0.98
13251,00:00:57,IMU3,0.0,0.0,0.0,0.61,-0.77,9.58,18.38,-7.19,-23.5,0.0,-0.05,0.84,0.54
13252,00:00:57,IMU1,0.0,0.0,0.0,0.38,-5.17,8.32,12.56,25.12,-14.81,-0.24,-0.14,0.4,0.87
13252,00:00:57,IMU2,0.0,0.0,0.0,1.15,-3.91,9.08,-0.31,24.38,-21.06,-0.2,-0.07,0.07,0.98
13252,00:00:57,IMU3,0.0,0.0,0.0,0.57,-0.77,9.61,18.38,-7.19,-23.5,0.0,-0.05,0.84,0.54
13253,00:00:57,IMU1,0.0,0.0,0.0,0.38,-5.17,8.32,12.56,25.12,-14.81,-0.24,-0.14,0.4,0.87
13253,00:00:57,IMU2,0.0,0.0,0.0,1.15,-3.91,9.08,0.31,24.0,-20.31,-0.2,-0.07,0.07,0.98
13253,00:00:57,IMU3,0.0,0.0,0.0,0.57,-0.77,9.61,18.0,-6.81,-23.88,0.0,-0.05,0.84,0.54
13254,00:00:57,IMU1,0.0,0.0,0.0,0.42,-5.21,8.27,12.56,25.12,-14.81,-0.24,-0.14,0.4,0.87
13254,00:00:57,IMU2,0.0,0.0,0.0,1.15,-3.91,9.08,0.31,24.0,-20.31,-0.2,-0.07,0.07,0.98
13254,00:00:57,IMU3,0.0,0.0,0.0,0.57,-0.77,9.61,18.0,-6.81,-23.88,0.0,-0.05,0.84,0.54
13255,00:00:57,IMU1,0.0,0.0,0.0,0.42,-5.21,8.27,12.19,22.56,-16.38,-0.24,-0.14,0.4,0.87
13255,00:00:57,IMU2,0.0,0.0,0.0,1.15,-3.91,9.08,0.31,24.0,-20.31,-0.2,-0.07,0.07,0.98
13255,00:00:57,IMU3,0.0,0.0,0.0,0.57,-0.77,9.61,18.0,-6.81,-23.88,0.0,-0.05,0.84,0.54
13256,00:00:57,IMU1,0.0,0.0,0.0,0.42,-5.21,8.27,12.19,22.56,-16.38,-0.24,-0.14,0.4,0.87
13256,00:00:57,IMU2,0.0,0.0,0.0,1.15,-3.91,9.08,0.31,24.0,-20.31,-0.2,-0.07,0.07,0.98
13256,00:00:57,IMU3,0.0,0.0,0.0,0.57,-0.77,9.61,18.0,-6.81,-23.88,0.0,-0.05,0.84,0.54
13257,00:00:57,IMU1,0.0,0.0,0.0,0.42,-5.21,8.27,12.19,22.56,-16.38,-0.24,-0.14,0.4,0.87
13257,00:00:57,IMU2,0.0,0.0,0.0,1.15,-3.91,9.08,0.31,24.0,-20.31,-0.2,-0.07,0.07,0.98
13257,00:00:57,IMU3,0.0,0.0,0.0,0.57,-0.77,9.61,18.0,-6.81,-23.88,0.0,-0.05,0.84,0.54
13258,00:00:57,IMU1,0.0,0.0,0.0,0.42,-5.21,8.27,12.19,22.56,-16.38,-0.24,-0.14,0.4,0.87
13258,00:00:57,IMU2,0.0,0.0,0.0,1.15,-3.91,9.04,0.31,24.0,-20.31,-0.2,-0.07,0.07,0.98
13258,00:00:57,IMU3,0.0,0.0,0.0,0.61,-0.77,9.58,18.0,-6.81,-23.88,0.0,-0.05,0.84,0.54
13259,00:00:57,IMU1,0.0,0.0,0.0,0.42,-5.21,8.27,12.94,24.75,-14.81,-0.24,-0.14,0.4,0.87
13259,00:00:57,IMU2,0.0,0.0,0.0,1.15,-3.91,9.04,0.69,24.0,-21.44,-0.2,-0.07,0.07,0.98
13259,00:00:57,IMU3,0.0,0.0,0.0,0.61,-0.77,9.58,18.69,-7.88,-25.44,0.0,-0.05,0.84,0.54
13260,00:00:57,IMU1,0.0,0.0,0.0,0.42,-5.21,8.27,12.94,24.75,-14.81,-0.24,-0.14,0.4,0.87
13260,00:00:57,IMU2,0.0,0.0,0.0,1.15,-3.91,9.04,0.69,24.0,-21.44,-0.2,-0.07,0.07,0.98
13260,00:00:57,IMU3,0.0,0.0,0.0,0.61,-0.77,9.58,18.69,-7.88,-25.44,0.0,-0.05,0.84,0.54
13261,00:00:57,IMU1,0.0,0.0,0.0,0.42,-5.21,8.27,12.94,24.75,-14.81,-0.24,-0.14,0.4,0.87
13261,00:00:57,IMU2,0.0,0.0,0.0,1.15,-3.91,9.04,0.69,24.0,-21.44,-0.2,-0.07,0.07,0.98
13261,00:00:57,IMU3,0.0,0.0,0.0,0.61,-0.77,9.58,18.69,-7.88,-25.44,0.0,-0.05,0.84,0.54
13262,00:00:57,IMU1,0.0,0.0,0.0,0.42,-5.21,8.27,12.94,24.75,-14.81,-0.24,-0.14,0.4,0.87
13262,00:00:57,IMU2,0.0,0.0,0.0,1.15,-3.91,9.04,0.69,24.0,-21.44,-0.2,-0.07,0.07,0.98
13262,00:00:57,IMU3,0.0,0.0,0.0,0.61,-0.77,9.58,18.69,-7.88,-25.44,0.0,-0.05,0.84,0.54
13263,00:00:57,IMU1,0.0,0.0,0.0,0.42,-5.21,8.27,12.94,24.75,-14.81,-0.24,-0.14,0.4,0.87
13263,00:00:57,IMU2,0.0,0.0,0.0,1.15,-3.91,9.04,0.69,24.0,-21.44,-0.2,-0.07,0.07,0.98
13263,00:00:57,IMU3,0.0,0.0,0.0,0.61,-0.77,9.58,18.69,-7.88,-25.44,0.0,-0.05,0.84,0.54
13264,00:00:57,IMU1,0.0,0.0,0.0,0.42,-5.21,8.27,12.94,24.75,-14.81,-0.24,-0.14,0.4,0.87
13264,00:00:57,IMU2,0.0,0.0,0.0,1.15,-3.87,9.04,0.69,24.0,-21.44,-0.2,-0.07,0.07,0.98
13264,00:00:57,IMU3,0.0,0.0,0.0,0.61,-0.77,9.58,18.69,-7.88,-25.44,0.0,-0.05,0.84,0.54
13265,00:00:57,IMU1,0.0,0.0,0.0,0.42,-5.21,8.27,12.94,26.25,-16.81,-0.24,-0.14,0.4,0.87
13265,00:00:57,IMU2,0.0,0.0,0.0,1.15,-3.87,9.04,-1.06,24.38,-19.12,-0.2,-0.07,0.07,0.98
13265,00:00:57,IMU3,0.0,0.0,0.0,0.61,-0.77,9.58,18.69,-7.88,-25.44,0.0,-0.05,0.84,0.54
13266,00:00:57,IMU1,0.0,0.0,0.0,0.42,-5.21,8.27,12.94,26.25,-16.81,-0.24,-0.14,0.4,0.87
13266,00:00:57,IMU2,0.0,0.0,0.0,1.15,-3.87,9.04,-1.06,24.38,-19.12,-0.2,-0.07,0.07,0.98
13266,00:00:57,IMU3,0.0,0.0,0.0,0.61,-0.77,9.58,18.38,-7.88,-25.06,0.0,-0.05,0.84,0.54
13267,00:00:57,IMU1,0.0,0.0,0.0,0.42,-5.21,8.27,12.94,26.25,-16.81,-0.24,-0.14,0.4,0.87
13267,00:00:57,IMU2,0.0,0.0,0.0,1.15,-3.87,9.04,-1.06,24.38,-19.12,-0.2,-0.07,0.07,0.98
13267,00:00:57,IMU3,0.0,0.0,0.0,0.61,-0.77,9.58,18.38,-7.88,-25.06,0.0,-0.05,0.84,0.54
13268,00:00:57,IMU1,0.0,0.0,0.0,0.46,-5.17,8.23,12.94,26.25,-16.81,-0.24,-0.14,0.4,0.87
13268,00:00:57,IMU2,0.0,0.0,0.0,1.15,-3.87,9.04,-1.06,24.38,-19.12,-0.2,-0.07,0.07,0.98
13268,00:00:57,IMU3,0.0,0.0,0.0,0.61,-0.77,9.58,18.38,-7.88,-25.06,0.0,-0.05,0.84,0.54
13269,00:00:57,IMU1,0.0,0.0,0.0,0.46,-5.17,8.23,13.31,25.12,-16.81,-0.24,-0.14,0.4,0.87
13269,00:00:57,IMU2,0.0,0.0,0.0,1.15,-3.87,9.04,-1.06,24.38,-19.12,-0.2,-0.07,0.07,0.98
13269,00:00:57,IMU3,0.0,0.0,0.0,0.61,-0.77,9.58,18.38,-7.88,-25.06,0.0,-0.05,0.84,0.54
13270,00:00:57,IMU1,0.0,0.0,0.0,0.46,-5.17,8.23,13.31,25.12,-16.81,-0.24,-0.14,0.4,0.87
13270,00:00:57,IMU2,0.0,0.0,0.0,1.11,-3.87,9.0,-1.06,24.38,-19.12,-0.2,-0.07,0.07,0.98
13270,00:00:57,IMU3,0.0,0.0,0.0,0.57,-0.8,9.61,18.38,-7.88,-25.06,0.0,-0.05,0.84,0.54
13271,00:00:57,IMU1,0.0,0.0,0.0,0.46,-5.17,8.23,13.31,25.12,-16.81,-0.24,-0.14,0.4,0.87
13271,00:00:57,IMU2,0.0,0.0,0.0,1.11,-3.87,9.0,-1.06,24.38,-19.12,-0.2,-0.07,0.07,0.98
13271,00:00:57,IMU3,0.0,0.0,0.0,0.57,-0.8,9.61,18.69,-7.19,-26.25,0.0,-0.05,0.84,0.54
13272,00:00:57,IMU1,0.0,0.0,0.0,0.46,-5.17,8.23,13.31,25.12,-16.81,-0.24,-0.14,0.4,0.87
13272,00:00:57,IMU2,0.0,0.0,0.0,1.11,-3.87,9.0,1.06,25.44,-20.31,-0.2,-0.07,0.07,0.98
13272,00:00:57,IMU3,0.0,0.0,0.0,0.57,-0.8,9.61,18.69,-7.19,-26.25,0.0,-0.05,0.84,0.54
13273,00:00:57,IMU1,0.0,0.0,0.0,0.46,-5.17,8.23,13.31,25.12,-16.81,-0.24,-0.14,0.4,0.87
13273,00:00:57,IMU2,0.0,0.0,0.0,1.11,-3.87,9.0,1.06,25.44,-20.31,-0.2,-0.07,0.07,0.98
13273,00:00:57,IMU3,0.0,0.0,0.0,0.57,-0.8,9.61,18.69,-7.19,-26.25,0.0,-0.05,0.84,0.54
13274,00:00:57,IMU1,0.0,0.0,0.0,0.38,-5.21,8.31,13.31,25.12,-16.81,-0.24,-0.14,0.4,0.87
13274,00:00:57,IMU2,0.0,0.0,0.0,1.11,-3.87,9.0,1.06,25.44,-20.31,-0.2,-0.07,0.07,0.98
13274,00:00:57,IMU3,0.0,0.0,-0.01,0.57,-0.8,9.61,18.69,-7.19,-26.25,0.0,-0.05,0.84,0.54
13275,00:00:57,IMU1,0.0,0.0,0.0,0.38,-5.21,8.31,12.19,24.0,-17.19,-0.24,-0.14,0.4,0.87
13275,00:00:57,IMU2,0.0,0.0,0.0,1.11,-3.87,9.0,1.06,25.44,-20.31,-0.2,-0.07,0.07,0.98
13275,00:00:57,IMU3,0.0,0.0,-0.01,0.57,-0.8,9.61,18.69,-7.19,-26.25,0.0,-0.05,0.84,0.54
13276,00:00:57,IMU1,0.0,0.0,0.0,0.38,-5.21,8.31,12.19,24.0,-17.19,-0.24,-0.14,0.4,0.87
13276,00:00:57,IMU2,0.0,0.0,0.0,1.11,-3.87,9.0,1.06,25.44,-20.31,-0.2,-0.07,0.07,0.98
13276,00:00:57,IMU3,0.0,0.0,0.0,0.57,-0.8,9.61,18.69,-7.19,-26.25,0.0,-0.05,0.84,0.54
13277,00:00:57,IMU1,0.0,0.0,0.0,0.38,-5.21,8.31,12.19,24.0,-17.19,-0.24,-0.14,0.4,0.87
13277,00:00:57,IMU2,0.0,0.0,0.0,1.11,-3.87,9.0,1.06,25.44,-20.31,-0.2,-0.07,0.07,0.98
13277,00:00:57,IMU3,0.0,0.0,0.0,0.57,-0.8,9.61,18.69,-7.19,-26.25,0.0,-0.05,0.84,0.54
13278,00:00:57,IMU1,0.0,0.0,0.0,0.38,-5.21,8.31,12.19,24.0,-17.19,-0.24,-0.14,0.4,0.87
13278,00:00:57,IMU2,0.0,0.0,0.0,1.11,-3.87,9.0,1.06,25.44,-20.31,-0.2,-0.07,0.07,0.98
13278,00:00:57,IMU3,0.0,0.0,0.0,0.61,-0.8,9.61,18.69,-7.19,-26.25,0.0,-0.05,0.84,0.54
13279,00:00:57,IMU1,0.0,0.0,0.0,0.38,-5.21,8.31,12.19,24.0,-17.19,-0.24,-0.14,0.4,0.87
13279,00:00:57,IMU2,0.0,0.0,0.0,1.11,-3.87,9.0,1.06,25.44,-20.31,-0.2,-0.07,0.07,0.98
13279,00:00:57,IMU3,0.0,0.0,0.0,0.61,-0.8,9.61,18.0,-6.81,-26.62,0.0,-0.05,0.84,0.54
13280,00:00:57,IMU1,0.0,0.0,0.0,0.38,-5.17,8.23,12.19,24.0,-17.19,-0.24,-0.14,0.4,0.87
13280,00:00:57,IMU2,0.0,0.0,0.0,1.11,-3.87,9.0,1.06,25.44,-20.31,-0.2,-0.07,0.07,0.98
13280,00:00:57,IMU3,0.0,0.0,-0.01,0.61,-0.8,9.61,18.0,-6.81,-26.62,0.0,-0.05,0.84,0.54
13281,00:00:57,IMU1,0.0,0.0,0.0,0.38,-5.17,8.23,13.69,24.0,-16.81,-0.24,-0.14,0.4,0.87
13281,00:00:57,IMU2,0.0,0.0,0.0,1.11,-3.87,9.0,1.06,25.44,-20.31,-0.2,-0.07,0.07,0.98
13281,00:00:57,IMU3,0.0,0.0,-0.01,0.61,-0.8,9.61,18.0,-6.81,-26.62,0.0,-0.05,0.84,0.54
13282,00:00:57,IMU1,0.0,0.0,0.0,0.38,-5.17,8.23,13.69,24.0,-16.81,-0.24,-0.14,0.4,0.87
13282,00:00:57,IMU2,0.0,0.0,0.0,1.11,-3.91,9.04,1.06,25.44,-20.31,-0.2,-0.07,0.07,0.98
13282,00:00:57,IMU3,0.0,0.01,-0.01,0.61,-0.8,9.61,18.0,-6.81,-26.62,0.0,-0.05,0.84,0.54
13283,00:00:57,IMU1,0.0,0.0,0.0,0.38,-5.17,8.23,13.69,24.0,-16.81,-0.24,-0.14,0.4,0.87
13283,00:00:57,IMU2,0.0,0.0,0.0,1.11,-3.91,9.04,0.69,24.38,-21.06,-0.2,-0.07,0.07,0.98
13283,00:00:57,IMU3,0.0,0.01,-0.01,0.61,-0.8,9.61,18.0,-6.81,-26.62,0.0,-0.05,0.84,0.54
13284,00:00:57,IMU1,0.0,0.0,0.0,0.38,-5.17,8.23,13.69,24.0,-16.81,-0.24,-0.14,0.4,0.87
13284,00:00:57,IMU2,0.0,0.0,0.0,1.11,-3.91,9.04,0.69,24.38,-21.06,-0.2,-0.07,0.07,0.98
13284,00:00:57,IMU3,0.0,0.01,-0.01,0.57,-0.77,9.61,18.0,-6.81,-26.62,0.0,-0.05,0.84,0.54
13285,00:00:57,IMU1,0.0,0.0,0.0,0.38,-5.17,8.23,13.69,24.0,-16.81,-0.24,-0.14,0.4,0.87
13285,00:00:57,IMU2,0.0,0.0,0.0,1.11,-3.91,9.04,0.69,24.38,-21.06,-0.2,-0.07,0.07,0.98
13285,00:00:57,IMU3,0.0,0.0,0.0,0.57,-0.77,9.61,18.0,-6.81,-26.62,0.0,-0.05,0.84,0.54
13286,00:00:58,IMU1,0.0,0.0,0.0,0.42,-5.21,8.32,13.69,24.0,-16.81,-0.24,-0.14,0.4,0.87
13286,00:00:58,IMU2,0.0,0.0,0.0,1.11,-3.91,9.04,0.69,24.38,-21.06,-0.2,-0.07,0.07,0.98
13286,00:00:58,IMU3,0.0,0.0,0.0,0.57,-0.77,9.61,18.38,-7.19,-24.62,0.0,-0.05,0.84,0.54
13287,00:00:58,IMU1,0.0,0.0,0.0,0.42,-5.21,8.32,14.06,25.88,-17.19,-0.24,-0.14,0.4,0.87
13287,00:00:58,IMU2,0.0,0.0,0.0,1.11,-3.91,9.04,0.69,24.38,-21.06,-0.2,-0.07,0.07,0.98
13287,00:00:58,IMU3,0.0,0.0,0.0,0.57,-0.77,9.61,18.38,-7.19,-24.62,0.0,-0.05,0.84,0.54
13288,00:00:58,IMU1,0.0,0.0,0.0,0.42,-5.21,8.32,14.06,25.88,-17.19,-0.24,-0.14,0.4,0.87
13288,00:00:58,IMU2,0.0,0.0,0.0,1.07,-3.91,8.96,0.69,24.38,-21.06,-0.2,-0.07,0.07,0.98
13288,00:00:58,IMU3,0.0,0.0,0.0,0.57,-0.77,9.61,18.38,-7.19,-24.62,0.0,-0.05,0.84,0.54
13289,00:00:58,IMU1,0.0,0.0,0.0,0.42,-5.21,8.32,14.06,25.88,-17.19,-0.24,-0.14,0.4,0.87
13289,00:00:58,IMU2,0.0,0.0,0.0,1.07,-3.91,8.96,0.69,24.38,-21.06,-0.2,-0.07,0.07,0.98
13289,00:00:58,IMU3,0.0,0.0,0.0,0.57,-0.77,9.61,18.38,-7.19,-24.62,0.0,-0.05,0.84,0.54
13290,00:00:58,IMU1,0.0,0.0,0.0,0.42,-5.21,8.32,14.06,25.88,-17.19,-0.24,-0.14,0.4,0.87
13290,00:00:58,IMU2,0.0,0.0,0.0,1.07,-3.91,8.96,0.31,22.94,-21.06,-0.2,-0.07,0.07,0.98
13290,00:00:58,IMU3,0.0,0.0,0.0,0.57,-0.77,9.61,18.38,-7.19,-24.62,0.0,-0.05,0.84,0.54
13291,00:00:58,IMU1,0.0,0.0,0.0,0.42,-5.21,8.32,14.06,25.88,-17.19,-0.24,-0.14,0.4,0.87
13291,00:00:58,IMU2,0.0,0.0,0.0,1.07,-3.91,8.96,0.31,22.94,-21.06,-0.2,-0.07,0.07,0.98
13291,00:00:58,IMU3,0.0,0.0,0.0,0.57,-0.77,9.61,18.38,-7.19,-24.62,0.0,-0.05,0.84,0.54
13292,00:00:58,IMU1,0.0,0.0,0.0,0.42,-5.17,8.31,14.06,25.88,-17.19,-0.24,-0.14,0.4,0.87
13292,00:00:58,IMU2,0.0,0.0,0.0,1.07,-3.91,8.96,0.31,22.94,-21.06,-0.2,-0.07,0.07,0.98
13292,00:00:58,IMU3,0.0,0.0,0.01,0.57,-0.77,9.61,18.38,-7.19,-24.62,0.0,-0.05,0.84,0.54
13293,00:00:58,IMU1,0.0,0.0,0.0,0.42,-5.17,8.31,12.56,24.0,-15.56,-0.24,-0.14,0.4,0.87
13293,00:00:58,IMU2,0.0,0.0,0.0,1.07,-3.91,8.96,0.31,22.94,-21.06,-0.2,-0.07,0.07,0.98
13293,00:00:58,IMU3,0.0,0.0,0.01,0.57,-0.77,9.61,18.38,-7.19,-24.62,0.0,-0.05,0.84,0.54
13294,00:00:58,IMU1,0.0,0.0,0.0,0.42,-5.17,8.31,12.56,24.0,-15.56,-0.24,-0.14,0.4,0.87
13294,00:00:58,IMU2,0.0,0.0,0.0,1.07,-3.91,8.96,0.31,22.94,-21.06,-0.2,-0.07,0.07,0.98
13294,00:00:58,IMU3,0.0,0.0,0.01,0.57,-0.77,9.61,18.38,-7.19,-24.62,0.0,-0.05,0.84,0.54
13295,00:00:58,IMU1,0.0,0.0,0.0,0.42,-5.17,8.31,12.56,24.0,-15.56,-0.24,-0.14,0.4,0.87
13295,00:00:58,IMU2,0.0,0.0,0.0,1.07,-3.91,8.96,0.31,22.94,-21.06,-0.2,-0.07,0.07,0.98
13295,00:00:58,IMU3,0.0,0.0,0.01,0.57,-0.77,9.61,18.38,-7.19,-24.62,0.0,-0.05,0.84,0.54
13296,00:00:58,IMU1,0.0,0.0,0.0,0.42,-5.17,8.31,12.56,24.0,-15.56,-0.24,-0.14,0.4,0.87
13296,00:00:58,IMU2,0.0,0.0,0.0,1.07,-3.91,8.96,0.31,22.94,-21.06,-0.2,-0.07,0.07,0.98
13296,00:00:58,IMU3,0.0,0.0,0.01,0.57,-0.77,9.61,18.38,-7.19,-24.62,0.0,-0.05,0.84,0.54
13297,00:00:58,IMU1,0.0,0.0,0.0,0.42,-5.17,8.31,12.56,24.0,-15.56,-0.24,-0.14,0.4,0.87
13297,00:00:58,IMU2,0.0,0.0,0.0,1.07,-3.91,8.96,0.31,22.94,-21.06,-0.2,-0.07,0.07,0.98
13297,00:00:58,IMU3,0.0,0.0,0.01,0.57,-0.77,9.61,18.0,-7.19,-23.06,0.0,-0.05,0.84,0.54
13298,00:00:58,IMU1,0.0,0.0,0.0,0.46,-5.13,8.28,12.56,24.0,-15.56,-0.24,-0.14,0.4,0.87
13298,00:00:58,IMU2,0.0,0.0,0.0,1.15,-3.91,9.04,0.31,22.94,-21.06,-0.2,-0.07,0.07,0.98
13298,00:00:58,IMU3,0.0,0.0,0.0,0.57,-0.77,9.61,18.0,-7.19,-23.06,0.0,-0.05,0.84,0.54
13299,00:00:58,IMU1,0.0,0.0,0.0,0.46,-5.13,8.28,14.75,27.38,-16.38,-0.24,-0.14,0.4,0.87
13299,00:00:58,IMU2,0.0,0.0,0.0,1.15,-3.91,9.04,-1.06,22.56,-19.5,-0.2,-0.07,0.07,0.98
13299,00:00:58,IMU3,0.0,0.0,0.0,0.57,-0.77,9.61,18.0,-7.19,-23.06,0.0,-0.05,0.84,0.54
13300,00:00:58,IMU1,0.0,0.0,0.0,0.46,-5.13,8.28,14.75,27.38,-16.38,-0.24,-0.14,0.4,0.87
13300,00:00:58,IMU2,0.0,0.0,0.0,1.15,-3.91,9.04,-1.06,22.56,-19.5,-0.2,-0.07,0.07,0.98
13300,00:00:58,IMU3,0.0,0.0,0.0,0.57,-0.77,9.61,18.0,-7.19,-23.06,0.0,-0.05,0.84,0.54
13301,00:00:58,IMU1,0.0,0.0,0.0,0.46,-5.13,8.28,14.75,27.38,-16.38,-0.24,-0.14,0.4,0.87
13301,00:00:58,IMU2,0.0,0.0,0.0,1.15,-3.91,9.04,-1.06,22.56,-19.5,-0.2,-0.07,0.07,0.98
13301,00:00:58,IMU3,0.0,0.0,0.0,0.57,-0.77,9.61,18.0,-7.19,-23.06,0.0,-0.05,0.84,0.54
13302,00:00:58,IMU1,0.0,0.0,0.0,0.42,-5.25,8.23,14.75,27.38,-16.38,-0.24,-0.14,0.4,0.87
13302,00:00:58,IMU2,0.0,0.0,0.0,1.11,-3.87,9.04,-1.06,22.56,-19.5,-0.2,-0.07,0.07,0.98
13302,00:00:58,IMU3,0.0,-0.01,0.0,0.57,-0.77,9.61,18.0,-7.19,-23.06,0.0,-0.05,0.84,0.54
13303,00:00:58,IMU1,0.0,0.0,0.0,0.42,-5.25,8.23,13.31,22.56,-16.81,-0.24,-0.14,0.4,0.87
13303,00:00:58,IMU2,0.0,0.0,0.0,1.11,-3.87,9.04,-1.06,22.56,-19.5,-0.2,-0.07,0.07,0.98
13303,00:00:58,IMU3,0.0,-0.01,0.0,0.57,-0.77,9.61,18.0,-7.19,-23.06,0.0,-0.05,0.84,0.54
13304,00:00:58,IMU1,0.0,0.0,0.0,0.42,-5.25,8.23,13.31,22.56,-16.81,-0.24,-0.14,0.4,0.87
13304,00:00:58,IMU2,0.0,0.0,0.0,1.11,-3.87,9.04,0.0,22.94,-20.69,-0.2,-0.07,0.07,0.98
13304,00:00:58,IMU3,0.0,-0.01,0.0,0.61,-0.73,9.58,18.0,-7.19,-23.06,0.0,-0.05,0.84,0.54
13305,00:00:58,IMU1,0.0,0.0,0.0,0.42,-5.25,8.23,13.31,22.56,-16.81,-0.24,-0.14,0.4,0.87
13305,00:00:58,IMU2,0.0,0.0,0.0,1.11,-3.87,9.04,0.0,22.94,-20.69,-0.2,-0.07,0.07,0.98
13305,00:00:58,IMU3,0.0,0.0,0.0,0.61,-0.73,9.58,18.0,-7.19,-23.06,0.0,-0.05,0.84,0.54
13306,00:00:58,IMU1,0.0,0.0,0.0,0.42,-5.25,8.23,13.31,22.56,-16.81,-0.24,-0.14,0.4,0.87
13306,00:00:58,IMU2,0.0,0.0,0.0,1.11,-3.87,9.04,0.0,22.94,-20.69,-0.2,-0.07,0.07,0.98
13306,00:00:58,IMU3,0.0,0.0,0.0,0.61,-0.73,9.58,18.38,-6.81,-25.06,0.0,-0.05,0.84,0.54
13307,00:00:58,IMU1,0.0,0.0,0.0,0.42,-5.25,8.23,13.31,22.56,-16.81,-0.24,-0.14,0.4,0.87
13307,00:00:58,IMU2,0.0,0.0,0.0,1.11,-3.87,9.04,0.0,22.94,-20.69,-0.2,-0.07,0.07,0.98
13307,00:00:58,IMU3,0.0,0.0,0.0,0.61,-0.73,9.58,18.38,-6.81,-25.06,0.0,-0.05,0.84,0.54
13308,00:00:58,IMU1,0.0,0.0,0.0,0.42,-5.21,8.32,13.31,22.56,-16.81,-0.24,-0.14,0.4,0.87
13308,00:00:58,IMU2,0.0,0.0,0.0,1.11,-3.87,9.04,0.0,22.94,-20.69,-0.2,-0.07,0.07,0.98
13308,00:00:58,IMU3,0.0,0.0,0.0,0.61,-0.73,9.58,18.38,-6.81,-25.06,0.0,-0.05,0.84,0.54
13309,00:00:58,IMU1,0.0,0.0,0.0,0.42,-5.21,8.32,12.94,25.5,-15.56,-0.24,-0.14,0.4,0.87
13309,00:00:58,IMU2,0.0,0.0,0.0,1.11,-3.87,9.04,0.0,22.94,-20.69,-0.2,-0.07,0.07,0.98
13309,00:00:58,IMU3,0.0,0.0,0.0,0.61,-0.73,9.58,18.38,-6.81,-25.06,0.0,-0.05,0.84,0.54
13310,00:00:58,IMU1,0.0,0.0,0.0,0.42,-5.21,8.32,12.94,25.5,-15.56,-0.24,-0.14,0.4,0.87
13310,00:00:58,IMU2,0.0,0.0,0.0,1.11,-3.91,9.04,0.0,22.94,-20.69,-0.2,-0.07,0.07,0.98
13310,00:00:58,IMU3,0.0,0.0,0.0,0.61,-0.73,9.58,18.38,-6.81,-25.06,0.0,-0.05,0.84,0.54
13311,00:00:58,IMU1,0.0,0.0,0.0,0.42,-5.21,8.32,12.94,25.5,-15.56,-0.24,-0.14,0.4,0.87
13311,00:00:58,IMU2,0.0,0.0,0.0,1.11,-3.91,9.04,0.0,22.94,-20.69,-0.2,-0.07,0.07,0.98
13311,00:00:58,IMU3,0.0,0.0,0.0,0.61,-0.73,9.58,18.38,-6.81,-25.06,0.0,-0.05,0.84,0.54
13312,00:00:58,IMU1,0.0,0.0,0.0,0.42,-5.21,8.32,12.94,25.5,-15.56,-0.24,-0.14,0.4,0.87
13312,00:00:58,IMU2,0.0,0.0,0.0,1.11,-3.91,9.04,1.06,23.62,-21.88,-0.2,-0.07,0.07,0.98
13312,00:00:58,IMU3,0.0,0.0,0.0,0.57,-0.8,9.58,18.38,-6.81,-25.06,0.0,-0.05,0.84,0.54
13313,00:00:58,IMU1,0.0,0.0,0.0,0.42,-5.21,8.32,12.94,25.5,-15.56,-0.24,-0.14,0.4,0.87
13313,00:00:58,IMU2,0.0,0.0,0.0,1.11,-3.91,9.04,1.06,23.62,-21.88,-0.2,-0.07,0.07,0.98
13313,00:00:58,IMU3,0.0,0.0,0.0,0.57,-0.8,9.58,19.06,-7.56,-24.25,0.0,-0.05,0.84,0.54
13314,00:00:58,IMU1,0.0,0.0,0.0,0.46,-5.21,8.31,12.94,25.5,-15.56,-0.24,-0.14,0.4,0.87
13314,00:00:58,IMU2,0.0,0.0,0.0,1.11,-3.91,9.04,1.06,23.62,-21.88,-0.2,-0.07,0.07,0.98
13314,00:00:58,IMU3,0.0,0.0,0.0,0.57,-0.8,9.58,19.06,-7.56,-24.25,0.0,-0.05,0.84,0.54
13315,00:00:58,IMU1,0.0,0.0,0.0,0.46,-5.21,8.31,14.06,27.0,-16.38,-0.24,-0.14,0.4,0.87
13315,00:00:58,IMU2,0.0,0.0,0.0,1.11,-3.91,9.04,1.06,23.62,-21.88,-0.2,-0.07,0.07,0.98
13315,00:00:58,IMU3,0.0,0.0,0.0,0.57,-0.8,9.58,19.06,-7.56,-24.25,0.0,-0.05,0.84,0.54
13316,00:00:58,IMU1,0.0,0.0,0.0,0.46,-5.21,8.31,14.06,27.0,-16.38,-0.24,-0.14,0.4,0.87
13316,00:00:58,IMU2,0.0,0.0,0.0,1.07,-3.91,9.08,1.06,23.62,-21.88,-0.2,-0.07,0.07,0.98
13316,00:00:58,IMU3,0.0,0.0,0.0,0.57,-0.77,9.58,19.06,-7.56,-24.25,0.0,-0.05,0.84,0.54
13317,00:00:58,IMU1,0.0,0.0,0.0,0.46,-5.21,8.31,14.06,27.0,-16.38,-0.24,-0.14,0.4,0.87
13317,00:00:58,IMU2,0.0,0.0,0.0,1.07,-3.91,9.08,1.06,23.62,-21.88,-0.2,-0.07,0.07,0.98
13317,00:00:58,IMU3,0.0,0.0,0.0,0.57,-0.77,9.58,19.06,-6.81,-24.62,0.0,-0.05,0.84,0.54
13318,00:00:58,IMU1,0.0,0.0,0.0,0.46,-5.21,8.31,14.06,27.0,-16.38,-0.24,-0.14,0.4,0.87
13318,00:00:58,IMU2,0.0,0.0,0.0,1.07,-3.91,9.08,0.0,24.0,-20.69,-0.2,-0.07,0.07,0.98
13318,00:00:58,IMU3,0.0,0.0,0.0,0.57,-0.77,9.58,19.06,-6.81,-24.62,0.0,-0.05,0.84,0.54
13319,00:00:58,IMU1,0.0,0.0,0.0,0.46,-5.21,8.31,14.06,27.0,-16.38,-0.24,-0.14,0.4,0.87
13319,00:00:58,IMU2,0.0,0.0,0.0,1.07,-3.91,9.08,0.0,24.0,-20.69,-0.2,-0.07,0.07,0.98
13319,00:00:58,IMU3,0.0,0.0,0.0,0.57,-0.77,9.58,19.06,-6.81,-24.62,0.0,-0.05,0.84,0.54
13320,00:00:58,IMU1,0.0,0.0,0.0,0.42,-5.17,8.28,14.06,27.0,-16.38,-0.24,-0.14,0.4,0.87
13320,00:00:58,IMU2,0.0,0.0,0.0,1.07,-3.91,9.08,0.0,24.0,-20.69,-0.2,-0.07,0.07,0.98
13320,00:00:58,IMU3,0.01,0.0,0.0,0.57,-0.77,9.58,19.06,-6.81,-24.62,0.0,-0.05,0.84,0.54
13321,00:00:58,IMU1,0.0,0.0,0.0,0.42,-5.17,8.28,13.31,24.38,-17.19,-0.24,-0.14,0.4,0.87
13321,00:00:58,IMU2,0.0,0.0,0.0,1.07,-3.91,9.08,0.0,24.0,-20.69,-0.2,-0.07,0.07,0.98
13321,00:00:58,IMU3,0.01,0.0,0.0,0.57,-0.77,9.58,19.06,-6.81,-24.62,0.0,-0.05,0.84,0.54
13322,00:00:58,IMU1,0.0,0.0,0.0,0.42,-5.17,8.28,13.31,24.38,-17.19,-0.24,-0.14,0.4,0.87
13322,00:00:58,IMU2,0.0,0.0,0.0,1.07,-3.91,9.08,0.0,24.0,-20.69,-0.2,-0.07,0.07,0.98
13322,00:00:58,IMU3,0.01,0.0,0.0,0.57,-0.77,9.61,19.06,-6.81,-24.62,0.0,-0.05,0.84,0.54
13323,00:00:58,IMU1,0.0,0.0,0.0,0.42,-5.17,8.28,13.31,24.38,-17.19,-0.24,-0.14,0.4,0.87
13323,00:00:58,IMU2,0.0,0.0,0.0,1.07,-3.91,9.08,0.0,24.0,-20.69,-0.2,-0.07,0.07,0.98
13323,00:00:58,IMU3,0.01,0.0,0.0,0.57,-0.77,9.61,19.06,-6.81,-24.62,0.0,-0.05,0.84,0.54
13324,00:00:58,IMU1,0.0,0.0,0.0,0.42,-5.17,8.28,13.31,24.38,-17.19,-0.24,-0.14,0.4,0.87
13324,00:00:58,IMU2,0.0,0.0,0.0,1.15,-3.87,9.04,0.0,24.0,-20.69,-0.2,-0.07,0.07,0.98
13324,00:00:58,IMU3,0.01,0.0,0.0,0.57,-0.77,9.61,18.38,-7.19,-23.88,0.0,-0.05,0.84,0.54
13325,00:00:58,IMU1,0.0,0.0,0.0,0.42,-5.17,8.28,13.31,24.38,-17.19,-0.24,-0.14,0.4,0.87
13325,00:00:58,IMU2,0.0,0.0,0.0,1.15,-3.87,9.04,-0.69,25.12,-21.44,-0.2,-0.07,0.07,0.98
13325,00:00:58,IMU3,0.01,0.0,0.0,0.57,-0.77,9.61,18.38,-7.19,-23.88,0.0,-0.05,0.84,0.54
13326,00:00:58,IMU1,0.0,0.0,0.0,0.42,-5.21,8.32,13.31,24.38,-17.19,-0.24,-0.14,0.4,0.87
13326,00:00:58,IMU2,0.0,0.0,0.0,1.15,-3.87,9.04,-0.69,25.12,-21.44,-0.2,-0.07,0.07,0.98
13326,00:00:58,IMU3,0.0,0.0,0.0,0.57,-0.77,9.61,18.38,-7.19,-23.88,0.0,-0.05,0.84,0.54
13327,00:00:58,IMU1,0.0,0.0,0.0,0.42,-5.21,8.32,12.56,24.0,-15.19,-0.24,-0.14,0.4,0.87
13327,00:00:58,IMU2,0.0,0.0,0.0,1.15,-3.87,9.04,-0.69,25.12,-21.44,-0.2,-0.07,0.07,0.98
13327,00:00:58,IMU3,0.0,0.0,0.0,0.57,-0.77,9.61,18.38,-7.19,-23.88,0.0,-0.05,0.84,0.54
13328,00:00:58,IMU1,0.0,0.0,0.0,0.42,-5.21,8.32,12.56,24.0,-15.19,-0.24,-0.14,0.4,0.87
13328,00:00:58,IMU2,0.0,0.0,0.0,1.15,-3.87,9.04,-0.69,25.12,-21.44,-0.2,-0.07,0.07,0.98
13328,00:00:58,IMU3,0.0,0.0,-0.01,0.57,-0.77,9.61,18.38,-7.19,-23.88,0.0,-0.05,0.84,0.54
13329,00:00:58,IMU1,0.0,0.0,0.0,0.42,-5.21,8.32,12.56,24.0,-15.19,-0.24,-0.14,0.4,0.87
13329,00:00:58,IMU2,0.0,0.0,0.0,1.15,-3.87,9.04,-0.69,25.12,-21.44,-0.2,-0.07,0.07,0.98
13329,00:00:58,IMU3,0.0,0.0,-0.01,0.57,-0.77,9.61,18.38,-7.19,-23.88,0.0,-0.05,0.84,0.54
13330,00:00:58,IMU1,0.0,0.0,0.0,0.42,-5.21,8.32,12.56,24.0,-15.19,-0.24,-0.14,0.4,0.87
13330,00:00:58,IMU2,0.0,0.0,0.0,1.11,-3.91,9.0,-0.69,25.12,-21.44,-0.2,-0.07,0.07,0.98
13330,00:00:58,IMU3,0.0,0.0,-0.01,0.61,-0.73,9.58,18.38,-7.19,-23.88,0.0,-0.05,0.84,0.54
13331,00:00:58,IMU1,0.0,0.0,0.0,0.42,-5.21,8.32,12.56,24.0,-15.19,-0.24,-0.14,0.4,0.87
13331,00:00:58,IMU2,0.0,0.0,0.0,1.11,-3.91,9.0,0.0,22.56,-20.31,-0.2,-0.07,0.07,0.98
13331,00:00:58,IMU3,0.0,0.0,-0.01,0.61,-0.73,9.58,18.38,-7.88,-24.25,0.0,-0.05,0.84,0.54
13332,00:00:58,IMU1,0.0,0.0,0.0,0.46,-5.17,8.23,12.56,24.0,-15.19,-0.24,-0.14,0.4,0.87
13332,00:00:58,IMU2,0.0,0.0,0.0,1.11,-3.91,9.0,0.0,22.56,-20.31,-0.2,-0.07,0.07,0.98
13332,00:00:58,IMU3,0.0,0.0,0.0,0.61,-0.73,9.58,18.38,-7.88,-24.25,0.0,-0.05,0.84,0.54
13333,00:00:58,IMU1,0.0,0.0,0.0,0.46,-5.17,8.23,12.94,26.25,-17.19,-0.24,-0.14,0.4,0.87
13333,00:00:58,IMU2,0.0,0.0,0.0,1.11,-3.91,9.0,0.0,22.56,-20.31,-0.2,-0.07,0.07,0.98
13333,00:00:58,IMU3,0.0,0.0,0.0,0.61,-0.73,9.58,18.38,-7.88,-24.25,0.0,-0.05,0.84,0.54
13334,00:00:58,IMU1,0.0,0.0,0.0,0.46,-5.17,8.23,12.94,26.25,-17.19,-0.24,-0.14,0.4,0.87
13334,00:00:58,IMU2,0.0,0.0,0.0,1.11,-3.91,9.0,0.0,22.56,-20.31,-0.2,-0.07,0.07,0.98
13334,00:00:58,IMU3,0.0,0.0,0.01,0.61,-0.73,9.58,18.38,-7.88,-24.25,0.0,-0.05,0.84,0.54
13335,00:00:58,IMU1,0.0,0.0,0.0,0.46,-5.17,8.23,12.94,26.25,-17.19,-0.24,-0.14,0.4,0.87
13335,00:00:58,IMU2,0.0,0.0,0.0,1.11,-3.91,9.0,0.0,22.56,-20.31,-0.2,-0.07,0.07,0.98
13335,00:00:58,IMU3,0.0,0.0,0.01,0.61,-0.73,9.58,18.38,-7.88,-24.25,0.0,-0.05,0.84,0.54
13336,00:00:58,IMU1,0.0,0.0,0.0,0.38,-5.17,8.32,12.94,26.25,-17.19,-0.24,-0.14,0.4,0.87
13336,00:00:58,IMU2,0.0,0.0,0.0,1.11,-3.95,9.0,0.0,22.56,-20.31,-0.2,-0.07,0.07,0.98
13336,00:00:58,IMU3,0.0,0.0,0.01,0.57,-0.8,9.61,18.38,-7.88,-24.25,0.0,-0.05,0.84,0.54
13337,00:00:58,IMU1,0.0,0.0,0.0,0.38,-5.17,8.32,12.94,24.75,-17.56,-0.24,-0.14,0.4,0.87
13337,00:00:58,IMU2,0.0,0.0,0.0,1.11,-3.95,9.0,-1.06,22.94,-19.88,-0.2,-0.07,0.07,0.98
13337,00:00:58,IMU3,0.0,0.0,0.01,0.57,-0.8,9.61,19.06,-6.81,-23.88,0.0,-0.05,0.84,0.54
13338,00:00:58,IMU1,0.0,0.0,0.0,0.38,-5.17,8.32,12.94,24.75,-17.56,-0.24,-0.14,0.4,0.87
13338,00:00:58,IMU2,0.0,0.0,0.0,1.11,-3.95,9.0,-1.06,22.94,-19.88,-0.2,-0.07,0.07,0.98
13338,00:00:58,IMU3,0.0,0.0,0.0,0.57,-0.8,9.61,19.06,-6.81,-23.88,0.0,-0.05,0.84,0.54
13339,00:00:58,IMU1,0.0,0.0,0.0,0.38,-5.17,8.32,12.94,24.75,-17.56,-0.24,-0.14,0.4,0.87
13339,00:00:58,IMU2,0.0,0.0,0.0,1.11,-3.95,9.0,-1.06,22.94,-19.88,-0.2,-0.07,0.07,0.98
13339,00:00:58,IMU3,0.0,0.0,0.0,0.57,-0.8,9.61,19.06,-6.81,-23.88,0.0,-0.05,0.84,0.54
13340,00:00:58,IMU1,0.0,0.0,0.0,0.38,-5.17,8.32,12.94,24.75,-17.56,-0.24,-0.14,0.4,0.87
13340,00:00:58,IMU2,0.0,0.0,0.0,1.11,-3.95,9.0,-1.06,22.94,-19.88,-0.2,-0.07,0.07,0.98
13340,00:00:58,IMU3,0.0,0.0,0.0,0.57,-0.8,9.61,19.06,-6.81,-23.88,0.0,-0.05,0.84,0.54
13341,00:00:58,IMU1,0.0,0.0,0.0,0.38,-5.17,8.32,12.94,24.75,-17.56,-0.24,-0.14,0.4,0.87
13341,00:00:58,IMU2,0.0,0.0,0.0,1.11,-3.95,9.0,-1.06,22.94,-19.88,-0.2,-0.07,0.07,0.98
13341,00:00:58,IMU3,0.0,0.0,0.0,0.57,-0.8,9.61,19.06,-6.81,-23.88,0.0,-0.05,0.84,0.54
13342,00:00:58,IMU1,0.0,0.0,0.0,0.42,-5.21,8.32,12.94,24.75,-17.56,-0.24,-0.14,0.4,0.87
13342,00:00:58,IMU2,0.0,0.0,0.0,1.11,-3.95,9.0,-1.06,22.94,-19.88,-0.2,-0.07,0.07,0.98
13342,00:00:58,IMU3,0.0,0.0,0.0,0.57,-0.8,9.61,19.06,-6.81,-23.88,0.0,-0.05,0.84,0.54
13343,00:00:58,IMU1,0.0,0.0,0.0,0.42,-5.21,8.32,13.31,25.5,-16.0,-0.24,-0.14,0.4,0.87
13343,00:00:58,IMU2,0.0,0.0,0.0,1.11,-3.95,9.0,-1.06,22.94,-19.88,-0.2,-0.07,0.07,0.98
13343,00:00:58,IMU3,0.0,0.0,0.0,0.57,-0.8,9.61,19.06,-6.81,-23.88,0.0,-0.05,0.84,0.54
13344,00:00:58,IMU1,0.0,0.0,0.0,0.42,-5.21,8.32,13.31,25.5,-16.0,-0.24,-0.14,0.4,0.87
13344,00:00:58,IMU2,0.0,0.0,0.0,1.11,-3.95,9.0,-1.06,22.94,-19.88,-0.2,-0.07,0.07,0.98
13344,00:00:58,IMU3,0.0,0.0,0.0,0.57,-0.8,9.61,19.06,-6.81,-23.88,0.0,-0.05,0.84,0.54
13345,00:00:58,IMU1,0.0,0.0,0.0,0.42,-5.21,8.32,13.31,25.5,-16.0,-0.24,-0.14,0.4,0.87
13345,00:00:58,IMU2,0.0,0.0,0.0,1.11,-3.95,9.0,-1.06,22.94,-19.88,-0.2,-0.07,0.07,0.98
13345,00:00:58,IMU3,0.0,0.0,0.0,0.57,-0.8,9.61,19.06,-6.81,-23.88,0.0,-0.05,0.84,0.54
13346,00:00:58,IMU1,0.0,0.0,0.0,0.42,-5.17,8.28,13.31,25.5,-16.0,-0.24,-0.14,0.4,0.87
13346,00:00:58,IMU2,0.0,0.0,0.0,1.07,-3.91,9.04,-1.06,22.94,-19.88,-0.2,-0.07,0.07,0.98
13346,00:00:58,IMU3,0.0,0.0,0.0,0.65,-0.77,9.61,19.06,-6.81,-23.88,0.0,-0.05,0.84,0.54
13347,00:00:58,IMU1,0.0,0.0,0.0,0.42,-5.17,8.28,11.81,23.62,-16.81,-0.24,-0.14,0.4,0.87
13347,00:00:58,IMU2,0.0,0.0,0.0,1.07,-3.91,9.04,-1.06,22.19,-21.06,-0.2,-0.07,0.07,0.98
13347,00:00:58,IMU3,0.0,0.0,0.0,0.65,-0.77,9.61,18.38,-7.19,-24.69,0.0,-0.05,0.84,0.54
13348,00:00:58,IMU1,0.0,0.0,0.0,0.42,-5.17,8.28,11.81,23.62,-16.81,-0.24,-0.14,0.4,0.87
13348,00:00:58,IMU2,0.0,0.0,0.0,1.07,-3.91,9.04,-1.06,22.19,-21.06,-0.2,-0.07,0.07,0.98
13348,00:00:58,IMU3,0.0,0.0,0.0,0.65,-0.77,9.61,18.38,-7.19,-24.69,0.0,-0.05,0.84,0.54
13349,00:00:58,IMU1,0.0,0.0,0.0,0.42,-5.17,8.28,11.81,23.62,-16.81,-0.24,-0.14,0.4,0.87
13349,00:00:58,IMU2,0.0,0.0,0.0,1.07,-3.91,9.04,-1.06,22.19,-21.06,-0.2,-0.07,0.07,0.98
13349,00:00:58,IMU3,0.0,0.0,0.0,0.65,-0.77,9.61,18.38,-7.19,-24.69,0.0,-0.05,0.84,0.54
13350,00:00:58,IMU1,0.0,0.0,0.0,0.42,-5.17,8.28,11.81,23.62,-16.81,-0.24,-0.14,0.4,0.87
13350,00:00:58,IMU2,0.0,0.0,0.0,1.07,-3.91,9.04,-1.06,22.19,-21.06,-0.2,-0.07,0.07,0.98
13350,00:00:58,IMU3,0.0,0.0,0.0,0.61,-0.77,9.58,18.38,-7.19,-24.69,0.0,-0.05,0.84,0.54
13351,00:00:58,IMU1,0.0,0.0,0.0,0.42,-5.17,8.28,11.81,23.62,-16.81,-0.24,-0.14,0.4,0.87
13351,00:00:58,IMU2,0.0,0.0,0.0,1.07,-3.91,9.04,-1.06,22.19,-21.06,-0.2,-0.07,0.07,0.98
13351,00:00:58,IMU3,0.0,0.0,0.0,0.61,-0.77,9.58,18.38,-7.19,-24.69,0.0,-0.05,0.84,0.54
13352,00:00:58,IMU1,0.0,0.0,0.0,0.46,-5.17,8.32,11.81,23.62,-16.81,-0.24,-0.14,0.4,0.87
13352,00:00:58,IMU2,0.0,0.0,0.0,1.11,-3.91,9.0,-1.06,22.19,-21.06,-0.2,-0.07,0.07,0.98
13352,00:00:58,IMU3,0.0,0.0,0.0,0.61,-0.77,9.58,18.0,-7.88,-23.88,0.0,-0.05,0.84,0.54
13353,00:00:58,IMU1,0.0,0.0,0.0,0.46,-5.17,8.32,11.81,23.62,-16.81,-0.24,-0.14,0.4,0.87
13353,00:00:58,IMU2,0.0,0.0,0.0,1.11,-3.91,9.0,-1.06,22.19,-21.06,-0.2,-0.07,0.07,0.98
13353,00:00:58,IMU3,0.0,0.0,0.0,0.61,-0.77,9.58,18.0,-7.88,-23.88,0.0,-0.05,0.84,0.54
13354,00:00:58,IMU1,0.0,0.0,0.0,0.46,-5.17,8.32,12.94,26.62,-16.38,-0.24,-0.14,0.4,0.87
13354,00:00:58,IMU2,0.0,0.0,0.0,1.11,-3.91,9.0,1.06,24.0,-20.69,-0.2,-0.07,0.07,0.98
13354,00:00:58,IMU3,0.0,0.0,0.0,0.61,-0.77,9.58,18.0,-7.88,-23.88,0.0,-0.05,0.84,0.54
13355,00:00:58,IMU1,0.0,0.0,0.0,0.46,-5.17,8.32,12.94,26.62,-16.38,-0.24,-0.14,0.4,0.87
13355,00:00:58,IMU2,0.0,0.0,0.0,1.11,-3.91,9.0,1.06,24.0,-20.69,-0.2,-0.07,0.07,0.98
13355,00:00:58,IMU3,0.0,0.0,0.0,0.61,-0.77,9.58,18.0,-7.88,-23.88,0.0,-0.05,0.84,0.54
13356,00:00:58,IMU1,0.0,0.0,0.0,0.46,-5.17,8.32,12.94,26.62,-16.38,-0.24,-0.14,0.4,0.87
13356,00:00:58,IMU2,0.0,0.0,0.0,1.11,-3.91,9.0,1.06,24.0,-20.69,-0.2,-0.07,0.07,0.98
13356,00:00:58,IMU3,0.0,0.0,0.0,0.57,-0.8,9.65,18.0,-7.88,-23.88,0.0,-0.05,0.84,0.54
13357,00:00:58,IMU1,0.0,0.0,0.0,0.46,-5.17,8.32,12.94,26.62,-16.38,-0.24,-0.14,0.4,0.87
13357,00:00:58,IMU2,0.0,0.0,0.0,1.11,-3.91,9.0,1.06,24.0,-20.69,-0.2,-0.07,0.07,0.98
13357,00:00:58,IMU3,0.0,0.0,0.0,0.57,-0.8,9.65,18.0,-7.88,-23.88,0.0,-0.05,0.84,0.54
13358,00:00:58,IMU1,0.0,0.0,0.0,0.46,-5.17,8.32,12.94,26.62,-16.38,-0.24,-0.14,0.4,0.87
13358,00:00:58,IMU2,0.0,0.0,0.0,1.11,-3.91,9.0,1.06,24.0,-20.69,-0.2,-0.07,0.07,0.98
13358,00:00:58,IMU3,0.0,0.0,0.0,0.57,-0.8,9.65,18.0,-7.88,-25.06,0.0,-0.05,0.84,0.54
13359,00:00:58,IMU1,0.0,0.0,0.0,0.46,-5.17,8.32,12.94,26.62,-16.38,-0.24,-0.14,0.4,0.87
13359,00:00:58,IMU2,0.0,0.0,0.0,1.11,-3.91,9.0,1.06,24.0,-20.69,-0.2,-0.07,0.07,0.98
13359,00:00:58,IMU3,0.0,0.0,0.0,0.57,-0.8,9.65,18.0,-7.88,-25.06,0.0,-0.05,0.84,0.54
13360,00:00:58,IMU1,0.0,0.0,0.0,0.38,-5.21,8.28,12.94,26.62,-16.38,-0.24,-0.14,0.4,0.87
13360,00:00:58,IMU2,0.0,0.0,0.0,1.11,-3.91,9.04,1.06,24.0,-20.69,-0.2,-0.07,0.07,0.98
13360,00:00:58,IMU3,0.0,0.0,0.0,0.57,-0.8,9.65,18.0,-7.88,-25.06,0.0,-0.05,0.84,0.54
13361,00:00:58,IMU1,0.0,0.0,0.0,0.38,-5.21,8.28,12.94,22.19,-16.38,-0.24,-0.14,0.4,0.87
13361,00:00:58,IMU2,0.0,0.0,0.0,1.11,-3.91,9.04,1.06,24.0,-20.69,-0.2,-0.07,0.07,0.98
13361,00:00:58,IMU3,0.0,0.0,0.0,0.57,-0.8,9.65,18.0,-7.88,-25.06,0.0,-0.05,0.84,0.54
13362,00:00:58,IMU1,0.0,0.0,0.0,0.38,-5.21,8.28,12.94,22.19,-16.38,-0.24,-0.14,0.4,0.87
13362,00:00:58,IMU2,0.0,0.0,0.0,1.11,-3.91,9.04,0.69,24.0,-20.31,-0.2,-0.07,0.07,0.98
13362,00:00:58,IMU3,0.0,0.0,0.0,0.57,-0.8,9.65,18.0,-7.88,-25.06,0.0,-0.05,0.84,0.54
13363,00:00:58,IMU1,0.0,0.0,0.0,0.38,-5.21,8.28,12.94,22.19,-16.38,-0.24,-0.14,0.4,0.87
13363,00:00:58,IMU2,0.0,0.0,0.0,1.11,-3.91,9.04,0.69,24.0,-20.31,-0.2,-0.07,0.07,0.98
13363,00:00:58,IMU3,0.0,0.0,0.0,0.57,-0.8,9.65,18.0,-7.88,-25.06,0.0,-0.05,0.84,0.54
13364,00:00:58,IMU1,0.0,0.0,0.0,0.46,-5.17,8.32,12.94,22.19,-16.38,-0.24,-0.14,0.4,0.87
13364,00:00:58,IMU2,0.0,0.0,0.0,1.11,-3.91,9.04,0.69,24.0,-20.31,-0.2,-0.07,0.07,0.98
13364,00:00:58,IMU3,0.0,0.0,0.0,0.57,-0.8,9.65,18.0,-7.88,-25.06,0.0,-0.05,0.84,0.54
13365,00:00:58,IMU1,0.0,0.0,0.0,0.46,-5.17,8.32,13.31,21.81,-16.38,-0.24,-0.14,0.4,0.87
13365,00:00:58,IMU2,0.0,0.0,0.0,1.11,-3.91,9.04,0.69,24.0,-20.31,-0.2,-0.07,0.07,0.98
13365,00:00:58,IMU3,0.0,0.0,0.0,0.57,-0.8,9.65,18.0,-7.88,-25.06,0.0,-0.05,0.84,0.54
13366,00:00:58,IMU1,0.0,0.0,0.0,0.46,-5.17,8.32,13.31,21.81,-16.38,-0.24,-0.14,0.4,0.87
13366,00:00:58,IMU2,0.0,0.0,0.0,1.11,-3.91,9.04,0.69,24.0,-20.31,-0.2,-0.07,0.07,0.98
13366,00:00:58,IMU3,0.0,0.0,0.0,0.57,-0.77,9.58,18.0,-7.88,-25.06,0.0,-0.05,0.84,0.54
13367,00:00:58,IMU1,0.0,0.0,0.0,0.46,-5.17,8.32,13.31,21.81,-16.38,-0.24,-0.14,0.4,0.87
13367,00:00:58,IMU2,0.0,0.0,0.0,1.11,-3.91,9.04,0.69,24.0,-20.31,-0.2,-0.07,0.07,0.98
13367,00:00:58,IMU3,0.0,0.0,0.0,0.57,-0.77,9.58,18.69,-7.19,-24.62,0.0,-0.05,0.84,0.54
13368,00:00:58,IMU1,0.0,0.0,0.0,0.46,-5.17,8.32,13.31,21.81,-16.38,-0.24,-0.14,0.4,0.87
13368,00:00:58,IMU2,0.0,0.0,0.0,1.11,-3.91,9.08,0.69,24.0,-20.31,-0.2,-0.07,0.07,0.98
13368,00:00:58,IMU3,0.0,0.0,0.0,0.57,-0.77,9.58,18.69,-7.19,-24.62,0.0,-0.05,0.84,0.54
13369,00:00:58,IMU1,0.0,0.0,0.0,0.46,-5.17,8.32,13.31,21.81,-16.38,-0.24,-0.14,0.4,0.87
13369,00:00:58,IMU2,0.0,0.0,0.0,1.11,-3.91,9.08,-0.31,23.25,-19.12,-0.2,-0.07,0.07,0.98
13369,00:00:58,IMU3,0.0,0.0,0.0,0.57,-0.77,9.58,18.69,-7.19,-24.62,0.0,-0.05,0.84,0.54
13370,00:00:58,IMU1,0.0,0.0,0.0,0.42,-5.17,8.28,13.31,21.81,-16.38,-0.24,-0.14,0.4,0.87
13370,00:00:58,IMU2,0.0,0.0,0.0,1.11,-3.91,9.08,-0.31,23.25,-19.12,-0.2,-0.07,0.07,0.98
13370,00:00:58,IMU3,0.0,0.0,0.0,0.57,-0.77,9.58,18.69,-7.19,-24.62,0.0,-0.05,0.84,0.54
13371,00:00:58,IMU1,0.0,0.0,0.0,0.42,-5.17,8.28,13.31,21.81,-16.38,-0.24,-0.14,0.4,0.87
13371,00:00:58,IMU2,0.0,0.0,0.0,1.11,-3.91,9.08,-0.31,23.25,-19.12,-0.2,-0.07,0.07,0.98
13371,00:00:58,IMU3,0.0,0.0,0.0,0.57,-0.77,9.58,18.69,-7.19,-24.62,0.0,-0.05,0.84,0.54
13372,00:00:58,IMU1,0.0,0.0,0.0,0.42,-5.17,8.28,12.19,25.5,-16.38,-0.24,-0.14,0.4,0.87
13372,00:00:58,IMU2,0.0,0.0,0.0,1.11,-3.91,9.08,-0.31,23.25,-19.12,-0.2,-0.07,0.07,0.98
13372,00:00:58,IMU3,0.0,0.0,0.0,0.57,-0.77,9.58,18.69,-7.19,-24.62,0.0,-0.05,0.84,0.54
13373,00:00:58,IMU1,0.0,0.0,0.0,0.42,-5.17,8.28,12.19,25.5,-16.38,-0.24,-0.14,0.4,0.87
13373,00:00:58,IMU2,0.0,0.0,0.0,1.11,-3.91,9.08,-0.31,23.25,-19.12,-0.2,-0.07,0.07,0.98
13373,00:00:58,IMU3,0.0,0.0,0.0,0.57,-0.77,9.58,18.69,-7.19,-24.62,0.0,-0.05,0.84,0.54
13374,00:00:58,IMU1,0.0,0.0,0.0,0.42,-5.17,8.28,12.19,25.5,-16.38,-0.24,-0.14,0.4,0.87
13374,00:00:58,IMU2,0.0,0.0,0.0,1.07,-3.87,9.0,-0.31,23.25,-19.12,-0.2,-0.07,0.07,0.98
13374,00:00:58,IMU3,0.0,0.0,0.0,0.57,-0.73,9.61,18.69,-7.19,-24.62,0.0,-0.05,0.84,0.54
13375,00:00:58,IMU1,0.0,0.0,0.0,0.42,-5.17,8.28,12.19,25.5,-16.38,-0.24,-0.14,0.4,0.87
13375,00:00:58,IMU2,0.0,0.0,0.0,1.07,-3.87,9.0,0.31,23.25,-20.31,-0.2,-0.07,0.07,0.98
13375,00:00:58,IMU3,0.0,0.0,0.0,0.57,-0.73,9.61,18.38,-5.75,-25.81,0.0,-0.05,0.84,0.54
13376,00:00:58,IMU1,0.0,0.0,0.0,0.42,-5.17,8.28,12.19,25.5,-16.38,-0.24,-0.14,0.4,0.87
13376,00:00:58,IMU2,0.0,0.0,0.0,1.07,-3.87,9.0,0.31,23.25,-20.31,-0.2,-0.07,0.07,0.98
13376,00:00:58,IMU3,0.0,0.0,0.0,0.57,-0.73,9.61,18.38,-5.75,-25.81,0.0,-0.05,0.84,0.54
13377,00:00:58,IMU1,0.0,0.0,0.0,0.42,-5.17,8.28,12.19,25.5,-16.38,-0.24,-0.14,0.4,0.87
13377,00:00:58,IMU2,0.0,0.0,0.0,1.07,-3.87,9.0,0.31,23.25,-20.31,-0.2,-0.07,0.07,0.98
13377,00:00:58,IMU3,0.0,0.0,0.0,0.57,-0.73,9.61,18.38,-5.75,-25.81,0.0,-0.05,0.84,0.54
13378,00:00:58,IMU1,0.0,0.0,0.0,0.42,-5.25,8.32,12.19,25.5,-16.38,-0.24,-0.14,0.4,0.87
13378,00:00:58,IMU2,0.0,0.0,0.0,1.07,-3.87,9.0,0.31,23.25,-20.31,-0.2,-0.07,0.07,0.98
13378,00:00:58,IMU3,0.0,0.0,0.0,0.57,-0.73,9.61,18.38,-5.75,-25.81,0.0,-0.05,0.84,0.54
13379,00:00:58,IMU1,0.0,0.0,0.0,0.42,-5.25,8.32,12.94,22.94,-15.19,-0.24,-0.14,0.4,0.87
13379,00:00:58,IMU2,0.0,0.0,0.0,1.07,-3.87,9.0,0.31,23.25,-20.31,-0.2,-0.07,0.07,0.98
13379,00:00:58,IMU3,0.0,0.0,0.0,0.57,-0.73,9.61,18.38,-5.75,-25.81,0.0,-0.05,0.84,0.54
13380,00:00:58,IMU1,0.0,0.0,0.0,0.42,-5.25,8.32,12.94,22.94,-15.19,-0.24,-0.14,0.4,0.87
13380,00:00:58,IMU2,0.0,0.0,0.0,1.11,-3.91,9.04,0.31,23.25,-20.31,-0.2,-0.07,0.07,0.98
13380,00:00:58,IMU3,0.0,0.0,0.0,0.61,-0.77,9.65,18.38,-5.75,-25.81,0.0,-0.05,0.84,0.54
13381,00:00:58,IMU1,0.0,0.0,0.0,0.42,-5.25,8.32,12.94,22.94,-15.19,-0.24,-0.14,0.4,0.87
13381,00:00:58,IMU2,0.0,0.0,0.0,1.11,-3.91,9.04,0.31,23.25,-20.31,-0.2,-0.07,0.07,0.98
13381,00:00:58,IMU3,0.0,0.0,0.0,0.61,-0.77,9.65,18.38,-5.75,-25.81,0.0,-0.05,0.84,0.54
13382,00:00:58,IMU1,0.0,0.0,0.0,0.42,-5.25,8.32,12.94,22.94,-15.19,-0.24,-0.14,0.4,0.87
13382,00:00:58,IMU2,0.0,0.0,0.0,1.11,-3.91,9.04,0.0,24.38,-19.88,-0.2,-0.07,0.07,0.98
13382,00:00:58,IMU3,0.0,0.0,0.0,0.61,-0.77,9.65,18.0,-8.25,-24.25,0.0,-0.05,0.84,0.54
13383,00:00:58,IMU1,0.0,0.0,0.0,0.42,-5.25,8.32,12.94,22.94,-15.19,-0.24,-0.14,0.4,0.87
13383,00:00:58,IMU2,0.0,0.0,0.0,1.11,-3.91,9.04,0.0,24.38,-19.88,-0.2,-0.07,0.07,0.98
13383,00:00:58,IMU3,0.0,0.0,0.0,0.61,-0.77,9.65,18.0,-8.25,-24.25,0.0,-0.05,0.84,0.54
13384,00:00:58,IMU1,0.0,0.0,0.0,0.42,-5.25,8.32,12.94,22.94,-15.19,-0.24,-0.14,0.4,0.87
13384,00:00:58,IMU2,0.0,0.0,0.0,1.11,-3.91,9.04,0.0,24.38,-19.88,-0.2,-0.07,0.07,0.98
13384,00:00:58,IMU3,0.0,0.0,0.0,0.61,-0.77,9.65,18.0,-8.25,-24.25,0.0,-0.05,0.84,0.54
13385,00:00:58,IMU1,0.0,0.0,0.0,0.42,-5.25,8.32,12.94,22.94,-15.19,-0.24,-0.14,0.4,0.87
13385,00:00:58,IMU2,0.0,0.0,0.0,1.11,-3.91,9.04,0.0,24.38,-19.88,-0.2,-0.07,0.07,0.98
13385,00:00:58,IMU3,0.0,0.0,0.0,0.61,-0.77,9.65,18.0,-8.25,-24.25,0.0,-0.05,0.84,0.54
13386,00:00:58,IMU1,0.0,0.0,0.0,0.42,-5.25,8.32,12.94,22.94,-15.19,-0.24,-0.14,0.4,0.87
13386,00:00:58,IMU2,0.0,0.0,0.0,1.11,-3.91,9.04,0.0,24.38,-19.88,-0.2,-0.07,0.07,0.98
13386,00:00:58,IMU3,0.0,0.0,0.0,0.61,-0.77,9.65,18.0,-8.25,-24.25,0.0,-0.05,0.84,0.54
13387,00:00:58,IMU1,0.0,0.0,0.0,0.42,-5.25,8.32,12.94,22.94,-15.19,-0.24,-0.14,0.4,0.87
13387,00:00:58,IMU2,0.0,0.0,0.0,1.11,-3.91,9.04,0.0,24.38,-19.88,-0.2,-0.07,0.07,0.98
13387,00:00:58,IMU3,0.0,0.0,0.0,0.61,-0.77,9.65,18.0,-8.25,-24.25,0.0,-0.05,0.84,0.54
13388,00:00:58,IMU1,0.0,0.0,0.0,0.42,-5.17,8.28,12.94,22.94,-15.19,-0.24,-0.14,0.4,0.87
13388,00:00:58,IMU2,0.0,0.0,0.0,1.11,-3.91,9.04,0.0,24.38,-19.88,-0.2,-0.07,0.07,0.98
13388,00:00:58,IMU3,0.0,0.0,0.0,0.61,-0.77,9.65,18.0,-8.25,-24.25,0.0,-0.05,0.84,0.54
13389,00:00:58,IMU1,0.0,0.0,0.0,0.42,-5.17,8.28,12.56,22.19,-16.0,-0.24,-0.14,0.4,0.87
13389,00:00:58,IMU2,0.0,0.0,0.0,1.11,-3.91,9.04,0.0,24.38,-19.88,-0.2,-0.07,0.07,0.98
13389,00:00:58,IMU3,0.0,0.0,0.0,0.61,-0.77,9.65,18.0,-8.25,-24.25,0.0,-0.05,0.84,0.54
13390,00:00:58,IMU1,0.0,0.0,0.0,0.42,-5.17,8.28,12.56,22.19,-16.0,-0.24,-0.14,0.4,0.87
13390,00:00:58,IMU2,0.0,0.0,0.0,1.11,-3.91,9.0,0.0,24.38,-19.88,-0.2,-0.07,0.07,0.98
13390,00:00:58,IMU3,0.0,0.0,0.0,0.61,-0.77,9.65,18.0,-8.25,-24.25,0.0,-0.05,0.84,0.54
13391,00:00:58,IMU1,0.0,0.0,0.0,0.42,-5.17,8.28,12.56,22.19,-16.0,-0.24,-0.14,0.4,0.87
13391,00:00:58,IMU2,0.0,0.0,0.0,1.11,-3.91,9.0,-1.06,25.12,-19.88,-0.2,-0.07,0.07,0.98
13391,00:00:58,IMU3,0.0,0.0,0.0,0.61,-0.77,9.65,18.0,-8.25,-24.25,0.0,-0.05,0.84,0.54
13392,00:00:58,IMU1,0.0,0.0,0.0,0.42,-5.17,8.28,12.56,22.19,-16.0,-0.24,-0.14,0.4,0.87
13392,00:00:58,IMU2,0.0,0.0,0.0,1.11,-3.91,9.0,-1.06,25.12,-19.88,-0.2,-0.07,0.07,0.98
13392,00:00:58,IMU3,0.0,0.0,0.0,0.57,-0.73,9.61,18.0,-8.25,-24.25,0.0,-0.05,0.84,0.54
13393,00:00:58,IMU1,0.0,0.0,0.0,0.42,-5.17,8.28,12.56,22.19,-16.0,-0.24,-0.14,0.4,0.87
13393,00:00:58,IMU2,0.0,0.0,0.0,1.11,-3.91,9.0,-1.06,25.12,-19.88,-0.2,-0.07,0.07,0.98
13393,00:00:58,IMU3,0.0,0.0,0.0,0.57,-0.73,9.61,17.62,-7.56,-24.69,0.0,-0.05,0.84,0.54
13394,00:00:58,IMU1,0.0,0.0,0.0,0.42,-5.21,8.27,12.56,22.19,-16.0,-0.24,-0.14,0.4,0.87
13394,00:00:58,IMU2,0.0,0.0,0.0,1.07,-3.91,9.0,-1.06,25.12,-19.88,-0.2,-0.07,0.07,0.98
13394,00:00:58,IMU3,0.0,0.0,0.0,0.57,-0.73,9.61,17.62,-7.56,-24.69,0.0,-0.05,0.84,0.54
13395,00:00:58,IMU1,0.0,0.0,0.0,0.42,-5.21,8.27,11.81,21.81,-17.19,-0.24,-0.14,0.4,0.87
13395,00:00:58,IMU2,0.0,0.0,0.0,1.07,-3.91,9.0,-0.69,26.19,-21.06,-0.2,-0.07,0.07,0.98
13395,00:00:58,IMU3,0.0,0.0,0.0,0.57,-0.73,9.61,17.62,-7.56,-24.69,0.0,-0.05,0.84,0.54
13396,00:00:58,IMU1,0.0,0.0,0.0,0.42,-5.21,8.27,11.81,21.81,-17.19,-0.24,-0.14,0.4,0.87
13396,00:00:58,IMU2,0.0,0.0,0.0,1.07,-3.91,9.0,-0.69,26.19,-21.06,-0.2,-0.07,0.07,0.98
13396,00:00:58,IMU3,0.0,0.0,0.0,0.57,-0.8,9.58,17.62,-7.56,-24.69,0.0,-0.05,0.84,0.54
13397,00:00:58,IMU1,0.0,0.0,0.0,0.42,-5.21,8.27,11.81,21.81,-17.19,-0.24,-0.14,0.4,0.87
13397,00:00:58,IMU2,0.0,0.0,0.0,1.07,-3.91,9.0,-0.69,26.19,-21.06,-0.2,-0.07,0.07,0.98
13397,00:00:58,IMU3,0.0,0.0,0.0,0.57,-0.8,9.58,17.62,-7.56,-24.69,0.0,-0.05,0.84,0.54
13398,00:00:58,IMU1,0.0,0.0,0.0,0.42,-5.21,8.27,11.81,21.81,-17.19,-0.24,-0.14,0.4,0.87
13398,00:00:58,IMU2,0.0,0.0,0.0,1.07,-3.91,9.0,-0.69,26.19,-21.06,-0.2,-0.07,0.07,0.98
13398,00:00:58,IMU3,0.0,0.0,0.0,0.57,-0.8,9.58,18.69,-6.81,-24.69,0.0,-0.05,0.84,0.54
13399,00:00:58,IMU1,0.0,0.0,0.0,0.42,-5.21,8.27,11.81,21.81,-17.19,-0.24,-0.14,0.4,0.87
13399,00:00:58,IMU2,0.0,0.0,0.0,1.07,-3.91,9.0,-0.69,26.19,-21.06,-0.2,-0.07,0.07,0.98
13399,00:00:58,IMU3,0.0,0.0,0.0,0.57,-0.8,9.58,18.69,-6.81,-24.69,0.0,-0.05,0.84,0.54
13400,00:00:58,IMU1,0.0,0.0,0.0,0.42,-5.21,8.27,11.81,21.81,-17.19,-0.24,-0.14,0.4,0.87
13400,00:00:58,IMU2,0.0,0.0,0.0,1.15,-3.91,9.12,-0.69,26.19,-21.06,-0.2,-0.07,0.07,0.98
13400,00:00:58,IMU3,0.0,0.0,0.0,0.57,-0.8,9.58,18.69,-6.81,-24.69,0.0,-0.05,0.84,0.54
13401,00:00:58,IMU1,0.0,0.0,0.0,0.42,-5.21,8.27,11.81,21.81,-17.19,-0.24,-0.14,0.4,0.87
13401,00:00:58,IMU2,0.0,0.0,0.0,1.15,-3.91,9.12,-0.69,22.94,-19.88,-0.2,-0.07,0.07,0.98
13401,00:00:58,IMU3,0.0,0.0,0.0,0.57,-0.8,9.58,18.69,-6.81,-24.69,0.0,-0.05,0.84,0.54
13402,00:00:58,IMU1,0.0,0.0,0.0,0.42,-5.21,8.27,11.81,21.81,-17.19,-0.24,-0.14,0.4,0.87
13402,00:00:58,IMU2,0.0,0.0,0.0,1.15,-3.91,9.12,-0.69,22.94,-19.88,-0.2,-0.07,0.07,0.98
13402,00:00:58,IMU3,0.0,0.0,0.0,0.54,-0.77,9.61,18.69,-6.81,-24.69,0.0,-0.05,0.84,0.54
13403,00:00:58,IMU1,0.0,0.0,0.0,0.42,-5.21,8.27,11.81,21.81,-17.19,-0.24,-0.14,0.4,0.87
13403,00:00:58,IMU2,0.0,0.0,0.0,1.15,-3.91,9.12,-0.69,22.94,-19.88,-0.2,-0.07,0.07,0.98
13403,00:00:58,IMU3,0.0,0.0,0.0,0.54,-0.77,9.61,18.69,-7.19,-24.25,0.0,-0.05,0.84,0.54
13404,00:00:58,IMU1,0.0,0.0,0.0,0.42,-5.17,8.28,11.81,21.81,-17.19,-0.24,-0.14,0.4,0.87
13404,00:00:58,IMU2,0.0,0.0,0.0,1.15,-3.91,9.12,-0.69,22.94,-19.88,-0.2,-0.07,0.07,0.98
13404,00:00:58,IMU3,0.0,0.0,0.0,0.54,-0.77,9.61,18.69,-7.19,-24.25,0.0,-0.05,0.84,0.54
13405,00:00:58,IMU1,0.0,0.0,0.0,0.42,-5.17,8.28,14.0,25.88,-15.56,-0.24,-0.14,0.4,0.87
13405,00:00:58,IMU2,0.0,0.0,0.0,1.15,-3.91,9.12,-0.69,22.94,-19.88,-0.2,-0.07,0.07,0.98
13405,00:00:58,IMU3,0.0,0.0,0.0,0.54,-0.77,9.61,18.69,-7.19,-24.25,0.0,-0.05,0.84,0.54
13406,00:00:58,IMU1,0.0,0.0,0.0,0.42,-5.17,8.28,14.0,25.88,-15.56,-0.24,-0.14,0.4,0.87
13406,00:00:58,IMU2,0.0,0.0,0.0,1.11,-3.91,9.08,-0.69,22.94,-19.88,-0.2,-0.07,0.07,0.98
13406,00:00:58,IMU3,0.0,0.0,0.0,0.54,-0.77,9.61,18.69,-7.19,-24.25,0.0,-0.05,0.84,0.54
13407,00:00:58,IMU1,0.0,0.0,0.0,0.42,-5.17,8.28,14.0,25.88,-15.56,-0.24,-0.14,0.4,0.87
13407,00:00:58,IMU2,0.0,0.0,0.0,1.11,-3.91,9.08,-0.31,23.62,-20.31,-0.2,-0.07,0.07,0.98
13407,00:00:58,IMU3,0.0,0.0,0.0,0.54,-0.77,9.61,18.69,-7.19,-24.25,0.0,-0.05,0.84,0.54
13408,00:00:58,IMU1,0.0,0.0,0.0,0.42,-5.17,8.28,14.0,25.88,-15.56,-0.24,-0.14,0.4,0.87
13408,00:00:58,IMU2,0.0,0.0,0.0,1.11,-3.91,9.08,-0.31,23.62,-20.31,-0.2,-0.07,0.07,0.98
13408,00:00:58,IMU3,0.0,0.0,0.0,0.57,-0.77,9.58,18.69,-7.19,-24.25,0.0,-0.05,0.84,0.54
13409,00:00:58,IMU1,0.0,0.0,0.0,0.42,-5.17,8.28,14.0,25.88,-15.56,-0.24,-0.14,0.4,0.87
13409,00:00:58,IMU2,0.0,0.0,0.0,1.11,-3.91,9.08,-0.31,23.62,-20.31,-0.2,-0.07,0.07,0.98
13409,00:00:58,IMU3,0.0,0.0,0.0,0.57,-0.77,9.58,18.69,-7.19,-24.25,0.0,-0.05,0.84,0.54
13410,00:00:58,IMU1,0.0,0.0,0.0,0.42,-5.17,8.28,14.0,25.88,-15.56,-0.24,-0.14,0.4,0.87
13410,00:00:58,IMU2,0.0,0.0,0.0,1.11,-3.91,9.08,-0.31,23.62,-20.31,-0.2,-0.07,0.07,0.98
13410,00:00:58,IMU3,0.0,0.0,0.0,0.57,-0.77,9.58,19.44,-6.44,-23.12,0.0,-0.05,0.84,0.54
13411,00:00:58,IMU1,0.0,0.0,0.0,0.42,-5.17,8.28,14.0,25.88,-15.56,-0.24,-0.14,0.4,0.87
13411,00:00:58,IMU2,0.0,0.0,0.0,1.11,-3.91,9.08,-0.31,23.62,-20.31,-0.2,-0.07,0.07,0.98
13411,00:00:58,IMU3,0.0,0.0,0.0,0.57,-0.77,9.58,19.44,-6.44,-23.12,0.0,-0.05,0.84,0.54
13412,00:00:58,IMU1,0.0,0.0,0.0,0.42,-5.13,8.27,14.0,25.88,-15.56,-0.24,-0.14,0.4,0.87
13412,00:00:58,IMU2,0.0,0.0,0.0,1.11,-3.95,9.04,-0.31,23.62,-20.31,-0.2,-0.07,0.07,0.98
13412,00:00:58,IMU3,0.0,0.0,0.0,0.57,-0.77,9.58,19.44,-6.44,-23.12,0.0,-0.05,0.84,0.54
13413,00:00:58,IMU1,0.0,0.0,0.0,0.42,-5.13,8.27,12.56,22.94,-16.38,-0.24,-0.14,0.4,0.87
13413,00:00:58,IMU2,0.0,0.0,0.0,1.11,-3.95,9.04,-0.31,23.62,-20.31,-0.2,-0.07,0.07,0.98
13413,00:00:58,IMU3,0.0,0.0,0.0,0.57,-0.77,9.58,19.44,-6.44,-23.12,0.0,-0.05,0.84,0.54
13414,00:00:58,IMU1,0.0,0.0,0.0,0.42,-5.13,8.27,12.56,22.94,-16.38,-0.24,-0.14,0.4,0.87
13414,00:00:58,IMU2,0.0,0.0,0.0,1.11,-3.95,9.04,-1.06,22.56,-20.31,-0.2,-0.07,0.07,0.98
13414,00:00:58,IMU3,0.0,0.0,0.0,0.57,-0.77,9.58,19.44,-6.44,-23.12,0.0,-0.05,0.84,0.54
13415,00:00:58,IMU1,0.0,0.0,0.0,0.42,-5.13,8.27,12.56,22.94,-16.38,-0.24,-0.14,0.4,0.87
13415,00:00:58,IMU2,0.0,0.0,0.0,1.11,-3.95,9.04,-1.06,22.56,-20.31,-0.2,-0.07,0.07,0.98
13415,00:00:58,IMU3,0.0,0.0,0.0,0.57,-0.77,9.58,19.44,-6.44,-23.12,0.0,-0.05,0.84,0.54
13416,00:00:58,IMU1,0.0,0.0,0.0,0.42,-5.13,8.27,12.56,22.94,-16.38,-0.24,-0.14,0.4,0.87
13416,00:00:58,IMU2,0.0,0.0,0.0,1.11,-3.95,9.04,-1.06,22.56,-20.31,-0.2,-0.07,0.07,0.98
13416,00:00:58,IMU3,0.0,0.0,0.0,0.57,-0.73,9.61,19.44,-6.44,-23.12,0.0,-0.05,0.84,0.54
13417,00:00:58,IMU1,0.0,0.0,0.0,0.42,-5.13,8.27,12.56,22.94,-16.38,-0.24,-0.14,0.4,0.87
13417,00:00:58,IMU2,0.0,0.0,0.0,1.11,-3.95,9.04,-1.06,22.56,-20.31,-0.2,-0.07,0.07,0.98
13417,00:00:58,IMU3,0.0,0.0,0.0,0.57,-0.73,9.61,18.38,-7.88,-25.81,0.0,-0.05,0.84,0.54
13418,00:00:58,IMU1,0.0,0.0,0.0,0.42,-5.13,8.27,12.56,22.94,-16.38,-0.24,-0.14,0.4,0.87
13418,00:00:58,IMU2,0.0,0.0,0.0,1.07,-3.91,9.0,-1.06,22.56,-20.31,-0.2,-0.07,0.07,0.98
13418,00:00:58,IMU3,0.0,0.0,0.0,0.57,-0.73,9.61,18.38,-7.88,-25.81,0.0,-0.05,0.84,0.54
13419,00:00:58,IMU1,0.0,0.0,0.0,0.42,-5.13,8.27,12.56,22.94,-16.38,-0.24,-0.14,0.4,0.87
13419,00:00:58,IMU2,0.0,0.0,0.0,1.07,-3.91,9.0,0.0,23.62,-19.88,-0.2,-0.07,0.07,0.98
13419,00:00:58,IMU3,0.0,0.0,0.0,0.57,-0.73,9.61,18.38,-7.88,-25.81,0.0,-0.05,0.84,0.54
13420,00:00:58,IMU1,0.0,0.0,0.0,0.42,-5.21,8.27,12.56,22.94,-16.38,-0.24,-0.14,0.4,0.87
13420,00:00:58,IMU2,0.0,0.0,0.0,1.07,-3.91,9.0,0.0,23.62,-19.88,-0.2,-0.07,0.07,0.98
13420,00:00:58,IMU3,0.0,0.0,0.0,0.57,-0.73,9.61,18.38,-7.88,-25.81,0.0,-0.05,0.84,0.54
13421,00:00:58,IMU1,0.0,0.0,0.0,0.42,-5.21,8.27,13.31,23.31,-15.56,-0.24,-0.14,0.4,0.87
13421,00:00:58,IMU2,0.0,0.0,0.0,1.07,-3.91,9.0,0.0,23.62,-19.88,-0.2,-0.07,0.07,0.98
13421,00:00:58,IMU3,0.0,0.0,0.0,0.57,-0.73,9.61,18.38,-7.88,-25.81,0.0,-0.05,0.84,0.54
13422,00:00:58,IMU1,0.0,0.0,0.0,0.42,-5.21,8.27,13.31,23.31,-15.56,-0.24,-0.14,0.4,0.87
13422,00:00:58,IMU2,0.0,0.0,0.0,1.07,-3.91,9.0,0.0,23.62,-19.88,-0.2,-0.07,0.07,0.98
13422,00:00:58,IMU3,0.0,0.0,0.0,0.57,-0.77,9.61,18.38,-7.88,-25.81,0.0,-0.05,0.84,0.54
13423,00:00:58,IMU1,0.0,0.0,0.0,0.42,-5.21,8.27,13.31,23.31,-15.56,-0.24,-0.14,0.4,0.87
13423,00:00:58,IMU2,0.0,0.0,0.0,1.07,-3.91,9.0,0.0,23.62,-19.88,-0.2,-0.07,0.07,0.98
13423,00:00:58,IMU3,0.0,0.0,0.0,0.57,-0.77,9.61,19.44,-6.81,-24.25,0.0,-0.05,0.84,0.54
13424,00:00:58,IMU1,0.0,0.0,0.0,0.42,-5.21,8.27,13.31,23.31,-15.56,-0.24,-0.14,0.4,0.87
13424,00:00:58,IMU2,0.0,0.0,0.0,1.11,-3.91,9.0,0.0,23.62,-19.88,-0.2,-0.07,0.07,0.98
13424,00:00:58,IMU3,0.0,0.0,0.0,0.57,-0.77,9.61,19.44,-6.81,-24.25,0.0,-0.05,0.84,0.54
13425,00:00:58,IMU1,0.0,0.0,0.0,0.42,-5.21,8.27,13.31,23.31,-15.56,-0.24,-0.14,0.4,0.87
13425,00:00:58,IMU2,0.0,0.0,0.0,1.11,-3.91,9.0,-0.31,23.25,-21.88,-0.2,-0.07,0.07,0.98
13425,00:00:58,IMU3,0.0,0.0,0.0,0.57,-0.77,9.61,19.44,-6.81,-24.25,0.0,-0.05,0.84,0.54
13426,00:00:58,IMU1,0.0,0.0,0.0,0.42,-5.13,8.32,13.31,23.31,-15.56,-0.24,-0.14,0.4,0.87
13426,00:00:58,IMU2,0.0,0.0,0.0,1.11,-3.91,9.0,-0.31,23.25,-21.88,-0.2,-0.07,0.07,0.98
13426,00:00:58,IMU3,0.0,0.0,0.0,0.57,-0.77,9.61,19.44,-6.81,-24.25,0.0,-0.05,0.84,0.54
13427,00:00:58,IMU1,0.0,0.0,0.0,0.42,-5.13,8.32,12.19,23.62,-15.19,-0.24,-0.14,0.4,0.87
13427,00:00:58,IMU2,0.0,0.0,0.0,1.11,-3.91,9.0,-0.31,23.25,-21.88,-0.2,-0.07,0.07,0.98
13427,00:00:58,IMU3,0.0,0.0,0.0,0.57,-0.77,9.61,19.44,-6.81,-24.25,0.0,-0.05,0.84,0.54
13428,00:00:58,IMU1,0.0,0.0,0.0,0.42,-5.13,8.32,12.19,23.62,-15.19,-0.24,-0.14,0.4,0.87
13428,00:00:58,IMU2,0.0,0.0,0.0,1.11,-3.91,9.0,-0.31,23.25,-21.88,-0.2,-0.07,0.07,0.98
13428,00:00:58,IMU3,0.0,0.0,0.0,0.57,-0.8,9.61,19.44,-6.81,-24.25,0.0,-0.05,0.84,0.54
13429,00:00:58,IMU1,0.0,0.0,0.0,0.42,-5.13,8.32,12.19,23.62,-15.19,-0.24,-0.14,0.4,0.87
13429,00:00:58,IMU2,0.0,0.0,0.0,1.11,-3.91,9.0,-0.31,23.25,-21.88,-0.2,-0.07,0.07,0.98
13429,00:00:58,IMU3,0.0,0.0,0.0,0.57,-0.8,9.61,18.0,-7.19,-25.81,0.0,-0.05,0.84,0.54
13430,00:00:58,IMU1,0.0,0.0,0.0,0.42,-5.13,8.32,12.19,23.62,-15.19,-0.24,-0.14,0.4,0.87
13430,00:00:58,IMU2,0.0,0.0,0.0,1.11,-3.91,9.08,-0.31,23.25,-21.88,-0.2,-0.07,0.07,0.98
13430,00:00:58,IMU3,0.0,0.0,0.0,0.57,-0.8,9.61,18.0,-7.19,-25.81,0.0,-0.05,0.84,0.54
13431,00:00:58,IMU1,0.0,0.0,0.0,0.42,-5.13,8.32,12.19,23.62,-15.19,-0.24,-0.14,0.4,0.87
13431,00:00:58,IMU2,0.0,0.0,0.0,1.11,-3.91,9.08,0.0,22.94,-21.06,-0.2,-0.07,0.07,0.98
13431,00:00:58,IMU3,0.0,0.0,0.0,0.57,-0.8,9.61,18.0,-7.19,-25.81,0.0,-0.05,0.84,0.54
13432,00:00:58,IMU1,0.0,0.0,0.0,0.42,-5.17,8.28,12.19,23.62,-15.19,-0.24,-0.14,0.4,0.87
13432,00:00:58,IMU2,0.0,0.0,0.0,1.11,-3.91,9.08,0.0,22.94,-21.06,-0.2,-0.07,0.07,0.98
13432,00:00:58,IMU3,0.0,0.0,0.0,0.57,-0.8,9.61,18.0,-7.19,-25.81,0.0,-0.05,0.84,0.54
13433,00:00:58,IMU1,0.0,0.0,0.0,0.42,-5.17,8.28,14.38,24.75,-16.81,-0.24,-0.14,0.4,0.87
13433,00:00:58,IMU2,0.0,0.0,0.0,1.11,-3.91,9.08,0.0,22.94,-21.06,-0.2,-0.07,0.07,0.98
13433,00:00:58,IMU3,0.0,0.0,0.0,0.57,-0.8,9.61,18.0,-7.19,-25.81,0.0,-0.05,0.84,0.54
13434,00:00:58,IMU1,0.0,0.0,0.0,0.42,-5.17,8.28,14.38,24.75,-16.81,-0.24,-0.14,0.4,0.87
13434,00:00:58,IMU2,0.0,0.0,0.0,1.11,-3.91,9.08,0.0,22.94,-21.06,-0.2,-0.07,0.07,0.98
13434,00:00:58,IMU3,0.0,0.0,0.0,0.57,-0.8,9.61,18.0,-7.19,-25.81,0.0,-0.05,0.84,0.54
13435,00:00:58,IMU1,0.0,0.0,0.0,0.42,-5.17,8.28,14.38,24.75,-16.81,-0.24,-0.14,0.4,0.87
13435,00:00:58,IMU2,0.0,0.0,0.0,1.11,-3.91,9.08,0.0,22.94,-21.06,-0.2,-0.07,0.07,0.98
13435,00:00:58,IMU3,0.0,0.0,0.0,0.57,-0.8,9.61,18.0,-7.19,-25.81,0.0,-0.05,0.84,0.54
13436,00:00:58,IMU1,0.0,0.0,0.0,0.42,-5.17,8.28,14.38,24.75,-16.81,-0.24,-0.14,0.4,0.87
13436,00:00:58,IMU2,0.0,0.0,0.0,1.11,-3.91,9.08,0.0,22.94,-21.06,-0.2,-0.07,0.07,0.98
13436,00:00:58,IMU3,0.0,0.0,0.0,0.57,-0.73,9.58,18.0,-7.19,-25.81,0.0,-0.05,0.84,0.54
13437,00:00:58,IMU1,0.0,0.0,0.0,0.42,-5.17,8.28,14.38,24.75,-16.81,-0.24,-0.14,0.4,0.87
13437,00:00:58,IMU2,0.0,0.0,0.0,1.11,-3.91,9.08,0.0,22.94,-21.06,-0.2,-0.07,0.07,0.98
13437,00:00:58,IMU3,0.0,0.0,0.0,0.57,-0.73,9.58,18.69,-7.19,-24.69,0.0,-0.05,0.84,0.54
13438,00:00:58,IMU1,0.0,0.0,0.0,0.46,-5.17,8.23,14.38,24.75,-16.81,-0.24,-0.14,0.4,0.87
13438,00:00:58,IMU2,0.0,0.0,0.0,1.11,-3.87,9.0,0.0,22.94,-21.06,-0.2,-0.07,0.07,0.98
13438,00:00:58,IMU3,0.0,0.0,0.0,0.57,-0.73,9.58,18.69,-7.19,-24.69,0.0,-0.05,0.84,0.54
13439,00:00:58,IMU1,0.0,0.0,0.0,0.46,-5.17,8.23,11.81,23.62,-15.56,-0.24,-0.14,0.4,0.87
13439,00:00:58,IMU2,0.0,0.0,0.0,1.11,-3.87,9.0,0.0,23.25,-19.88,-0.2,-0.07,0.07,0.98
13439,00:00:58,IMU3,0.0,0.0,0.0,0.57,-0.73,9.58,18.69,-7.19,-24.69,0.0,-0.05,0.84,0.54
13440,00:00:58,IMU1,0.0,0.0,0.0,0.46,-5.17,8.23,11.81,23.62,-15.56,-0.24,-0.14,0.4,0.87
13440,00:00:58,IMU2,0.0,0.0,0.0,1.11,-3.87,9.0,0.0,23.25,-19.88,-0.2,-0.07,0.07,0.98
13440,00:00:58,IMU3,0.0,0.0,0.0,0.57,-0.73,9.58,18.69,-7.19,-24.69,0.0,-0.05,0.84,0.54
13441,00:00:58,IMU1,0.0,0.0,0.0,0.46,-5.17,8.23,11.81,23.62,-15.56,-0.24,-0.14,0.4,0.87
13441,00:00:58,IMU2,0.0,0.0,0.0,1.11,-3.87,9.0,0.0,23.25,-19.88,-0.2,-0.07,0.07,0.98
13441,00:00:58,IMU3,0.0,0.0,0.0,0.57,-0.73,9.58,18.69,-7.19,-24.69,0.0,-0.05,0.84,0.54
13442,00:00:58,IMU1,0.0,0.0,0.0,0.46,-5.13,8.24,11.81,23.62,-15.56,-0.24,-0.14,0.4,0.87
13442,00:00:58,IMU2,0.0,0.0,0.0,1.11,-3.87,9.0,0.0,23.25,-19.88,-0.2,-0.07,0.07,0.98
13442,00:00:58,IMU3,0.0,0.0,0.0,0.57,-0.77,9.61,18.69,-7.19,-24.69,0.0,-0.05,0.84,0.54
13443,00:00:58,IMU1,0.0,0.0,0.0,0.46,-5.13,8.24,12.19,22.94,-15.56,-0.24,-0.14,0.4,0.87
13443,00:00:58,IMU2,0.0,0.0,0.0,1.11,-3.87,9.0,0.0,23.25,-19.88,-0.2,-0.07,0.07,0.98
13443,00:00:58,IMU3,0.0,0.0,0.0,0.57,-0.77,9.61,18.0,-6.81,-25.06,0.0,-0.05,0.84,0.54
13444,00:00:58,IMU1,0.0,0.0,0.0,0.46,-5.13,8.24,12.19,22.94,-15.56,-0.24,-0.14,0.4,0.87
13444,00:00:58,IMU2,0.0,0.0,0.0,1.15,-3.95,9.0,0.0,23.25,-19.88,-0.2,-0.07,0.07,0.98
13444,00:00:58,IMU3,0.0,0.0,0.0,0.57,-0.77,9.61,18.0,-6.81,-25.06,0.0,-0.05,0.84,0.54
13445,00:00:58,IMU1,0.0,0.0,0.0,0.46,-5.13,8.24,12.19,22.94,-15.56,-0.24,-0.14,0.4,0.87
13445,00:00:58,IMU2,0.0,0.0,0.0,1.15,-3.95,9.0,0.0,23.25,-19.88,-0.2,-0.07,0.07,0.98
13445,00:00:58,IMU3,0.0,0.0,0.0,0.57,-0.77,9.61,18.0,-6.81,-25.06,0.0,-0.05,0.84,0.54
13446,00:00:58,IMU1,0.0,0.0,0.0,0.46,-5.13,8.24,12.19,22.94,-15.56,-0.24,-0.14,0.4,0.87
13446,00:00:58,IMU2,0.0,0.0,0.0,1.15,-3.95,9.0,0.31,22.94,-21.06,-0.2,-0.07,0.07,0.98
13446,00:00:58,IMU3,0.0,0.0,0.0,0.57,-0.77,9.61,18.0,-6.81,-25.06,0.0,-0.05,0.84,0.54
13447,00:00:58,IMU1,0.0,0.0,0.0,0.46,-5.13,8.24,12.19,22.94,-15.56,-0.24,-0.14,0.4,0.87
13447,00:00:58,IMU2,0.0,0.0,0.0,1.15,-3.95,9.0,0.31,22.94,-21.06,-0.2,-0.07,0.07,0.98
13447,00:00:58,IMU3,0.0,0.0,0.0,0.57,-0.77,9.61,18.0,-6.81,-25.06,0.0,-0.05,0.84,0.54
13448,00:00:58,IMU1,0.0,0.0,0.0,0.42,-5.17,8.28,12.19,22.94,-15.56,-0.24,-0.14,0.4,0.87
13448,00:00:58,IMU2,0.0,0.0,0.0,1.15,-3.95,9.0,0.31,22.94,-21.06,-0.2,-0.07,0.07,0.98
13448,00:00:58,IMU3,0.0,0.0,0.0,0.57,-0.8,9.61,18.0,-6.81,-25.06,0.0,-0.05,0.84,0.54
13449,00:00:58,IMU1,0.0,0.0,0.0,0.42,-5.17,8.28,14.38,25.12,-16.38,-0.24,-0.14,0.4,0.87
13449,00:00:58,IMU2,0.0,0.0,0.0,1.15,-3.95,9.0,0.31,22.94,-21.06,-0.2,-0.07,0.07,0.98
13449,00:00:58,IMU3,0.0,0.0,0.0,0.57,-0.8,9.61,18.69,-6.81,-24.69,0.0,-0.05,0.84,0.54
13450,00:00:58,IMU1,0.0,0.0,0.0,0.42,-5.17,8.28,14.38,25.12,-16.38,-0.24,-0.14,0.4,0.87
13450,00:00:58,IMU2,0.0,0.0,0.0,1.11,-3.91,9.04,0.31,22.94,-21.06,-0.2,-0.07,0.07,0.98
13450,00:00:58,IMU3,0.0,0.0,0.0,0.57,-0.8,9.61,18.69,-6.81,-24.69,0.0,-0.05,0.84,0.54
13451,00:00:58,IMU1,0.0,0.0,0.0,0.42,-5.17,8.28,14.38,25.12,-16.38,-0.24,-0.14,0.4,0.87
13451,00:00:58,IMU2,0.0,0.0,0.0,1.11,-3.91,9.04,0.31,22.94,-21.06,-0.2,-0.07,0.07,0.98
13451,00:00:58,IMU3,0.0,0.0,0.0,0.57,-0.8,9.61,18.69,-6.81,-24.69,0.0,-0.05,0.84,0.54
13452,00:00:58,IMU1,0.0,0.0,0.0,0.42,-5.17,8.28,14.38,25.12,-16.38,-0.24,-0.14,0.4,0.87
13452,00:00:58,IMU2,0.0,0.0,0.0,1.11,-3.91,9.04,0.0,23.25,-21.88,-0.2,-0.07,0.07,0.98
13452,00:00:58,IMU3,0.0,0.0,0.0,0.57,-0.8,9.61,18.69,-6.81,-24.69,0.0,-0.05,0.84,0.54
13453,00:00:58,IMU1,0.0,0.0,0.0,0.42,-5.17,8.28,14.38,25.12,-16.38,-0.24,-0.14,0.4,0.87
13453,00:00:58,IMU2,0.0,0.0,0.0,1.11,-3.91,9.04,0.0,23.25,-21.88,-0.2,-0.07,0.07,0.98
13453,00:00:58,IMU3,0.0,0.0,0.0,0.57,-0.8,9.61,18.69,-6.81,-24.69,0.0,-0.05,0.84,0.54
13454,00:00:58,IMU1,0.0,0.0,0.0,0.46,-5.17,8.36,14.38,25.12,-16.38,-0.24,-0.14,0.4,0.87
13454,00:00:58,IMU2,0.0,0.0,0.0,1.11,-3.91,9.04,0.0,23.25,-21.88,-0.2,-0.07,0.07,0.98
13454,00:00:58,IMU3,0.0,0.0,0.0,0.61,-0.77,9.61,18.69,-6.81,-24.69,0.0,-0.05,0.84,0.54
13455,00:00:58,IMU1,0.0,0.0,0.0,0.46,-5.17,8.36,11.81,23.62,-16.0,-0.24,-0.14,0.4,0.87
13455,00:00:58,IMU2,0.0,0.0,0.0,1.11,-3.91,9.04,0.0,23.25,-21.88,-0.2,-0.07,0.07,0.98
13455,00:00:58,IMU3,0.0,0.0,0.0,0.61,-0.77,9.61,18.69,-6.81,-24.69,0.0,-0.05,0.84,0.54
13456,00:00:58,IMU1,0.0,0.0,0.0,0.46,-5.17,8.36,11.81,23.62,-16.0,-0.24,-0.14,0.4,0.87
13456,00:00:58,IMU2,0.0,0.0,0.0,1.11,-3.91,9.04,0.0,23.25,-21.88,-0.2,-0.07,0.07,0.98
13456,00:00:58,IMU3,0.0,0.0,0.0,0.61,-0.77,9.61,18.0,-6.81,-26.62,0.0,-0.05,0.84,0.54
13457,00:00:58,IMU1,0.0,0.0,0.0,0.46,-5.17,8.36,11.81,23.62,-16.0,-0.24,-0.14,0.4,0.87
13457,00:00:58,IMU2,0.0,0.0,0.0,1.11,-3.91,9.04,0.0,23.25,-21.88,-0.2,-0.07,0.07,0.98
13457,00:00:58,IMU3,0.0,0.0,0.0,0.61,-0.77,9.61,18.0,-6.81,-26.62,0.0,-0.05,0.84,0.54
13458,00:00:58,IMU1,0.0,0.0,0.0,0.46,-5.17,8.36,11.81,23.62,-16.0,-0.24,-0.14,0.4,0.87
13458,00:00:58,IMU2,0.0,0.0,0.0,1.11,-3.91,9.04,0.0,23.25,-21.88,-0.2,-0.07,0.07,0.98
13458,00:00:58,IMU3,0.0,0.0,0.0,0.61,-0.77,9.61,18.0,-6.81,-26.62,0.0,-0.05,0.84,0.54
13459,00:00:58,IMU1,0.0,0.0,0.0,0.46,-5.17,8.36,11.81,23.62,-16.0,-0.24,-0.14,0.4,0.87
13459,00:00:58,IMU2,0.0,0.0,0.0,1.11,-3.91,9.04,0.0,23.25,-21.88,-0.2,-0.07,0.07,0.98
13459,00:00:58,IMU3,0.0,0.0,0.0,0.61,-0.77,9.61,18.0,-6.81,-26.62,0.0,-0.05,0.84,0.54
13460,00:00:58,IMU1,0.0,0.0,0.0,0.38,-5.21,8.31,11.81,23.62,-16.0,-0.24,-0.14,0.4,0.87
13460,00:00:58,IMU2,0.0,0.0,0.0,1.11,-3.91,9.04,0.0,23.25,-21.88,-0.2,-0.07,0.07,0.98
13460,00:00:58,IMU3,0.0,0.0,0.0,0.61,-0.77,9.61,18.0,-6.81,-26.62,0.0,-0.05,0.84,0.54
13461,00:00:58,IMU1,0.0,0.0,0.0,0.38,-5.21,8.31,11.81,23.62,-16.0,-0.24,-0.14,0.4,0.87
13461,00:00:58,IMU2,0.0,0.0,0.0,1.11,-3.91,9.04,0.0,23.25,-21.88,-0.2,-0.07,0.07,0.98
13461,00:00:58,IMU3,0.0,0.0,0.0,0.61,-0.77,9.61,18.0,-6.81,-26.62,0.0,-0.05,0.84,0.54
13462,00:00:58,IMU1,0.0,0.0,0.0,0.38,-5.21,8.31,11.81,23.62,-16.0,-0.24,-0.14,0.4,0.87
13462,00:00:58,IMU2,0.0,0.0,0.0,1.07,-3.91,9.04,0.0,23.25,-21.88,-0.2,-0.07,0.07,0.98
13462,00:00:58,IMU3,0.0,0.0,0.0,0.61,-0.77,9.61,18.0,-6.81,-26.62,0.0,-0.05,0.84,0.54
13463,00:00:58,IMU1,0.0,0.0,0.0,0.38,-5.21,8.31,11.81,23.62,-16.0,-0.24,-0.14,0.4,0.87
13463,00:00:58,IMU2,0.0,0.0,0.0,1.07,-3.91,9.04,0.0,23.25,-21.88,-0.2,-0.07,0.07,0.98
13463,00:00:58,IMU3,0.0,0.0,0.0,0.61,-0.77,9.61,18.0,-6.81,-26.62,0.0,-0.05,0.84,0.54
13464,00:00:58,IMU1,0.0,0.0,0.0,0.38,-5.21,8.31,11.81,23.62,-16.0,-0.24,-0.14,0.4,0.87
13464,00:00:58,IMU2,0.0,0.0,0.0,1.07,-3.91,9.04,-1.06,24.75,-19.88,-0.2,-0.07,0.07,0.98
13464,00:00:58,IMU3,0.0,0.0,0.0,0.61,-0.77,9.61,18.0,-6.81,-26.62,0.0,-0.05,0.84,0.54
13465,00:00:58,IMU1,0.0,0.0,0.0,0.38,-5.21,8.31,11.81,23.62,-16.0,-0.24,-0.14,0.4,0.87
13465,00:00:58,IMU2,0.0,0.0,0.0,1.07,-3.91,9.04,-1.06,24.75,-19.88,-0.2,-0.07,0.07,0.98
13465,00:00:58,IMU3,0.0,0.0,0.0,0.61,-0.77,9.61,18.0,-6.81,-26.62,0.0,-0.05,0.84,0.54
13466,00:00:58,IMU1,0.0,0.0,0.0,0.46,-5.17,8.32,11.81,23.62,-16.0,-0.24,-0.14,0.4,0.87
13466,00:00:58,IMU2,0.0,0.0,0.0,1.07,-3.91,9.04,-1.06,24.75,-19.88,-0.2,-0.07,0.07,0.98
13466,00:00:58,IMU3,0.0,0.0,0.0,0.57,-0.8,9.58,18.0,-6.81,-26.62,0.0,-0.05,0.84,0.54
13467,00:00:58,IMU1,0.0,0.0,0.0,0.46,-5.17,8.32,12.56,23.31,-17.56,-0.24,-0.14,0.4,0.87
13467,00:00:58,IMU2,0.0,0.0,0.0,1.07,-3.91,9.04,-1.06,24.75,-19.88,-0.2,-0.07,0.07,0.98
13467,00:00:58,IMU3,0.0,0.0,0.0,0.57,-0.8,9.58,19.06,-7.19,-24.69,0.0,-0.05,0.84,0.54
13468,00:00:58,IMU1,0.0,0.0,0.0,0.46,-5.17,8.32,12.56,23.31,-17.56,-0.24,-0.14,0.4,0.87
13468,00:00:58,IMU2,0.0,0.0,0.0,1.07,-3.91,9.04,-1.06,24.75,-19.88,-0.2,-0.07,0.07,0.98
13468,00:00:58,IMU3,0.0,0.0,0.0,0.57,-0.8,9.58,19.06,-7.19,-24.69,0.0,-0.05,0.84,0.54
13469,00:00:58,IMU1,0.0,0.0,0.0,0.46,-5.17,8.32,12.56,23.31,-17.56,-0.24,-0.14,0.4,0.87
13469,00:00:58,IMU2,0.0,0.0,0.0,1.07,-3.91,9.04,-1.06,24.75,-19.88,-0.2,-0.07,0.07,0.98
13469,00:00:58,IMU3,0.0,0.0,0.0,0.57,-0.8,9.58,19.06,-7.19,-24.69,0.0,-0.05,0.84,0.54
13470,00:00:58,IMU1,0.0,0.0,0.0,0.46,-5.17,8.32,12.56,23.31,-17.56,-0.24,-0.14,0.4,0.87
13470,00:00:58,IMU2,0.0,0.0,0.0,1.11,-3.91,9.04,-1.06,24.75,-19.88,-0.2,-0.07,0.07,0.98
13470,00:00:58,IMU3,0.0,0.0,0.0,0.57,-0.8,9.58,19.06,-7.19,-24.69,0.0,-0.05,0.84,0.54
13471,00:00:58,IMU1,0.0,0.0,0.0,0.46,-5.17,8.32,12.56,23.31,-17.56,-0.24,-0.14,0.4,0.87
13471,00:00:58,IMU2,0.0,0.0,0.0,1.11,-3.91,9.04,0.31,22.56,-20.69,-0.2,-0.07,0.07,0.98
13471,00:00:58,IMU3,0.0,0.0,0.0,0.57,-0.8,9.58,19.06,-7.19,-24.69,0.0,-0.05,0.84,0.54
13472,00:00:58,IMU1,0.0,0.0,0.0,0.42,-5.21,8.27,12.56,23.31,-17.56,-0.24,-0.14,0.4,0.87
13472,00:00:58,IMU2,0.0,0.0,0.0,1.11,-3.91,9.04,0.31,22.56,-20.69,-0.2,-0.07,0.07,0.98
13472,00:00:58,IMU3,0.0,0.0,0.0,0.57,-0.8,9.58,19.06,-7.19,-24.69,0.0,-0.05,0.84,0.54
13473,00:00:58,IMU1,0.0,0.0,0.0,0.42,-5.21,8.27,12.56,23.62,-15.56,-0.24,-0.14,0.4,0.87
13473,00:00:58,IMU2,0.0,0.0,0.0,1.11,-3.91,9.04,0.31,22.56,-20.69,-0.2,-0.07,0.07,0.98
13473,00:00:58,IMU3,0.0,0.0,0.0,0.57,-0.8,9.58,19.06,-7.19,-24.69,0.0,-0.05,0.84,0.54
13474,00:00:58,IMU1,0.0,0.0,0.0,0.42,-5.21,8.27,12.56,23.62,-15.56,-0.24,-0.14,0.4,0.87
13474,00:00:58,IMU2,0.0,0.0,0.0,1.11,-3.91,9.04,0.31,22.56,-20.69,-0.2,-0.07,0.07,0.98
13474,00:00:58,IMU3,0.0,0.0,0.0,0.57,-0.77,9.58,19.06,-7.19,-24.69,0.0,-0.05,0.84,0.54
13475,00:00:58,IMU1,0.0,0.0,0.0,0.42,-5.21,8.27,12.56,23.62,-15.56,-0.24,-0.14,0.4,0.87
13475,00:00:58,IMU2,0.0,0.0,0.0,1.11,-3.91,9.04,0.31,22.56,-20.69,-0.2,-0.07,0.07,0.98
13475,00:00:58,IMU3,0.0,0.0,0.0,0.57,-0.77,9.58,18.0,-8.62,-25.81,0.0,-0.05,0.84,0.54
13476,00:00:58,IMU1,0.0,0.0,0.0,0.42,-5.17,8.24,12.56,23.62,-15.56,-0.24,-0.14,0.4,0.87
13476,00:00:58,IMU2,0.0,0.0,0.0,1.07,-3.91,9.04,0.31,22.56,-20.69,-0.2,-0.07,0.07,0.98
13476,00:00:58,IMU3,0.0,0.0,0.0,0.57,-0.77,9.58,18.0,-8.62,-25.81,0.0,-0.05,0.84,0.54
13477,00:00:58,IMU1,0.0,0.0,0.0,0.42,-5.17,8.24,11.44,23.62,-17.19,-0.24,-0.14,0.4,0.87
13477,00:00:58,IMU2,0.0,0.0,0.0,1.07,-3.91,9.04,-0.31,25.12,-18.75,-0.2,-0.07,0.07,0.98
13477,00:00:58,IMU3,0.0,0.0,0.0,0.57,-0.77,9.58,18.0,-8.62,-25.81,0.0,-0.05,0.84,0.54
13478,00:00:58,IMU1,0.0,0.0,0.0,0.42,-5.17,8.24,11.44,23.62,-17.19,-0.24,-0.14,0.4,0.87
13478,00:00:58,IMU2,0.0,0.0,0.0,1.07,-3.91,9.04,-0.31,25.12,-18.75,-0.2,-0.07,0.07,0.98
13478,00:00:58,IMU3,0.0,0.0,0.0,0.57,-0.77,9.58,18.0,-8.62,-25.81,0.0,-0.05,0.84,0.54
13479,00:00:58,IMU1,0.0,0.0,0.0,0.42,-5.17,8.24,11.44,23.62,-17.19,-0.24,-0.14,0.4,0.87
13479,00:00:58,IMU2,0.0,0.0,0.0,1.07,-3.91,9.04,-0.31,25.12,-18.75,-0.2,-0.07,0.07,0.98
13479,00:00:58,IMU3,0.0,0.0,0.0,0.57,-0.77,9.58,18.0,-8.62,-25.81,0.0,-0.05,0.84,0.54
13480,00:00:58,IMU1,0.0,0.0,0.0,0.42,-5.17,8.24,11.44,23.62,-17.19,-0.24,-0.14,0.4,0.87
13480,00:00:58,IMU2,0.0,0.0,0.0,1.07,-3.91,9.04,-0.31,25.12,-18.75,-0.2,-0.07,0.07,0.98
13480,00:00:58,IMU3,0.0,0.0,0.0,0.57,-0.77,9.61,18.0,-8.62,-25.81,0.0,-0.05,0.84,0.54
13481,00:00:58,IMU1,0.0,0.0,0.0,0.42,-5.17,8.24,11.44,23.62,-17.19,-0.24,-0.14,0.4,0.87
13481,00:00:58,IMU2,0.0,0.0,0.0,1.07,-3.91,9.04,-0.31,25.12,-18.75,-0.2,-0.07,0.07,0.98
13481,00:00:58,IMU3,0.0,0.0,0.0,0.57,-0.77,9.61,18.0,-8.62,-25.81,0.0,-0.05,0.84,0.54
13482,00:00:58,IMU1,0.0,0.0,0.0,0.42,-5.17,8.28,11.44,23.62,-17.19,-0.24,-0.14,0.4,0.87
13482,00:00:58,IMU2,0.0,0.0,0.0,1.07,-3.91,9.04,-0.31,25.12,-18.75,-0.2,-0.07,0.07,0.98
13482,00:00:58,IMU3,0.0,0.0,0.0,0.57,-0.77,9.61,18.69,-7.56,-25.06,0.0,-0.05,0.84,0.54
13483,00:00:58,IMU1,0.0,0.0,0.0,0.42,-5.17,8.28,11.81,22.94,-15.56,-0.24,-0.14,0.4,0.87
13483,00:00:58,IMU2,0.0,0.0,0.0,1.07,-3.91,9.04,-0.31,25.12,-18.75,-0.2,-0.07,0.07,0.98
13483,00:00:58,IMU3,0.0,0.0,0.0,0.57,-0.77,9.61,18.69,-7.56,-25.06,0.0,-0.05,0.84,0.54
13484,00:00:58,IMU1,0.0,0.0,0.0,0.42,-5.17,8.28,11.81,22.94,-15.56,-0.24,-0.14,0.4,0.87
13484,00:00:58,IMU2,0.0,0.0,0.0,1.07,-3.91,9.0,-0.31,25.12,-18.75,-0.2,-0.07,0.07,0.98
13484,00:00:58,IMU3,0.0,0.0,0.0,0.57,-0.77,9.61,18.69,-7.56,-25.06,0.0,-0.05,0.84,0.54
13485,00:00:58,IMU1,0.0,0.0,0.0,0.42,-5.17,8.28,11.81,22.94,-15.56,-0.24,-0.14,0.4,0.87
13485,00:00:58,IMU2,0.0,0.0,0.0,1.07,-3.91,9.0,-0.69,21.81,-21.06,-0.2,-0.07,0.07,0.98
13485,00:00:58,IMU3,0.0,0.0,0.0,0.57,-0.77,9.61,18.69,-7.56,-25.06,0.0,-0.05,0.84,0.54
13486,00:00:58,IMU1,0.0,0.0,0.0,0.42,-5.17,8.2,11.81,22.94,-15.56,-0.24,-0.14,0.4,0.87
13486,00:00:58,IMU2,0.0,0.0,0.0,1.07,-3.91,9.0,-0.69,21.81,-21.06,-0.2,-0.07,0.07,0.98
13486,00:00:58,IMU3,0.0,0.0,0.0,0.57,-0.73,9.61,18.69,-7.56,-25.06,0.0,-0.05,0.84,0.54
13487,00:00:58,IMU1,0.0,0.0,0.0,0.42,-5.17,8.2,12.94,23.62,-16.81,-0.24,-0.14,0.4,0.87
13487,00:00:58,IMU2,0.0,0.0,0.0,1.07,-3.91,9.0,-0.69,21.81,-21.06,-0.2,-0.07,0.07,0.98
13487,00:00:58,IMU3,0.0,0.0,0.0,0.57,-0.73,9.61,18.38,-7.19,-25.06,0.0,-0.05,0.84,0.54
13488,00:00:58,IMU1,0.0,0.0,0.0,0.42,-5.17,8.2,12.94,23.62,-16.81,-0.24,-0.14,0.4,0.87
13488,00:00:58,IMU2,0.0,0.0,0.0,1.07,-3.91,9.0,-0.69,21.81,-21.06,-0.2,-0.07,0.07,0.98
13488,00:00:58,IMU3,0.0,0.0,0.0,0.57,-0.73,9.61,18.38,-7.19,-25.06,0.0,-0.05,0.84,0.54
13489,00:00:58,IMU1,0.0,0.0,0.0,0.42,-5.17,8.2,12.94,23.62,-16.81,-0.24,-0.14,0.4,0.87
13489,00:00:58,IMU2,0.0,0.0,0.0,1.07,-3.91,9.0,-0.69,21.81,-21.06,-0.2,-0.07,0.07,0.98
13489,00:00:58,IMU3,0.0,0.0,0.0,0.57,-0.73,9.61,18.38,-7.19,-25.06,0.0,-0.05,0.84,0.54
13490,00:00:58,IMU1,0.0,0.0,0.0,0.42,-5.17,8.2,12.94,23.62,-16.81,-0.24,-0.14,0.4,0.87
13490,00:00:58,IMU2,0.0,0.0,0.0,1.15,-3.91,9.04,-0.69,21.81,-21.06,-0.2,-0.07,0.07,0.98
13490,00:00:58,IMU3,0.0,0.0,0.0,0.57,-0.73,9.61,18.38,-7.19,-25.06,0.0,-0.05,0.84,0.54
13491,00:00:58,IMU1,0.0,0.0,0.0,0.42,-5.17,8.2,12.94,23.62,-16.81,-0.24,-0.14,0.4,0.87
13491,00:00:58,IMU2,0.0,0.0,0.0,1.15,-3.91,9.04,0.0,25.12,-20.69,-0.2,-0.07,0.07,0.98
13491,00:00:58,IMU3,0.0,0.0,0.0,0.57,-0.73,9.61,18.38,-7.19,-25.06,0.0,-0.05,0.84,0.54
13492,00:00:58,IMU1,0.0,0.0,0.0,0.34,-5.21,8.28,12.94,23.62,-16.81,-0.24,-0.14,0.4,0.87
13492,00:00:58,IMU2,0.0,0.0,0.0,1.15,-3.91,9.04,0.0,25.12,-20.69,-0.2,-0.07,0.07,0.98
13492,00:00:58,IMU3,0.0,0.0,0.0,0.57,-0.73,9.61,18.38,-7.19,-25.06,0.0,-0.05,0.84,0.54
13493,00:00:58,IMU1,0.0,0.0,0.0,0.34,-5.21,8.28,12.94,22.56,-15.19,-0.24,-0.14,0.4,0.87
13493,00:00:58,IMU2,0.0,0.0,0.0,1.15,-3.91,9.04,0.0,25.12,-20.69,-0.2,-0.07,0.07,0.98
13493,00:00:58,IMU3,0.0,0.0,0.0,0.57,-0.73,9.61,18.38,-7.19,-25.06,0.0,-0.05,0.84,0.54
13494,00:00:58,IMU1,0.0,0.0,0.0,0.34,-5.21,8.28,12.94,22.56,-15.19,-0.24,-0.14,0.4,0.87
13494,00:00:58,IMU2,0.0,0.0,0.0,1.15,-3.91,9.04,0.0,25.12,-20.69,-0.2,-0.07,0.07,0.98
13494,00:00:58,IMU3,0.0,0.0,0.0,0.54,-0.8,9.58,18.38,-7.19,-25.06,0.0,-0.05,0.84,0.54
13495,00:00:58,IMU1,0.0,0.0,0.0,0.34,-5.21,8.28,12.94,22.56,-15.19,-0.24,-0.14,0.4,0.87
13495,00:00:58,IMU2,0.0,0.0,0.0,1.15,-3.91,9.04,0.0,25.12,-20.69,-0.2,-0.07,0.07,0.98
13495,00:00:58,IMU3,0.0,0.0,0.0,0.54,-0.8,9.58,19.44,-7.88,-25.06,0.0,-0.05,0.84,0.54
13496,00:00:58,IMU1,0.0,0.0,0.0,0.34,-5.21,8.28,12.94,22.56,-15.19,-0.24,-0.14,0.4,0.87
13496,00:00:58,IMU2,0.0,0.0,0.0,1.15,-3.91,9.04,0.0,25.12,-20.69,-0.2,-0.07,0.07,0.98
13496,00:00:58,IMU3,0.0,0.0,0.0,0.54,-0.8,9.58,19.44,-7.88,-25.06,0.0,-0.05,0.84,0.54
13497,00:00:58,IMU1,0.0,0.0,0.0,0.34,-5.21,8.28,12.94,22.56,-15.19,-0.24,-0.14,0.4,0.87
13497,00:00:58,IMU2,0.0,0.0,0.0,1.15,-3.91,9.04,0.0,25.12,-20.69,-0.2,-0.07,0.07,0.98
13497,00:00:58,IMU3,0.0,0.0,0.0,0.54,-0.8,9.58,19.44,-7.88,-25.06,0.0,-0.05,0.84,0.54
13498,00:00:58,IMU1,0.0,0.0,0.0,0.42,-5.17,8.28,12.94,22.56,-15.19,-0.24,-0.14,0.4,0.87
13498,00:00:58,IMU2,0.0,0.0,0.0,1.11,-3.95,9.04,0.0,25.12,-20.69,-0.2,-0.07,0.07,0.98
13498,00:00:58,IMU3,0.0,0.0,0.0,0.54,-0.8,9.58,19.44,-7.88,-25.06,0.0,-0.05,0.84,0.54
13499,00:00:58,IMU1,0.0,0.0,0.0,0.42,-5.17,8.28,12.94,22.56,-15.19,-0.24,-0.14,0.4,0.87
13499,00:00:58,IMU2,0.0,0.0,0.0,1.11,-3.95,9.04,0.31,23.62,-20.69,-0.2,-0.07,0.07,0.98
13499,00:00:58,IMU3,0.0,0.0,0.0,0.54,-0.8,9.58,19.44,-7.88,-25.06,0.0,-0.05,0.84,0.54
13500,00:00:58,IMU1,0.0,0.0,0.0,0.42,-5.17,8.28,12.56,24.0,-16.38,-0.24,-0.14,0.4,0.87
13500,00:00:58,IMU2,0.0,0.0,0.0,1.11,-3.95,9.04,0.31,23.62,-20.69,-0.2,-0.07,0.07,0.98
13500,00:00:58,IMU3,0.0,0.0,0.0,0.57,-0.73,9.61,19.44,-7.88,-25.06,0.0,-0.05,0.84,0.54
13501,00:00:58,IMU1,0.0,0.0,0.0,0.42,-5.17,8.28,12.56,24.0,-16.38,-0.24,-0.14,0.4,0.87
13501,00:00:58,IMU2,0.0,0.0,0.0,1.11,-3.95,9.04,0.31,23.62,-20.69,-0.2,-0.07,0.07,0.98
13501,00:00:58,IMU3,0.0,0.0,0.0,0.57,-0.73,9.61,19.44,-7.56,-24.69,0.0,-0.05,0.84,0.54
13502,00:00:58,IMU1,0.0,0.0,0.0,0.42,-5.17,8.28,12.56,24.0,-16.38,-0.24,-0.14,0.4,0.87
13502,00:00:58,IMU2,0.0,0.0,0.0,1.11,-3.95,9.04,0.31,23.62,-20.69,-0.2,-0.07,0.07,0.98
13502,00:00:58,IMU3,0.0,0.0,0.0,0.57,-0.73,9.61,19.44,-7.56,-24.69,0.0,-0.05,0.84,0.54
13503,00:00:58,IMU1,0.0,0.0,0.0,0.42,-5.17,8.28,12.56,24.0,-16.38,-0.24,-0.14,0.4,0.87
13503,00:00:58,IMU2,0.0,0.0,0.0,1.11,-3.91,9.0,0.31,23.62,-20.69,-0.2,-0.07,0.07,0.98
13503,00:00:58,IMU3,0.0,0.0,0.0,0.57,-0.73,9.61,19.44,-7.56,-24.69,0.0,-0.05,0.84,0.54
13504,00:00:58,IMU1,0.0,0.0,0.0,0.42,-5.17,8.28,12.56,24.0,-16.38,-0.24,-0.14,0.4,0.87
13504,00:00:58,IMU2,0.0,0.0,0.0,1.11,-3.91,9.0,-0.31,23.25,-22.25,-0.2,-0.07,0.07,0.98
13504,00:00:58,IMU3,0.0,0.0,0.0,0.57,-0.73,9.61,19.44,-7.56,-24.69,0.0,-0.05,0.84,0.54
13505,00:00:58,IMU1,0.0,0.0,0.0,0.42,-5.17,8.28,12.56,24.0,-16.38,-0.24,-0.14,0.4,0.87
13505,00:00:58,IMU2,0.0,0.0,0.0,1.11,-3.91,9.0,-0.31,23.25,-22.25,-0.2,-0.07,0.07,0.98
13505,00:00:58,IMU3,0.0,0.0,0.0,0.57,-0.73,9.61,19.44,-7.56,-24.69,0.0,-0.05,0.84,0.54
13506,00:00:58,IMU1,0.0,0.0,0.0,0.42,-5.17,8.28,12.56,24.0,-16.38,-0.24,-0.14,0.4,0.87
13506,00:00:58,IMU2,0.0,0.0,0.0,1.11,-3.91,9.0,-0.31,23.25,-22.25,-0.2,-0.07,0.07,0.98
13506,00:00:58,IMU3,0.0,0.0,0.0,0.57,-0.73,9.61,19.44,-7.56,-24.69,0.0,-0.05,0.84,0.54
13507,00:00:58,IMU1,0.0,0.0,0.0,0.42,-5.17,8.28,12.56,24.0,-16.38,-0.24,-0.14,0.4,0.87
13507,00:00:58,IMU2,0.0,0.0,0.0,1.11,-3.91,9.0,-0.31,23.25,-22.25,-0.2,-0.07,0.07,0.98
13507,00:00:58,IMU3,0.0,0.0,0.0,0.57,-0.73,9.61,19.44,-7.56,-24.69,0.0,-0.05,0.84,0.54
13508,00:00:58,IMU1,0.0,0.0,0.0,0.42,-5.17,8.28,12.56,24.0,-16.38,-0.24,-0.14,0.4,0.87
13508,00:00:58,IMU2,0.0,0.0,0.0,1.11,-3.91,9.0,-0.31,23.25,-22.25,-0.2,-0.07,0.07,0.98
13508,00:00:58,IMU3,0.0,0.0,0.0,0.57,-0.73,9.61,19.44,-7.56,-24.69,0.0,-0.05,0.84,0.54
13509,00:00:58,IMU1,0.0,0.0,0.0,0.42,-5.17,8.31,12.56,24.0,-16.38,-0.24,-0.14,0.4,0.87
13509,00:00:58,IMU2,0.0,0.0,0.0,1.11,-3.87,9.08,-0.31,23.25,-22.25,-0.2,-0.07,0.07,0.98
13509,00:00:58,IMU3,0.0,0.0,0.0,0.57,-0.77,9.65,19.44,-7.56,-24.69,0.0,-0.05,0.84,0.54
13510,00:00:59,IMU1,0.0,0.0,0.0,0.42,-5.17,8.31,13.31,25.5,-17.56,-0.24,-0.14,0.4,0.87
13510,00:00:59,IMU2,0.0,0.0,0.0,1.11,-3.87,9.08,0.0,24.38,-21.88,-0.2,-0.07,0.07,0.98
13510,00:00:59,IMU3,0.0,0.0,0.0,0.57,-0.77,9.65,18.38,-7.19,-25.44,0.0,-0.05,0.84,0.54
13511,00:00:59,IMU1,0.0,0.0,0.0,0.42,-5.17,8.31,13.31,25.5,-17.56,-0.24,-0.14,0.4,0.87
13511,00:00:59,IMU2,0.0,0.0,0.0,1.11,-3.87,9.08,0.0,24.38,-21.88,-0.2,-0.07,0.07,0.98
13511,00:00:59,IMU3,0.0,0.0,0.0,0.57,-0.77,9.65,18.38,-7.19,-25.44,0.0,-0.05,0.84,0.54
13512,00:00:59,IMU1,0.0,0.0,0.0,0.42,-5.17,8.31,13.31,25.5,-17.56,-0.24,-0.14,0.4,0.87
13512,00:00:59,IMU2,0.0,0.0,0.0,1.11,-3.87,9.08,0.0,24.38,-21.88,-0.2,-0.07,0.07,0.98
13512,00:00:59,IMU3,0.0,0.0,0.0,0.57,-0.77,9.65,18.38,-7.19,-25.44,0.0,-0.05,0.84,0.54
13513,00:00:59,IMU1,0.0,0.0,0.0,0.42,-5.17,8.31,13.31,25.5,-17.56,-0.24,-0.14,0.4,0.87
13513,00:00:59,IMU2,0.0,0.0,0.0,1.11,-3.87,9.08,0.0,24.38,-21.88,-0.2,-0.07,0.07,0.98
13513,00:00:59,IMU3,0.0,0.0,0.0,0.57,-0.77,9.65,18.38,-7.19,-25.44,0.0,-0.05,0.84,0.54
13514,00:00:59,IMU1,0.0,0.0,0.0,0.42,-5.17,8.31,13.31,25.5,-17.56,-0.24,-0.14,0.4,0.87
13514,00:00:59,IMU2,0.0,0.0,0.0,1.11,-3.87,9.08,0.0,24.38,-21.88,-0.2,-0.07,0.07,0.98
13514,00:00:59,IMU3,0.0,0.0,0.0,0.57,-0.77,9.65,18.38,-7.19,-25.44,0.0,-0.05,0.84,0.54
13515,00:00:59,IMU1,0.0,0.0,0.0,0.42,-5.21,8.23,13.31,25.5,-17.56,-0.24,-0.14,0.4,0.87
13515,00:00:59,IMU2,0.0,0.0,0.0,1.11,-3.87,9.08,0.0,24.38,-21.88,-0.2,-0.07,0.07,0.98
13515,00:00:59,IMU3,0.0,0.0,0.0,0.57,-0.77,9.61,18.38,-7.19,-25.44,0.0,-0.05,0.84,0.54
13516,00:00:59,IMU1,0.0,0.0,0.0,0.42,-5.21,8.23,13.31,25.5,-17.56,-0.24,-0.14,0.4,0.87
13516,00:00:59,IMU2,0.0,0.0,0.0,1.11,-3.87,9.08,0.0,24.38,-21.88,-0.2,-0.07,0.07,0.98
13516,00:00:59,IMU3,0.0,0.0,0.0,0.57,-0.77,9.61,18.38,-7.19,-25.44,0.0,-0.05,0.84,0.54
13517,00:00:59,IMU1,0.0,0.0,0.0,0.42,-5.21,8.23,12.56,25.88,-16.81,-0.24,-0.14,0.4,0.87
13517,00:00:59,IMU2,0.0,0.0,0.0,1.11,-3.87,9.08,0.0,24.38,-21.88,-0.2,-0.07,0.07,0.98
13517,00:00:59,IMU3,0.0,0.0,0.0,0.57,-0.77,9.61,18.69,-8.25,-26.19,0.0,-0.05,0.84,0.54
13518,00:00:59,IMU1,0.0,0.0,0.0,0.42,-5.21,8.23,12.56,25.88,-16.81,-0.24,-0.14,0.4,0.87
13518,00:00:59,IMU2,0.0,0.0,0.0,1.11,-3.87,9.08,0.0,24.38,-21.88,-0.2,-0.07,0.07,0.98
13518,00:00:59,IMU3,0.0,0.0,0.0,0.57,-0.77,9.61,18.69,-8.25,-26.19,0.0,-0.05,0.84,0.54
13519,00:00:59,IMU1,0.0,0.0,0.0,0.42,-5.21,8.23,12.56,25.88,-16.81,-0.24,-0.14,0.4,0.87
13519,00:00:59,IMU2,0.0,0.0,0.0,1.11,-3.91,9.0,0.0,24.38,-21.88,-0.2,-0.07,0.07,0.98
13519,00:00:59,IMU3,0.0,0.0,0.0,0.57,-0.77,9.61,18.69,-8.25,-26.19,0.0,-0.05,0.84,0.54
13520,00:00:59,IMU1,0.0,0.0,0.0,0.42,-5.21,8.23,12.56,25.88,-16.81,-0.24,-0.14,0.4,0.87
13520,00:00:59,IMU2,0.0,0.0,0.0,1.11,-3.91,9.0,-0.69,21.81,-20.31,-0.2,-0.07,0.07,0.98
13520,00:00:59,IMU3,0.0,0.0,0.0,0.57,-0.77,9.61,18.69,-8.25,-26.19,0.0,-0.05,0.84,0.54
13521,00:00:59,IMU1,0.0,0.0,0.0,0.42,-5.21,8.23,12.56,25.88,-16.81,-0.24,-0.14,0.4,0.87
13521,00:00:59,IMU2,0.0,0.0,0.0,1.11,-3.91,9.0,-0.69,21.81,-20.31,-0.2,-0.07,0.07,0.98
13521,00:00:59,IMU3,0.0,0.0,0.0,0.57,-0.77,9.61,18.69,-8.25,-26.19,0.0,-0.05,0.84,0.54
13522,00:00:59,IMU1,0.0,0.0,0.0,0.42,-5.21,8.23,12.56,25.88,-16.81,-0.24,-0.14,0.4,0.87
13522,00:00:59,IMU2,0.0,0.0,0.0,1.11,-3.91,9.0,-0.69,21.81,-20.31,-0.2,-0.07,0.07,0.98
13522,00:00:59,IMU3,0.0,0.0,0.0,0.57,-0.77,9.61,18.69,-8.25,-26.19,0.0,-0.05,0.84,0.54
13523,00:00:59,IMU1,0.0,0.0,0.0,0.46,-5.17,8.27,12.56,25.88,-16.81,-0.24,-0.14,0.4,0.87
13523,00:00:59,IMU2,0.0,0.0,0.0,1.11,-3.91,9.0,-0.69,21.81,-20.31,-0.2,-0.07,0.07,0.98
13523,00:00:59,IMU3,0.0,0.0,0.0,0.57,-0.77,9.61,18.69,-8.25,-26.19,0.0,-0.05,0.84,0.54
13524,00:00:59,IMU1,0.0,0.0,0.0,0.46,-5.17,8.27,12.56,24.75,-16.81,-0.24,-0.14,0.4,0.87
13524,00:00:59,IMU2,0.0,0.0,0.0,1.11,-3.91,9.0,-0.69,21.81,-20.31,-0.2,-0.07,0.07,0.98
13524,00:00:59,IMU3,0.0,0.0,0.0,0.57,-0.77,9.61,18.69,-8.25,-26.19,0.0,-0.05,0.84,0.54
13525,00:00:59,IMU1,0.0,0.0,0.0,0.46,-5.17,8.27,12.56,24.75,-16.81,-0.24,-0.14,0.4,0.87
13525,00:00:59,IMU2,0.0,0.0,0.0,1.11,-3.87,9.04,-0.69,21.81,-20.31,-0.2,-0.07,0.07,0.98
13525,00:00:59,IMU3,0.0,0.0,0.0,0.57,-0.77,9.61,18.38,-6.44,-25.81,0.0,-0.05,0.84,0.54
13526,00:00:59,IMU1,0.0,0.0,0.0,0.46,-5.17,8.27,12.56,24.75,-16.81,-0.24,-0.14,0.4,0.87
13526,00:00:59,IMU2,0.0,0.0,0.0,1.11,-3.87,9.04,-1.81,21.81,-19.5,-0.2,-0.07,0.07,0.98
13526,00:00:59,IMU3,0.0,0.0,0.0,0.57,-0.77,9.61,18.38,-6.44,-25.81,0.0,-0.05,0.84,0.54
13527,00:00:59,IMU1,0.0,0.0,0.0,0.46,-5.17,8.27,12.56,24.75,-16.81,-0.24,-0.14,0.4,0.87
13527,00:00:59,IMU2,0.0,0.0,0.0,1.11,-3.87,9.04,-1.81,21.81,-19.5,-0.2,-0.07,0.07,0.98
13527,00:00:59,IMU3,0.0,0.0,0.0,0.57,-0.77,9.61,18.38,-6.44,-25.81,0.0,-0.05,0.84,0.54
13528,00:00:59,IMU1,0.0,0.0,0.0,0.46,-5.17,8.27,12.56,24.75,-16.81,-0.24,-0.14,0.4,0.87
13528,00:00:59,IMU2,0.0,0.0,0.0,1.11,-3.87,9.04,-1.81,21.81,-19.5,-0.2,-0.07,0.07,0.98
13528,00:00:59,IMU3,0.0,0.0,0.0,0.57,-0.77,9.61,18.38,-6.44,-25.81,0.0,-0.05,0.84,0.54
13529,00:00:59,IMU1,0.0,0.0,0.0,0.46,-5.17,8.36,12.56,24.75,-16.81,-0.24,-0.14,0.4,0.87
13529,00:00:59,IMU2,0.0,0.0,0.0,1.11,-3.87,9.04,-1.81,21.81,-19.5,-0.2,-0.07,0.07,0.98
13529,00:00:59,IMU3,0.0,0.0,0.0,0.57,-0.77,9.61,18.38,-6.44,-25.81,0.0,-0.05,0.84,0.54
13530,00:00:59,IMU1,0.0,0.0,0.0,0.46,-5.17,8.36,13.69,25.12,-16.38,-0.24,-0.14,0.4,0.87
13530,00:00:59,IMU2,0.0,0.0,0.0,1.11,-3.87,9.04,-1.81,21.81,-19.5,-0.2,-0.07,0.07,0.98
13530,00:00:59,IMU3,0.0,0.0,0.0,0.57,-0.77,9.61,18.38,-6.44,-25.81,0.0,-0.05,0.84,0.54
13531,00:00:59,IMU1,0.0,0.0,0.0,0.46,-5.17,8.36,13.69,25.12,-16.38,-0.24,-0.14,0.4,0.87
13531,00:00:59,IMU2,0.0,0.0,0.0,1.11,-3.87,9.04,-1.81,21.81,-19.5,-0.2,-0.07,0.07,0.98
13531,00:00:59,IMU3,0.0,0.0,0.0,0.57,-0.77,9.61,19.81,-7.19,-23.88,0.0,-0.05,0.84,0.54
13532,00:00:59,IMU1,0.0,0.0,0.0,0.46,-5.17,8.36,13.69,25.12,-16.38,-0.24,-0.14,0.4,0.87
13532,00:00:59,IMU2,0.0,0.0,0.0,1.11,-3.87,9.04,-1.81,21.81,-19.5,-0.2,-0.07,0.07,0.98
13532,00:00:59,IMU3,0.0,0.0,0.0,0.57,-0.77,9.61,19.81,-7.19,-23.88,0.0,-0.05,0.84,0.54
13533,00:00:59,IMU1,0.0,0.0,0.0,0.46,-5.17,8.36,13.69,25.12,-16.38,-0.24,-0.14,0.4,0.87
13533,00:00:59,IMU2,0.0,0.0,0.0,1.15,-3.91,9.0,-1.81,21.81,-19.5,-0.2,-0.07,0.07,0.98
13533,00:00:59,IMU3,0.0,0.0,0.0,0.57,-0.77,9.61,19.81,-7.19,-23.88,0.0,-0.05,0.84,0.54
13534,00:00:59,IMU1,0.0,0.0,0.0,0.46,-5.17,8.36,13.69,25.12,-16.38,-0.24,-0.14,0.4,0.87
13534,00:00:59,IMU2,0.0,0.0,0.0,1.15,-3.91,9.0,-0.69,21.44,-20.31,-0.2,-0.07,0.07,0.98
13534,00:00:59,IMU3,0.0,0.0,0.0,0.57,-0.77,9.61,19.81,-7.19,-23.88,0.0,-0.05,0.84,0.54
13535,00:00:59,IMU1,0.0,0.0,0.0,0.42,-5.21,8.23,13.69,25.12,-16.38,-0.24,-0.14,0.4,0.87
13535,00:00:59,IMU2,0.0,0.0,0.0,1.15,-3.91,9.0,-0.69,21.44,-20.31,-0.2,-0.07,0.07,0.98
13535,00:00:59,IMU3,0.0,0.0,0.0,0.57,-0.77,9.61,19.81,-7.19,-23.88,0.0,-0.05,0.84,0.54
13536,00:00:59,IMU1,0.0,0.0,0.0,0.42,-5.21,8.23,12.94,24.0,-16.0,-0.24,-0.14,0.4,0.87
13536,00:00:59,IMU2,0.0,0.0,0.0,1.15,-3.91,9.0,-0.69,21.44,-20.31,-0.2,-0.07,0.07,0.98
13536,00:00:59,IMU3,0.0,0.0,0.0,0.57,-0.77,9.61,19.81,-7.19,-23.88,0.0,-0.05,0.84,0.54
13537,00:00:59,IMU1,0.0,0.0,0.0,0.42,-5.21,8.23,12.94,24.0,-16.0,-0.24,-0.14,0.4,0.87
13537,00:00:59,IMU2,0.0,0.0,0.0,1.15,-3.91,9.0,-0.69,21.44,-20.31,-0.2,-0.07,0.07,0.98
13537,00:00:59,IMU3,0.0,0.0,0.0,0.57,-0.77,9.61,19.81,-7.19,-23.88,0.0,-0.05,0.84,0.54
13538,00:00:59,IMU1,0.0,0.0,0.0,0.42,-5.21,8.23,12.94,24.0,-16.0,-0.24,-0.14,0.4,0.87
13538,00:00:59,IMU2,0.0,0.0,0.0,1.15,-3.91,9.0,-0.69,21.44,-20.31,-0.2,-0.07,0.07,0.98
13538,00:00:59,IMU3,0.0,0.0,0.0,0.57,-0.77,9.61,18.69,-6.81,-23.06,0.0,-0.05,0.84,0.54
13539,00:00:59,IMU1,0.0,0.0,0.0,0.42,-5.21,8.23,12.94,24.0,-16.0,-0.24,-0.14,0.4,0.87
13539,00:00:59,IMU2,0.0,0.0,0.0,1.11,-3.87,9.0,-0.69,21.44,-20.31,-0.2,-0.07,0.07,0.98
13539,00:00:59,IMU3,0.0,0.0,0.0,0.57,-0.77,9.61,18.69,-6.81,-23.06,0.0,-0.05,0.84,0.54
13540,00:00:59,IMU1,0.0,0.0,0.0,0.42,-5.21,8.23,12.94,24.0,-16.0,-0.24,-0.14,0.4,0.87
13540,00:00:59,IMU2,0.0,0.0,0.0,1.11,-3.87,9.0,-0.69,21.44,-20.31,-0.2,-0.07,0.07,0.98
13540,00:00:59,IMU3,0.0,0.0,0.0,0.57,-0.77,9.61,18.69,-6.81,-23.06,0.0,-0.05,0.84,0.54
13541,00:00:59,IMU1,0.0,0.0,0.0,0.46,-5.17,8.36,12.94,24.0,-16.0,-0.24,-0.14,0.4,0.87
13541,00:00:59,IMU2,0.0,0.0,0.0,1.11,-3.87,9.0,0.0,23.62,-20.31,-0.2,-0.07,0.07,0.98
13541,00:00:59,IMU3,0.0,0.0,0.0,0.57,-0.77,9.61,18.69,-6.81,-23.06,0.0,-0.05,0.84,0.54
13542,00:00:59,IMU1,0.0,0.0,0.0,0.46,-5.17,8.36,11.81,24.75,-16.0,-0.24,-0.14,0.4,0.87
13542,00:00:59,IMU2,0.0,0.0,0.0,1.11,-3.87,9.0,0.0,23.62,-20.31,-0.2,-0.07,0.07,0.98
13542,00:00:59,IMU3,0.0,0.0,0.0,0.57,-0.77,9.61,18.69,-6.81,-23.06,0.0,-0.05,0.84,0.54
13543,00:00:59,IMU1,0.0,0.0,0.0,0.46,-5.17,8.36,11.81,24.75,-16.0,-0.24,-0.14,0.4,0.87
13543,00:00:59,IMU2,0.0,0.0,0.0,1.11,-3.87,9.0,0.0,23.62,-20.31,-0.2,-0.07,0.07,0.98
13543,00:00:59,IMU3,0.0,0.0,0.0,0.57,-0.73,9.58,18.69,-6.81,-23.06,0.0,-0.05,0.84,0.54
13544,00:00:59,IMU1,0.0,0.0,0.0,0.46,-5.17,8.36,11.81,24.75,-16.0,-0.24,-0.14,0.4,0.87
13544,00:00:59,IMU2,0.0,0.0,0.0,1.11,-3.87,9.0,0.0,23.62,-20.31,-0.2,-0.07,0.07,0.98
13544,00:00:59,IMU3,0.0,0.0,0.0,0.57,-0.73,9.58,18.69,-7.56,-24.69,0.0,-0.05,0.84,0.54
13545,00:00:59,IMU1,0.0,0.0,0.0,0.46,-5.17,8.36,11.81,24.75,-16.0,-0.24,-0.14,0.4,0.87
13545,00:00:59,IMU2,0.0,0.0,0.0,1.11,-3.87,9.0,0.0,23.62,-20.31,-0.2,-0.07,0.07,0.98
13545,00:00:59,IMU3,0.0,0.0,0.0,0.57,-0.73,9.58,18.69,-7.56,-24.69,0.0,-0.05,0.84,0.54
13546,00:00:59,IMU1,0.0,0.0,0.0,0.46,-5.17,8.36,11.81,24.75,-16.0,-0.24,-0.14,0.4,0.87
13546,00:00:59,IMU2,0.0,0.0,0.0,1.11,-3.87,9.0,0.0,23.62,-20.31,-0.2,-0.07,0.07,0.98
13546,00:00:59,IMU3,0.0,0.0,0.0,0.57,-0.73,9.58,18.69,-7.56,-24.69,0.0,-0.05,0.84,0.54
13547,00:00:59,IMU1,0.0,0.0,0.0,0.46,-5.21,8.28,11.81,24.75,-16.0,-0.24,-0.14,0.4,0.87
13547,00:00:59,IMU2,0.0,0.0,0.0,1.07,-3.91,9.0,0.0,23.62,-20.31,-0.2,-0.07,0.07,0.98
13547,00:00:59,IMU3,0.0,0.0,0.0,0.57,-0.73,9.58,18.69,-7.56,-24.69,0.0,-0.05,0.84,0.54
13548,00:00:59,IMU1,0.0,0.0,0.0,0.46,-5.21,8.28,13.31,22.94,-17.19,-0.24,-0.14,0.4,0.87
13548,00:00:59,IMU2,0.0,0.0,0.0,1.07,-3.91,9.0,-0.69,24.0,-20.31,-0.2,-0.07,0.07,0.98
13548,00:00:59,IMU3,0.0,0.0,0.0,0.57,-0.73,9.58,18.69,-7.56,-24.69,0.0,-0.05,0.84,0.54
13549,00:00:59,IMU1,0.0,0.0,0.0,0.46,-5.21,8.28,13.31,22.94,-17.19,-0.24,-0.14,0.4,0.87
13549,00:00:59,IMU2,0.0,0.0,0.0,1.07,-3.91,9.0,-0.69,24.0,-20.31,-0.2,-0.07,0.07,0.98
13549,00:00:59,IMU3,0.0,0.0,0.0,0.57,-0.73,9.58,18.69,-7.56,-24.69,0.0,-0.05,0.84,0.54
13550,00:00:59,IMU1,0.0,0.0,0.0,0.46,-5.21,8.28,13.31,22.94,-17.19,-0.24,-0.14,0.4,0.87
13550,00:00:59,IMU2,0.0,0.0,0.0,1.07,-3.91,9.0,-0.69,24.0,-20.31,-0.2,-0.07,0.07,0.98
13550,00:00:59,IMU3,0.0,0.0,0.0,0.57,-0.73,9.58,18.69,-7.56,-24.69,0.0,-0.05,0.84,0.54
13551,00:00:59,IMU1,0.0,0.0,0.0,0.46,-5.21,8.28,13.31,22.94,-17.19,-0.24,-0.14,0.4,0.87
13551,00:00:59,IMU2,0.0,0.0,0.0,1.07,-3.91,9.0,-0.69,24.0,-20.31,-0.2,-0.07,0.07,0.98
13551,00:00:59,IMU3,0.0,0.0,0.0,0.57,-0.73,9.61,18.69,-7.56,-24.69,0.0,-0.05,0.84,0.54
13552,00:00:59,IMU1,0.0,0.0,0.0,0.46,-5.21,8.28,13.31,22.94,-17.19,-0.24,-0.14,0.4,0.87
13552,00:00:59,IMU2,0.0,0.0,0.0,1.07,-3.91,9.0,-0.69,24.0,-20.31,-0.2,-0.07,0.07,0.98
13552,00:00:59,IMU3,0.0,0.0,0.0,0.57,-0.73,9.61,19.06,-7.19,-25.06,0.0,-0.05,0.84,0.54
13553,00:00:59,IMU1,0.0,0.0,0.0,0.46,-5.17,8.23,13.31,22.94,-17.19,-0.24,-0.14,0.4,0.87
13553,00:00:59,IMU2,0.0,0.0,0.0,1.07,-3.91,9.0,-0.69,24.0,-20.31,-0.2,-0.07,0.07,0.98
13553,00:00:59,IMU3,0.0,0.0,0.0,0.57,-0.73,9.61,19.06,-7.19,-25.06,0.0,-0.05,0.84,0.54
13554,00:00:59,IMU1,0.0,0.0,0.0,0.46,-5.17,8.23,12.56,25.12,-17.19,-0.24,-0.14,0.4,0.87
13554,00:00:59,IMU2,0.0,0.0,0.0,1.07,-3.91,9.0,-0.69,24.0,-20.31,-0.2,-0.07,0.07,0.98
13554,00:00:59,IMU3,0.0,0.0,0.0,0.57,-0.73,9.61,19.06,-7.19,-25.06,0.0,-0.05,0.84,0.54
13555,00:00:59,IMU1,0.0,0.0,0.0,0.46,-5.17,8.23,12.56,25.12,-17.19,-0.24,-0.14,0.4,0.87
13555,00:00:59,IMU2,0.0,0.0,0.0,1.07,-3.91,9.0,-0.69,24.0,-20.31,-0.2,-0.07,0.07,0.98
13555,00:00:59,IMU3,0.0,0.0,0.0,0.57,-0.73,9.61,19.06,-7.19,-25.06,0.0,-0.05,0.84,0.54
13556,00:00:59,IMU1,0.0,0.0,0.0,0.46,-5.17,8.23,12.56,25.12,-17.19,-0.24,-0.14,0.4,0.87
13556,00:00:59,IMU2,0.0,0.0,0.0,1.07,-3.91,9.0,-0.69,24.0,-20.31,-0.2,-0.07,0.07,0.98
13556,00:00:59,IMU3,0.0,0.0,0.0,0.57,-0.73,9.61,19.06,-7.19,-25.06,0.0,-0.05,0.84,0.54
13557,00:00:59,IMU1,0.0,0.0,0.0,0.46,-5.17,8.23,12.56,25.12,-17.19,-0.24,-0.14,0.4,0.87
13557,00:00:59,IMU2,0.0,0.0,0.0,1.07,-3.91,9.04,-0.69,24.0,-20.31,-0.2,-0.07,0.07,0.98
13557,00:00:59,IMU3,0.0,0.0,0.0,0.57,-0.8,9.65,19.06,-7.19,-25.06,0.0,-0.05,0.84,0.54
13558,00:00:59,IMU1,0.0,0.0,0.0,0.46,-5.17,8.23,12.56,25.12,-17.19,-0.24,-0.14,0.4,0.87
13558,00:00:59,IMU2,0.0,0.0,0.0,1.07,-3.91,9.04,0.0,22.94,-20.31,-0.2,-0.07,0.07,0.98
13558,00:00:59,IMU3,0.0,0.0,0.0,0.57,-0.8,9.65,19.06,-7.19,-25.06,0.0,-0.05,0.84,0.54
13559,00:00:59,IMU1,0.0,0.0,0.0,0.46,-5.17,8.23,12.56,25.12,-17.19,-0.24,-0.14,0.4,0.87
13559,00:00:59,IMU2,0.0,0.0,0.0,1.07,-3.91,9.04,0.0,22.94,-20.31,-0.2,-0.07,0.07,0.98
13559,00:00:59,IMU3,0.0,0.0,0.0,0.57,-0.8,9.65,17.62,-7.88,-24.62,0.0,-0.05,0.84,0.54
13560,00:00:59,IMU1,0.0,0.0,0.0,0.46,-5.17,8.23,12.56,25.12,-17.19,-0.24,-0.14,0.4,0.87
13560,00:00:59,IMU2,0.0,0.0,0.0,1.07,-3.91,9.04,0.0,22.94,-20.31,-0.2,-0.07,0.07,0.98
